Audio_Only_Files,Video_Files,Original_Word_List,noiseLevelCode,conditionCodes,noiseLevelFile1,noiseLevelFile2,InstrTextVar,targetSpeakerName,targetSpeakerEccen,targetSpkrChannel,targetSpkrSound,targetVisualDegrees,visStimLoc,visStimLoc2,visStimW,visStimH,practiceTrials.thisRepN,practiceTrials.thisTrialN,practiceTrials.thisN,practiceTrials.thisIndex,trials.thisRepN,trials.thisTrialN,trials.thisN,trials.thisIndex,audLocalLoop.thisRepN,audLocalLoop.thisTrialN,audLocalLoop.thisN,audLocalLoop.thisIndex,visualLocalLoop.thisRepN,visualLocalLoop.thisTrialN,visualLocalLoop.thisN,visualLocalLoop.thisIndex,letsGoAlready.keys,letsGoAlready.rt,letsGoAlready.started,letsGoAlready.stopped,text_2.started,text_2.stopped,text_3.started,text_3.stopped,key_resp_2.keys,key_resp_2.rt,key_resp_2.started,key_resp_2.stopped,text_5.started,text_5.stopped,fixCross.started,fixCross.stopped,fixCross2.started,fixCross2.stopped,answerPrompt.started,answerPrompt.stopped,getAnswer.text,getAnswer.started,getAnswer.stopped,goToNext.keys,goToNext.rt,goToNext.started,goToNext.stopped,stretchBreakTxrt.started,stretchBreakTxrt.stopped,key_resp_3.keys,key_resp_3.rt,key_resp_3.started,key_resp_3.stopped,letsGoLocal.keys,letsGoLocal.rt,letsGoLocal.started,letsGoLocal.stopped,text_4.started,text_4.stopped,prepFixTxt.started,prepFixTxt.stopped,prepFixTxt_2.started,prepFixTxt_2.stopped,respPromptLocal.started,respPromptLocal.stopped,slider.response,slider.rt,slider.started,slider.stopped,letsGoLocal_2.keys,letsGoLocal_2.rt,letsGoLocal_2.started,letsGoLocal_2.stopped,text_7.started,text_7.stopped,prepFixTxt_3.started,prepFixTxt_3.stopped,grating.started,grating.stopped,exitTxt.started,exitTxt.stopped,key_resp.keys,key_resp.rt,key_resp.started,key_resp.stopped,participant,session,date,expName,psychopyVersion,frameRate,
,,,,,,,,,,,,,,,,,,,,,,,,,,,,,,,,,space,20.30699900491163,16.938107885420322,None,,,,,,,,,,,,,,,,,,,,,,,,,,,,,,,,,,,,,,,,,,,,,,,,,,,,,,,,,,,,,,154,001,2024_Jan_23_1718,SpeechDraft1Carolyn_lessNoise_PlusLocalization,2021.2.3,60.02456623654128,
,,,,,,,,,,,,,,,,,,,,,,,,,,,,,,,,,,,,,16.938107885420322,None,37.372406273148954,None,space,6.618213050998747,37.55491723539308,None,,,,,,,,,,,,,,,,,,,,,,,,,,,,,,,,,,,,,,,,,,,,,,,,,,,,,,154,001,2024_Jan_23_1718,SpeechDraft1Carolyn_lessNoise_PlusLocalization,2021.2.3,60.02456623654128,
ash.wav,ash.mpg,ash,1,A,Pink_Noise_1_1.wav,Pink_Noise_1_2.wav,"This is an example of an

AUDIO trial",,,,,,,,,,0,0,0,0,,,,,,,,,,,,,,,,,,,,,,,,,44.22259636223316,None,45.22125581931323,None,48.422584066167474,None,49.8049997324124,None,ash,49.8049997324124,None,return,5.3892372329719365,49.88797931233421,None,,,,,,,,,,,,,,,,,,,,,,,,,,,,,,,,,,,,,,,154,001,2024_Jan_23_1718,SpeechDraft1Carolyn_lessNoise_PlusLocalization,2021.2.3,60.02456623654128,
ash.wav,ash.mpg,ash,1,AV,Pink_Noise_1_1.wav,Pink_Noise_1_2.wav,"This is an example of an

AUDIO + VIDEO  trial",,,,,,,,,,0,1,1,1,,,,,,,,,,,,,,,,,,,,,,,,,55.32100488198921,None,56.32131678238511,None,57.820886640343815,None,59.20457922341302,None,ash,59.20457922341302,None,return,2.12511135218665,59.2880232790485,None,,,,,,,,,,,,,,,,,,,,,,,,,,,,,,,,,,,,,,,154,001,2024_Jan_23_1718,SpeechDraft1Carolyn_lessNoise_PlusLocalization,2021.2.3,60.02456623654128,
,,,,,,,,,,,,,,,,,,,,,,,,,,,,,,,,,,,,,,,,,,,,,,,,,,,,,,,,,,,,61.454334209207445,None,space,13.319293677341193,61.63796044932678,None,,,,,,,,,,,,,,,,,,,,,,,,,,,,,,,,,154,001,2024_Jan_23_1718,SpeechDraft1Carolyn_lessNoise_PlusLocalization,2021.2.3,60.02456623654128,
bright.wav,bright.mpg,bright,6,A,Pink_Noise_6_1.wav,Pink_Noise_6_2.wav,,,,,,,,,,,,,,,0,0,0,15,,,,,,,,,,,,,,,,,,,,,,,75.02097379602492,None,76.50430642301217,None,77.88805900933221,None,love,77.88805900933221,None,return,3.977806604001671,77.9713460560888,None,,,,,,,,,,,,,,,,,,,,,,,,,,,,,,,,,,,,,,,154,001,2024_Jan_23_1718,SpeechDraft1Carolyn_lessNoise_PlusLocalization,2021.2.3,60.02456623654128,
bare.wav,bare.mpg,bare,2,AV,Pink_Noise_2_1.wav,Pink_Noise_2_2.wav,,,,,,,,,,,,,,,0,1,1,85,,,,,,,,,,,,,,,,,,,,,,,81.9712705030106,None,83.48774014413357,None,84.8714381181635,None,bear,84.8714381181635,None,return,1.3385968450456858,84.95466435421258,None,,,,,,,,,,,,,,,,,,,,,,,,,,,,,,,,,,,,,,,154,001,2024_Jan_23_1718,SpeechDraft1Carolyn_lessNoise_PlusLocalization,2021.2.3,60.02456623654128,
peach.wav,peach.mpg,peach,5,A,Pink_Noise_5_1.wav,Pink_Noise_5_2.wav,,,,,,,,,,,,,,,0,2,2,12,,,,,,,,,,,,,,,,,,,,,,,86.32139074010774,None,87.8209649482742,None,89.20470900414512,None,beach,89.20470900414512,None,return,1.5733112948946655,89.28795522311702,None,,,,,,,,,,,,,,,,,,,,,,,,,,,,,,,,,,,,,,,154,001,2024_Jan_23_1718,SpeechDraft1Carolyn_lessNoise_PlusLocalization,2021.2.3,60.02456623654128,
cloud.wav,cloud.mpg,cloud,3,A,Pink_Noise_3_1.wav,Pink_Noise_3_2.wav,,,,,,,,,,,,,,,0,3,3,5,,,,,,,,,,,,,,,,,,,,,,,90.88799083698541,None,92.38759856438264,None,93.77130531333387,None,cloud,93.77130531333387,None,return,1.8625134350731969,93.8545717173256,None,,,,,,,,,,,,,,,,,,,,,,,,,,,,,,,,,,,,,,,154,001,2024_Jan_23_1718,SpeechDraft1Carolyn_lessNoise_PlusLocalization,2021.2.3,60.02456623654128,
grunt.wav,grunt.mpg,grunt,1,AV,Pink_Noise_1_1.wav,Pink_Noise_1_2.wav,,,,,,,,,,,,,,,0,4,4,72,,,,,,,,,,,,,,,,,,,,,,,95.73814642196521,None,97.2375955330208,None,98.62128904135898,None,grunt,98.62128904135898,None,return,1.4123423220589757,98.70480248797685,None,,,,,,,,,,,,,,,,,,,,,,,,,,,,,,,,,,,,,,,154,001,2024_Jan_23_1718,SpeechDraft1Carolyn_lessNoise_PlusLocalization,2021.2.3,60.02456623654128,
sake.wav,sake.mpg,sake,4,A,Pink_Noise_4_1.wav,Pink_Noise_4_2.wav,,,,,,,,,,,,,,,0,5,5,18,,,,,,,,,,,,,,,,,,,,,,,100.13806057628244,None,101.63760019326583,None,103.02127443533391,None,"sick
",103.02127443533391,None,return,0.8844125382602215,103.10471678432077,None,,,,,,,,,,,,,,,,,,,,,,,,,,,,,,,,,,,,,,,154,001,2024_Jan_23_1718,SpeechDraft1Carolyn_lessNoise_PlusLocalization,2021.2.3,60.02456623654128,
beat.wav,beat.mpg,beat,1,AV,Pink_Noise_1_1.wav,Pink_Noise_1_2.wav,,,,,,,,,,,,,,,0,6,6,79,,,,,,,,,,,,,,,,,,,,,,,104.02128054806963,None,105.5222462201491,None,106.90458112023771,None,beat,106.90458112023771,None,return,0.9210593812167645,106.98809647606686,None,,,,,,,,,,,,,,,,,,,,,,,,,,,,,,,,,,,,,,,154,001,2024_Jan_23_1718,SpeechDraft1Carolyn_lessNoise_PlusLocalization,2021.2.3,60.02456623654128,
fraud.wav,fraud.mpg,fraud,6,A,Pink_Noise_6_1.wav,Pink_Noise_6_2.wav,,,,,,,,,,,,,,,0,7,7,7,,,,,,,,,,,,,,,,,,,,,,,107.9379752711393,None,109.43770218919963,None,110.82129699736834,None,"bus
",110.82129699736834,None,return,1.068199166096747,110.90492649842054,None,,,,,,,,,,,,,,,,,,,,,,,,,,,,,,,,,,,,,,,154,001,2024_Jan_23_1718,SpeechDraft1Carolyn_lessNoise_PlusLocalization,2021.2.3,60.02456623654128,
live.wav,live.mpg,live,6,A,Pink_Noise_6_1.wav,Pink_Noise_6_2.wav,,,,,,,,,,,,,,,0,8,8,57,,,,,,,,,,,,,,,,,,,,,,,112.00465469714254,None,113.50436191307381,None,114.88797388831154,None,"lake
",114.88797388831154,None,return,1.817723617888987,114.97142044827342,None,,,,,,,,,,,,,,,,,,,,,,,,,,,,,,,,,,,,,,,154,001,2024_Jan_23_1718,SpeechDraft1Carolyn_lessNoise_PlusLocalization,2021.2.3,60.02456623654128,
earth.wav,earth.mpg,earth,1,A,Pink_Noise_1_1.wav,Pink_Noise_1_2.wav,,,,,,,,,,,,,,,0,9,9,9,,,,,,,,,,,,,,,,,,,,,,,116.82135613821447,None,118.3211276861839,None,119.70465391222388,None,earth,119.70465391222388,None,return,2.6891628289595246,119.78805201500654,None,,,,,,,,,,,,,,,,,,,,,,,,,,,,,,,,,,,,,,,154,001,2024_Jan_23_1718,SpeechDraft1Carolyn_lessNoise_PlusLocalization,2021.2.3,60.02456623654128,
brief.wav,brief.mpg,brief,2,A,Pink_Noise_2_1.wav,Pink_Noise_2_2.wav,,,,,,,,,,,,,,,0,10,10,16,,,,,,,,,,,,,,,,,,,,,,,122.50480452319607,None,124.0044566472061,None,125.38837870815769,None,breeze,125.38837870815769,None,return,1.837665880098939,125.47145354840904,None,,,,,,,,,,,,,,,,,,,,,,,,,,,,,,,,,,,,,,,154,001,2024_Jan_23_1718,SpeechDraft1Carolyn_lessNoise_PlusLocalization,2021.2.3,60.02456623654128,
eye.wav,eye.mpg,eye,4,AV,Pink_Noise_4_1.wav,Pink_Noise_4_2.wav,,,,,,,,,,,,,,,0,11,11,96,,,,,,,,,,,,,,,,,,,,,,,127.33800012012944,None,128.8377582943067,None,130.22131503932178,None,eye,130.22131503932178,None,return,0.740511829033494,130.30469469819218,None,,,,,,,,,,,,,,,,,,,,,,,,,,,,,,,,,,,,,,,154,001,2024_Jan_23_1718,SpeechDraft1Carolyn_lessNoise_PlusLocalization,2021.2.3,60.02456623654128,
cope.wav,cope.mpg,cope,1,AV,Pink_Noise_1_1.wav,Pink_Noise_1_2.wav,,,,,,,,,,,,,,,0,12,12,60,,,,,,,,,,,,,,,,,,,,,,,131.07142677204683,None,132.57117090420797,None,133.9547910434194,None,cope,133.9547910434194,None,return,0.9751003463752568,134.03801919706166,None,,,,,,,,,,,,,,,,,,,,,,,,,,,,,,,,,,,,,,,154,001,2024_Jan_23_1718,SpeechDraft1Carolyn_lessNoise_PlusLocalization,2021.2.3,60.02456623654128,
chomp.wav,chomp.mpg,chomp,5,AV,Pink_Noise_5_1.wav,Pink_Noise_5_2.wav,,,,,,,,,,,,,,,0,13,13,111,,,,,,,,,,,,,,,,,,,,,,,135.03802362410352,None,136.53777822526172,None,137.9213362741284,None,"chomp
",137.9213362741284,None,return,1.9683479517698288,138.00478109205142,None,,,,,,,,,,,,,,,,,,,,,,,,,,,,,,,,,,,,,,,154,001,2024_Jan_23_1718,SpeechDraft1Carolyn_lessNoise_PlusLocalization,2021.2.3,60.02456623654128,
fruit.wav,fruit.mpg,fruit,3,A,Pink_Noise_3_1.wav,Pink_Noise_3_2.wav,,,,,,,,,,,,,,,0,14,14,4,,,,,,,,,,,,,,,,,,,,,,,140.0047556310892,None,141.5043926150538,None,142.88818337209523,None,priest,142.88818337209523,None,return,1.7218899838626385,142.9714309433475,None,,,,,,,,,,,,,,,,,,,,,,,,,,,,,,,,,,,,,,,154,001,2024_Jan_23_1718,SpeechDraft1Carolyn_lessNoise_PlusLocalization,2021.2.3,60.02456623654128,
cube.wav,cube.mpg,cube,4,AV,Pink_Noise_4_1.wav,Pink_Noise_4_2.wav,,,,,,,,,,,,,,,0,15,15,90,,,,,,,,,,,,,,,,,,,,,,,144.7214344041422,None,146.22122504515573,None,147.60464983806014,None,cube,147.60464983806014,None,return,1.2210203181020916,147.68810109607875,None,,,,,,,,,,,,,,,,,,,,,,,,,,,,,,,,,,,,,,,154,001,2024_Jan_23_1718,SpeechDraft1Carolyn_lessNoise_PlusLocalization,2021.2.3,60.02456623654128,
earn.wav,earn.mpg,earn,2,AV,Pink_Noise_2_1.wav,Pink_Noise_2_2.wav,,,,,,,,,,,,,,,0,16,16,71,,,,,,,,,,,,,,,,,,,,,,,148.93810305232182,None,150.43775745714083,None,151.8213702091016,None,earn,151.8213702091016,None,return,1.140351952984929,151.90486512705684,None,,,,,,,,,,,,,,,,,,,,,,,,,,,,,,,,,,,,,,,154,001,2024_Jan_23_1718,SpeechDraft1Carolyn_lessNoise_PlusLocalization,2021.2.3,60.02456623654128,
bow.wav,bow.mpg,bow,3,AV,Pink_Noise_3_1.wav,Pink_Noise_3_2.wav,,,,,,,,,,,,,,,0,17,17,64,,,,,,,,,,,,,,,,,,,,,,,153.07143346313387,None,154.57215024717152,None,155.95459136832505,None,"bow
",155.95459136832505,None,return,1.367066337261349,156.03806227538735,None,,,,,,,,,,,,,,,,,,,,,,,,,,,,,,,,,,,,,,,154,001,2024_Jan_23_1718,SpeechDraft1Carolyn_lessNoise_PlusLocalization,2021.2.3,60.02456623654128,
ear.wav,ear.mpg,ear,5,A,Pink_Noise_5_1.wav,Pink_Noise_5_2.wav,,,,,,,,,,,,,,,0,18,18,6,,,,,,,,,,,,,,,,,,,,,,,157.438048904296,None,158.93764150235802,None,160.3214256283827,None,do,160.3214256283827,None,return,1.6404544557444751,160.40479550231248,None,,,,,,,,,,,,,,,,,,,,,,,,,,,,,,,,,,,,,,,154,001,2024_Jan_23_1718,SpeechDraft1Carolyn_lessNoise_PlusLocalization,2021.2.3,60.02456623654128,
fable.wav,fable.mpg,fable,4,A,Pink_Noise_4_1.wav,Pink_Noise_4_2.wav,,,,,,,,,,,,,,,0,19,19,20,,,,,,,,,,,,,,,,,,,,,,,162.0714872824028,None,163.57123485812917,None,164.95483584329486,None,sailor,164.95483584329486,None,return,1.6790030119009316,165.0381369991228,None,,,,,,,,,,,,,,,,,,,,,,,,,,,,,,,,,,,,,,,154,001,2024_Jan_23_1718,SpeechDraft1Carolyn_lessNoise_PlusLocalization,2021.2.3,60.02456623654128,
drive.wav,drive.mpg,drive,1,AV,Pink_Noise_1_1.wav,Pink_Noise_1_2.wav,,,,,,,,,,,,,,,0,20,20,63,,,,,,,,,,,,,,,,,,,,,,,166.7380596413277,None,168.23786243004724,None,169.62144893407822,None,drive,169.62144893407822,None,return,1.380556439049542,169.70471641421318,None,,,,,,,,,,,,,,,,,,,,,,,,,,,,,,,,,,,,,,,154,001,2024_Jan_23_1718,SpeechDraft1Carolyn_lessNoise_PlusLocalization,2021.2.3,60.02456623654128,
carve.wav,carve.mpg,carve,3,AV,Pink_Noise_3_1.wav,Pink_Noise_3_2.wav,,,,,,,,,,,,,,,0,21,21,69,,,,,,,,,,,,,,,,,,,,,,,171.10474541736767,None,172.60532667208463,None,173.9879993502982,None,"carve
",173.9879993502982,None,return,1.4857146288268268,174.07141905697063,None,,,,,,,,,,,,,,,,,,,,,,,,,,,,,,,,,,,,,,,154,001,2024_Jan_23_1718,SpeechDraft1Carolyn_lessNoise_PlusLocalization,2021.2.3,60.02456623654128,
dwell.wav,dwell.mpg,dwell,6,AV,Pink_Noise_6_1.wav,Pink_Noise_6_2.wav,,,,,,,,,,,,,,,0,22,22,108,,,,,,,,,,,,,,,,,,,,,,,175.58805826539174,None,177.08807292208076,None,178.4714088481851,None,realm,178.4714088481851,None,return,3.5464954879134893,178.55473760329187,None,,,,,,,,,,,,,,,,,,,,,,,,,,,,,,,,,,,,,,,154,001,2024_Jan_23_1718,SpeechDraft1Carolyn_lessNoise_PlusLocalization,2021.2.3,60.02456623654128,
birch.wav,birch.mpg,birch,5,AV,Pink_Noise_5_1.wav,Pink_Noise_5_2.wav,,,,,,,,,,,,,,,0,23,23,86,,,,,,,,,,,,,,,,,,,,,,,182.12142069917172,None,183.6214351723902,None,185.00489103235304,None,birch,185.00489103235304,None,return,1.2449781503528357,185.08815663028508,None,,,,,,,,,,,,,,,,,,,,,,,,,,,,,,,,,,,,,,,154,001,2024_Jan_23_1718,SpeechDraft1Carolyn_lessNoise_PlusLocalization,2021.2.3,60.02456623654128,
smack.wav,smack.mpg,smack,6,AV,Pink_Noise_6_1.wav,Pink_Noise_6_2.wav,,,,,,,,,,,,,,,0,24,24,80,,,,,,,,,,,,,,,,,,,,,,,186.35479137627408,None,187.8545320550911,None,189.2380449771881,None,spent,189.2380449771881,None,return,4.0117018930613995,189.32143882801756,None,,,,,,,,,,,,,,,,,,,,,,,,,,,,,,,,,,,,,,,154,001,2024_Jan_23_1718,SpeechDraft1Carolyn_lessNoise_PlusLocalization,2021.2.3,60.02456623654128,
axe.wav,axe.mpg,axe,6,AV,Pink_Noise_6_1.wav,Pink_Noise_6_2.wav,,,,,,,,,,,,,,,0,25,25,91,,,,,,,,,,,,,,,,,,,,,,,193.35493248607963,None,194.85468098707497,None,196.2380459420383,None,ask,196.2380459420383,None,return,0.7315911571495235,196.32164493296295,None,,,,,,,,,,,,,,,,,,,,,,,,,,,,,,,,,,,,,,,154,001,2024_Jan_23_1718,SpeechDraft1Carolyn_lessNoise_PlusLocalization,2021.2.3,60.02456623654128,
deal.wav,deal.mpg,deal,2,A,Pink_Noise_2_1.wav,Pink_Noise_2_2.wav,,,,,,,,,,,,,,,0,26,26,54,,,,,,,,,,,,,,,,,,,,,,,197.0714894812554,None,198.5710946279578,None,199.95478138327599,None,deal,199.95478138327599,None,return,0.8632084368728101,200.03808809397742,None,,,,,,,,,,,,,,,,,,,,,,,,,,,,,,,,,,,,,,,154,001,2024_Jan_23_1718,SpeechDraft1Carolyn_lessNoise_PlusLocalization,2021.2.3,60.02456623654128,
ton.wav,ton.mpg,ton,3,AV,Pink_Noise_3_1.wav,Pink_Noise_3_2.wav,,,,,,,,,,,,,,,0,27,27,103,,,,,,,,,,,,,,,,,,,,,,,200.92189442832023,None,202.4379118802026,None,203.80471020797268,None,ton,203.80471020797268,None,return,0.9971404001116753,203.88805703027174,None,,,,,,,,,,,,,,,,,,,,,,,,,,,,,,,,,,,,,,,154,001,2024_Jan_23_1718,SpeechDraft1Carolyn_lessNoise_PlusLocalization,2021.2.3,60.02456623654128,
fish.wav,fish.mpg,fish,3,A,Pink_Noise_3_1.wav,Pink_Noise_3_2.wav,,,,,,,,,,,,,,,0,28,28,49,,,,,,,,,,,,,,,,,,,,,,,204.9047889560461,None,206.40449888119474,None,207.7882554330863,None,fish,207.7882554330863,None,return,0.7657072599977255,207.87149403430521,None,,,,,,,,,,,,,,,,,,,,,,,,,,,,,,,,,,,,,,,154,001,2024_Jan_23_1718,SpeechDraft1Carolyn_lessNoise_PlusLocalization,2021.2.3,60.02456623654128,
chart.wav,chart.mpg,chart,1,A,Pink_Noise_1_1.wav,Pink_Noise_1_2.wav,,,,,,,,,,,,,,,0,29,29,13,,,,,,,,,,,,,,,,,,,,,,,208.65492006903514,None,210.15472205728292,None,211.53815743839368,None,chart,211.53815743839368,None,return,0.943604233674705,211.62151201535016,None,,,,,,,,,,,,,,,,,,,,,,,,,,,,,,,,,,,,,,,154,001,2024_Jan_23_1718,SpeechDraft1Carolyn_lessNoise_PlusLocalization,2021.2.3,60.02456623654128,
club.wav,club.mpg,club,6,AV,Pink_Noise_6_1.wav,Pink_Noise_6_2.wav,,,,,,,,,,,,,,,0,30,30,116,,,,,,,,,,,,,,,,,,,,,,,212.5881469482556,None,214.08782614720985,None,215.47137714130804,None,"club
",215.47137714130804,None,return,1.6342770070768893,215.554855320137,None,,,,,,,,,,,,,,,,,,,,,,,,,,,,,,,,,,,,,,,154,001,2024_Jan_23_1718,SpeechDraft1Carolyn_lessNoise_PlusLocalization,2021.2.3,60.02456623654128,
gone.wav,gone.mpg,gone,6,A,Pink_Noise_6_1.wav,Pink_Noise_6_2.wav,,,,,,,,,,,,,,,0,31,31,45,,,,,,,,,,,,,,,,,,,,,,,217.22145765041932,None,218.73789095832035,None,220.12147655896842,None,flash,220.12147655896842,None,return,1.3762914366088808,220.20483261626214,None,,,,,,,,,,,,,,,,,,,,,,,,,,,,,,,,,,,,,,,154,001,2024_Jan_23_1718,SpeechDraft1Carolyn_lessNoise_PlusLocalization,2021.2.3,60.02456623654128,
layer.wav,layer.mpg,layer,3,A,Pink_Noise_3_1.wav,Pink_Noise_3_2.wav,,,,,,,,,,,,,,,0,32,32,36,,,,,,,,,,,,,,,,,,,,,,,221.60481829429045,None,223.12123319413513,None,224.50480653019622,None,"player
",224.50480653019622,None,return,2.984920254908502,224.58821544237435,None,,,,,,,,,,,,,,,,,,,,,,,,,,,,,,,,,,,,,,,154,001,2024_Jan_23_1718,SpeechDraft1Carolyn_lessNoise_PlusLocalization,2021.2.3,60.02456623654128,
chest.wav,chest.mpg,chest,2,AV,Pink_Noise_2_1.wav,Pink_Noise_2_2.wav,,,,,,,,,,,,,,,0,33,33,81,,,,,,,,,,,,,,,,,,,,,,,227.60494582727551,None,229.10456359013915,None,230.48805355234072,None,chest,230.48805355234072,None,return,0.8577144066803157,230.57149554602802,None,,,,,,,,,,,,,,,,,,,,,,,,,,,,,,,,,,,,,,,154,001,2024_Jan_23_1718,SpeechDraft1Carolyn_lessNoise_PlusLocalization,2021.2.3,60.02456623654128,
cone.wav,cone.mpg,cone,2,AV,Pink_Noise_2_1.wav,Pink_Noise_2_2.wav,,,,,,,,,,,,,,,0,34,34,65,,,,,,,,,,,,,,,,,,,,,,,231.45482881134376,None,232.97123392531648,None,234.35469277808443,None,cold,234.35469277808443,None,return,0.806967921089381,234.4382470450364,None,,,,,,,,,,,,,,,,,,,,,,,,,,,,,,,,,,,,,,,154,001,2024_Jan_23_1718,SpeechDraft1Carolyn_lessNoise_PlusLocalization,2021.2.3,60.02456623654128,
clerk.wav,clerk.mpg,clerk,6,AV,Pink_Noise_6_1.wav,Pink_Noise_6_2.wav,,,,,,,,,,,,,,,0,35,35,77,,,,,,,,,,,,,,,,,,,,,,,235.2715149652213,None,236.7713802610524,None,238.1547342641279,None,look,238.1547342641279,None,return,1.0230742217972875,238.23814855329692,None,,,,,,,,,,,,,,,,,,,,,,,,,,,,,,,,,,,,,,,154,001,2024_Jan_23_1718,SpeechDraft1Carolyn_lessNoise_PlusLocalization,2021.2.3,60.02456623654128,
castle.wav,castle.mpg,castle,6,AV,Pink_Noise_6_1.wav,Pink_Noise_6_2.wav,,,,,,,,,,,,,,,0,36,36,114,,,,,,,,,,,,,,,,,,,,,,,239.28817739104852,None,240.78792182495818,None,242.17149359732866,None,"hazard
",242.17149359732866,None,return,3.5022426317445934,242.25487825507298,None,,,,,,,,,,,,,,,,,,,,,,,,,,,,,,,,,,,,,,,154,001,2024_Jan_23_1718,SpeechDraft1Carolyn_lessNoise_PlusLocalization,2021.2.3,60.02456623654128,
thrown.wav,thrown.mpg,thrown,3,AV,Pink_Noise_3_1.wav,Pink_Noise_3_2.wav,,,,,,,,,,,,,,,0,37,37,105,,,,,,,,,,,,,,,,,,,,,,,245.7881718161516,None,247.30465888231993,None,248.67166013037786,None,throw,248.67166013037786,None,return,1.0742741180583835,248.75487360032275,None,,,,,,,,,,,,,,,,,,,,,,,,,,,,,,,,,,,,,,,154,001,2024_Jan_23_1718,SpeechDraft1Carolyn_lessNoise_PlusLocalization,2021.2.3,60.02456623654128,
guilt.wav,guilt.mpg,guilt,5,A,Pink_Noise_5_1.wav,Pink_Noise_5_2.wav,,,,,,,,,,,,,,,0,38,38,22,,,,,,,,,,,,,,,,,,,,,,,249.8549297391437,None,251.35468059033155,None,252.7381403669715,None,route,252.7381403669715,None,return,4.399666725192219,252.82155562611297,None,,,,,,,,,,,,,,,,,,,,,,,,,,,,,,,,,,,,,,,154,001,2024_Jan_23_1718,SpeechDraft1Carolyn_lessNoise_PlusLocalization,2021.2.3,60.02456623654128,
care.wav,care.mpg,care,4,A,Pink_Noise_4_1.wav,Pink_Noise_4_2.wav,,,,,,,,,,,,,,,0,39,39,10,,,,,,,,,,,,,,,,,,,,,,,257.23821644624695,None,258.7378594609909,None,260.12154510617256,None,chair,260.12154510617256,None,return,0.8483380111865699,260.2048920332454,None,,,,,,,,,,,,,,,,,,,,,,,,,,,,,,,,,,,,,,,154,001,2024_Jan_23_1718,SpeechDraft1Carolyn_lessNoise_PlusLocalization,2021.2.3,60.02456623654128,
farm.wav,farm.mpg,farm,4,A,Pink_Noise_4_1.wav,Pink_Noise_4_2.wav,,,,,,,,,,,,,,,0,40,40,38,,,,,,,,,,,,,,,,,,,,,,,261.0715210363269,None,262.5879295170307,None,263.97165804635733,None,car,263.97165804635733,None,return,0.798318371642381,264.0548824733123,None,,,,,,,,,,,,,,,,,,,,,,,,,,,,,,,,,,,,,,,154,001,2024_Jan_23_1718,SpeechDraft1Carolyn_lessNoise_PlusLocalization,2021.2.3,60.02456623654128,
fright.wav,fright.mpg,fright,5,A,Pink_Noise_5_1.wav,Pink_Noise_5_2.wav,,,,,,,,,,,,,,,0,41,41,24,,,,,,,,,,,,,,,,,,,,,,,264.87153472332284,None,266.38780574826524,None,267.77159495232627,None,price,267.77159495232627,None,return,1.262124246917665,267.85499595617875,None,,,,,,,,,,,,,,,,,,,,,,,,,,,,,,,,,,,,,,,154,001,2024_Jan_23_1718,SpeechDraft1Carolyn_lessNoise_PlusLocalization,2021.2.3,60.02456623654128,
burn.wav,burn.mpg,burn,6,AV,Pink_Noise_6_1.wav,Pink_Noise_6_2.wav,,,,,,,,,,,,,,,0,42,42,73,,,,,,,,,,,,,,,,,,,,,,,269.13816810119897,None,270.6393207414076,None,272.0215425910428,None,burn,272.0215425910428,None,return,0.7402100348845124,272.10495686531067,None,,,,,,,,,,,,,,,,,,,,,,,,,,,,,,,,,,,,,,,154,001,2024_Jan_23_1718,SpeechDraft1Carolyn_lessNoise_PlusLocalization,2021.2.3,60.02456623654128,
depth.wav,depth.mpg,depth,4,A,Pink_Noise_4_1.wav,Pink_Noise_4_2.wav,,,,,,,,,,,,,,,0,43,43,14,,,,,,,,,,,,,,,,,,,,,,,272.87157148728147,None,274.3879150492139,None,275.7717213691212,None,depth,275.7717213691212,None,return,3.430385780055076,275.8548493660055,None,,,,,,,,,,,,,,,,,,,,,,,,,,,,,,,,,,,,,,,154,001,2024_Jan_23_1718,SpeechDraft1Carolyn_lessNoise_PlusLocalization,2021.2.3,60.02456623654128,
bank.wav,bank.mpg,bank,2,A,Pink_Noise_2_1.wav,Pink_Noise_2_2.wav,,,,,,,,,,,,,,,0,44,44,1,,,,,,,,,,,,,,,,,,,,,,,279.3048985800706,None,280.8212615302764,None,282.20497670024633,None,beg,282.20497670024633,None,return,0.6928456285968423,282.2882968983613,None,,,,,,,,,,,,,,,,,,,,,,,,,,,,,,,,,,,,,,,154,001,2024_Jan_23_1718,SpeechDraft1Carolyn_lessNoise_PlusLocalization,2021.2.3,60.02456623654128,
bias.wav,bias.mpg,bias,3,AV,Pink_Noise_3_1.wav,Pink_Noise_3_2.wav,,,,,,,,,,,,,,,0,45,45,76,,,,,,,,,,,,,,,,,,,,,,,283.00503880530596,None,284.50481323804706,None,285.88826033705845,None,bias,285.88826033705845,None,return,0.6095422231592238,285.9715844593011,None,,,,,,,,,,,,,,,,,,,,,,,,,,,,,,,,,,,,,,,154,001,2024_Jan_23_1718,SpeechDraft1Carolyn_lessNoise_PlusLocalization,2021.2.3,60.02456623654128,
grind.wav,grind.mpg,grind,2,A,Pink_Noise_2_1.wav,Pink_Noise_2_2.wav,,,,,,,,,,,,,,,0,46,46,17,,,,,,,,,,,,,,,,,,,,,,,286.60488683823496,None,288.1045587891713,None,289.48828424932435,None,grind,289.48828424932435,None,return,1.865575022995472,289.57165224896744,None,,,,,,,,,,,,,,,,,,,,,,,,,,,,,,,,,,,,,,,154,001,2024_Jan_23_1718,SpeechDraft1Carolyn_lessNoise_PlusLocalization,2021.2.3,60.02456623654128,
fist.wav,fist.mpg,fist,1,AV,Pink_Noise_1_1.wav,Pink_Noise_1_2.wav,,,,,,,,,,,,,,,0,47,47,89,,,,,,,,,,,,,,,,,,,,,,,291.4549664980732,None,292.9713969351724,None,294.3547854232602,None,fist,294.3547854232602,None,return,0.8149483040906489,294.4382486860268,None,,,,,,,,,,,,,,,,,,,,,,,,,,,,,,,,,,,,,,,154,001,2024_Jan_23_1718,SpeechDraft1Carolyn_lessNoise_PlusLocalization,2021.2.3,60.02456623654128,
belt.wav,belt.mpg,belt,4,AV,Pink_Noise_4_1.wav,Pink_Noise_4_2.wav,,,,,,,,,,,,,,,0,48,48,70,,,,,,,,,,,,,,,,,,,,,,,295.27158189425245,None,296.7725027310662,None,298.15496193803847,None,belt,298.15496193803847,None,return,0.9108719886280596,298.2382421703078,None,,,,,,,,,,,,,,,,,,,,,,,,,,,,,,,,,,,,,,,154,001,2024_Jan_23_1718,SpeechDraft1Carolyn_lessNoise_PlusLocalization,2021.2.3,60.02456623654128,
bless.wav,bless.mpg,bless,1,A,Pink_Noise_1_1.wav,Pink_Noise_1_2.wav,,,,,,,,,,,,,,,0,49,49,29,,,,,,,,,,,,,,,,,,,,,,,299.17158789234236,None,300.68789968220517,None,302.05512298597023,None,"less
",302.05512298597023,None,return,1.0268541262485087,302.1382687110454,None,,,,,,,,,,,,,,,,,,,,,,,,,,,,,,,,,,,,,,,154,001,2024_Jan_23_1718,SpeechDraft1Carolyn_lessNoise_PlusLocalization,2021.2.3,60.02456623654128,
tart.wav,tart.mpg,tart,1,A,Pink_Noise_1_1.wav,Pink_Noise_1_2.wav,,,,,,,,,,,,,,,0,50,50,43,,,,,,,,,,,,,,,,,,,,,,,303.20509677706286,None,304.72122556110844,None,306.10497638210654,None,tart,306.10497638210654,None,return,0.9767866740003228,306.18833643896505,None,,,,,,,,,,,,,,,,,,,,,,,,,,,,,,,,,,,,,,,154,001,2024_Jan_23_1718,SpeechDraft1Carolyn_lessNoise_PlusLocalization,2021.2.3,60.02456623654128,
brain.wav,brain.mpg,brain,1,A,Pink_Noise_1_1.wav,Pink_Noise_1_2.wav,,,,,,,,,,,,,,,0,51,51,21,,,,,,,,,,,,,,,,,,,,,,,307.18827447341755,None,308.68941003037617,None,310.07161915209144,None,"brain
",310.07161915209144,None,return,1.4021586286835372,310.1549679702148,None,,,,,,,,,,,,,,,,,,,,,,,,,,,,,,,,,,,,,,,154,001,2024_Jan_23_1718,SpeechDraft1Carolyn_lessNoise_PlusLocalization,2021.2.3,60.02456623654128,
bill.wav,bill.mpg,bill,6,A,Pink_Noise_6_1.wav,Pink_Noise_6_2.wav,,,,,,,,,,,,,,,0,52,52,59,,,,,,,,,,,,,,,,,,,,,,,311.58824847405776,None,313.10466720024124,None,314.4716150360182,None,do,314.4716150360182,None,return,3.426216914318502,314.55493151722476,None,,,,,,,,,,,,,,,,,,,,,,,,,,,,,,,,,,,,,,,154,001,2024_Jan_23_1718,SpeechDraft1Carolyn_lessNoise_PlusLocalization,2021.2.3,60.02456623654128,
bathe.wav,bathe.mpg,bathe,1,AV,Pink_Noise_1_1.wav,Pink_Noise_1_2.wav,,,,,,,,,,,,,,,0,53,53,101,,,,,,,,,,,,,,,,,,,,,,,318.0049010850489,None,319.5213333130814,None,320.90611690236256,None,bathe,320.90611690236256,None,return,1.144432025961578,320.9886962310411,None,,,,,,,,,,,,,,,,,,,,,,,,,,,,,,,,,,,,,,,154,001,2024_Jan_23_1718,SpeechDraft1Carolyn_lessNoise_PlusLocalization,2021.2.3,60.02456623654128,
cream.wav,cream.mpg,cream,1,A,Pink_Noise_1_1.wav,Pink_Noise_1_2.wav,,,,,,,,,,,,,,,0,54,54,34,,,,,,,,,,,,,,,,,,,,,,,322.15505395736545,None,323.67132886033505,None,325.055145600345,None,cream,325.055145600345,None,return,1.0588085651397705,325.13831005617976,None,,,,,,,,,,,,,,,,,,,,,,,,,,,,,,,,,,,,,,,154,001,2024_Jan_23_1718,SpeechDraft1Carolyn_lessNoise_PlusLocalization,2021.2.3,60.02456623654128,
mars.wav,mars.mpg,mars,1,A,Pink_Noise_1_1.wav,Pink_Noise_1_2.wav,,,,,,,,,,,,,,,0,55,55,41,,,,,,,,,,,,,,,,,,,,,,,326.2216277481057,None,327.7222470641136,None,329.10504543222487,None,"mars
",329.10504543222487,None,return,0.9688364071771502,329.18828405207023,None,,,,,,,,,,,,,,,,,,,,,,,,,,,,,,,,,,,,,,,154,001,2024_Jan_23_1718,SpeechDraft1Carolyn_lessNoise_PlusLocalization,2021.2.3,60.02456623654128,
sue.wav,sue.mpg,sue,5,A,Pink_Noise_5_1.wav,Pink_Noise_5_2.wav,,,,,,,,,,,,,,,0,56,56,0,,,,,,,,,,,,,,,,,,,,,,,330.18837499432266,None,331.7046643202193,None,333.08836219320074,None,"teach
",333.08836219320074,None,return,1.7534433589316905,333.1716841449961,None,,,,,,,,,,,,,,,,,,,,,,,,,,,,,,,,,,,,,,,154,001,2024_Jan_23_1718,SpeechDraft1Carolyn_lessNoise_PlusLocalization,2021.2.3,60.02456623654128,
ease.wav,ease.mpg,ease,2,A,Pink_Noise_2_1.wav,Pink_Noise_2_2.wav,,,,,,,,,,,,,,,0,57,57,30,,,,,,,,,,,,,,,,,,,,,,,334.95500645041466,None,336.471391487401,None,337.8549705850892,None,ease,337.8549705850892,None,return,0.9707639692351222,337.9383626091294,None,,,,,,,,,,,,,,,,,,,,,,,,,,,,,,,,,,,,,,,154,001,2024_Jan_23_1718,SpeechDraft1Carolyn_lessNoise_PlusLocalization,2021.2.3,60.02456623654128,
three.wav,three.mpg,three,6,A,Pink_Noise_6_1.wav,Pink_Noise_6_2.wav,,,,,,,,,,,,,,,0,58,58,42,,,,,,,,,,,,,,,,,,,,,,,338.93831722438335,None,340.4388623042032,None,341.821619969327,None,"take
",341.821619969327,None,return,4.62013706471771,341.9050020943396,None,,,,,,,,,,,,,,,,,,,,,,,,,,,,,,,,,,,,,,,154,001,2024_Jan_23_1718,SpeechDraft1Carolyn_lessNoise_PlusLocalization,2021.2.3,60.02456623654128,
clap.wav,clap.mpg,clap,2,AV,Pink_Noise_2_1.wav,Pink_Noise_2_2.wav,,,,,,,,,,,,,,,0,59,59,61,,,,,,,,,,,,,,,,,,,,,,,346.55497346119955,None,348.07140824524686,None,349.45499122934416,None,clap,349.45499122934416,None,return,0.7229118472896516,349.5383108910173,None,,,,,,,,,,,,,,,,,,,,,,,,,,,,,,,,,,,,,,,154,001,2024_Jan_23_1718,SpeechDraft1Carolyn_lessNoise_PlusLocalization,2021.2.3,60.02456623654128,
hug.wav,hug.mpg,hug,5,AV,Pink_Noise_5_1.wav,Pink_Noise_5_2.wav,,,,,,,,,,,,,,,0,60,60,119,,,,,,,,,,,,,,,,,,,,,,,350.2883186843246,None,351.8047580863349,None,353.1883156602271,None,heart,353.1883156602271,None,return,0.8214537668973207,353.27167516900226,None,,,,,,,,,,,,,,,,,,,,,,,,,,,,,,,,,,,,,,,154,001,2024_Jan_23_1718,SpeechDraft1Carolyn_lessNoise_PlusLocalization,2021.2.3,60.02456623654128,
cloak.wav,cloak.mpg,cloak,1,AV,Pink_Noise_1_1.wav,Pink_Noise_1_2.wav,,,,,,,,,,,,,,,0,61,61,110,,,,,,,,,,,,,,,,,,,,,,,354.1217464231886,None,355.638002097141,None,357.0216032192111,None,cloack,357.0216032192111,None,return,1.14014414511621,357.10504066431895,None,,,,,,,,,,,,,,,,,,,,,,,,,,,,,,,,,,,,,,,154,001,2024_Jan_23_1718,SpeechDraft1Carolyn_lessNoise_PlusLocalization,2021.2.3,60.02456623654128,
pledge.wav,pledge.mpg,pledge,5,AV,Pink_Noise_5_1.wav,Pink_Noise_5_2.wav,,,,,,,,,,,,,,,0,62,62,102,,,,,,,,,,,,,,,,,,,,,,,358.27168168127537,None,359.7880952870473,None,361.1717517049983,None,pledge,361.1717517049983,None,return,1.246174135711044,361.2550096162595,None,,,,,,,,,,,,,,,,,,,,,,,,,,,,,,,,,,,,,,,154,001,2024_Jan_23_1718,SpeechDraft1Carolyn_lessNoise_PlusLocalization,2021.2.3,60.02456623654128,
gash.wav,gash.mpg,gash,6,AV,Pink_Noise_6_1.wav,Pink_Noise_6_2.wav,,,,,,,,,,,,,,,0,63,63,62,,,,,,,,,,,,,,,,,,,,,,,362.52171798516065,None,364.0381650053896,None,365.42163911508396,None,gash,365.42163911508396,None,return,0.708078287076205,365.50503980834037,None,,,,,,,,,,,,,,,,,,,,,,,,,,,,,,,,,,,,,,,154,001,2024_Jan_23_1718,SpeechDraft1Carolyn_lessNoise_PlusLocalization,2021.2.3,60.02456623654128,
germ.wav,germ.mpg,germ,3,AV,Pink_Noise_3_1.wav,Pink_Noise_3_2.wav,,,,,,,,,,,,,,,0,64,64,67,,,,,,,,,,,,,,,,,,,,,,,366.2385593513027,None,367.75472477125004,None,369.12172339716926,None,germ,369.12172339716926,None,return,0.6719320989213884,369.2052534651011,None,,,,,,,,,,,,,,,,,,,,,,,,,,,,,,,,,,,,,,,154,001,2024_Jan_23_1718,SpeechDraft1Carolyn_lessNoise_PlusLocalization,2021.2.3,60.02456623654128,
fork.wav,fork.mpg,fork,4,A,Pink_Noise_4_1.wav,Pink_Noise_4_2.wav,,,,,,,,,,,,,,,0,65,65,32,,,,,,,,,,,,,,,,,,,,,,,369.9050187440589,None,371.42139392113313,None,372.805075396318,None,fork,372.805075396318,None,return,0.6767230681143701,372.888418875169,None,,,,,,,,,,,,,,,,,,,,,,,,,,,,,,,,,,,,,,,154,001,2024_Jan_23_1718,SpeechDraft1Carolyn_lessNoise_PlusLocalization,2021.2.3,60.02456623654128,
guide.wav,guide.mpg,guide,3,A,Pink_Noise_3_1.wav,Pink_Noise_3_2.wav,,,,,,,,,,,,,,,0,66,66,39,,,,,,,,,,,,,,,,,,,,,,,373.58838562620804,None,375.0891344649717,None,376.4717159043066,None,guide,376.4717159043066,None,return,1.1301916628144681,376.5550337652676,None,,,,,,,,,,,,,,,,,,,,,,,,,,,,,,,,,,,,,,,154,001,2024_Jan_23_1718,SpeechDraft1Carolyn_lessNoise_PlusLocalization,2021.2.3,60.02456623654128,
beef.wav,beef.mpg,beef,4,AV,Pink_Noise_4_1.wav,Pink_Noise_4_2.wav,,,,,,,,,,,,,,,0,67,67,95,,,,,,,,,,,,,,,,,,,,,,,377.70498290425166,None,379.2214339179918,None,380.60517747234553,None,beef,380.60517747234553,None,return,0.8607760057784617,380.6883472162299,None,,,,,,,,,,,,,,,,,,,,,,,,,,,,,,,,,,,,,,,154,001,2024_Jan_23_1718,SpeechDraft1Carolyn_lessNoise_PlusLocalization,2021.2.3,60.02456623654128,
boat.wav,boat.mpg,boat,3,A,Pink_Noise_3_1.wav,Pink_Noise_3_2.wav,,,,,,,,,,,,,,,0,68,68,31,,,,,,,,,,,,,,,,,,,,,,,381.5718250563368,None,383.0880352812819,None,384.4717679140158,None,"boat
",384.4717679140158,None,return,0.5700410972349346,384.5550801400095,None,,,,,,,,,,,,,,,,,,,,,,,,,,,,,,,,,,,,,,,154,001,2024_Jan_23_1718,SpeechDraft1Carolyn_lessNoise_PlusLocalization,2021.2.3,60.02456623654128,
bat.wav,bat.mpg,bat,5,AV,Pink_Noise_5_1.wav,Pink_Noise_5_2.wav,,,,,,,,,,,,,,,0,69,69,82,,,,,,,,,,,,,,,,,,,,,,,385.15518142841756,None,386.67151716025546,None,388.0550269172527,None,"mat
",388.0550269172527,None,return,1.634352230001241,388.15476537216455,None,,,,,,,,,,,,,,,,,,,,,,,,,,,,,,,,,,,,,,,154,001,2024_Jan_23_1718,SpeechDraft1Carolyn_lessNoise_PlusLocalization,2021.2.3,60.02456623654128,
brawl.wav,brawl.mpg,brawl,1,A,Pink_Noise_1_1.wav,Pink_Noise_1_2.wav,,,,,,,,,,,,,,,0,70,70,11,,,,,,,,,,,,,,,,,,,,,,,389.8217615853064,None,391.3382020131685,None,392.7217262061313,None,bra,392.7217262061313,None,return,0.6800945890136063,392.80511247413233,None,,,,,,,,,,,,,,,,,,,,,,,,,,,,,,,,,,,,,,,154,001,2024_Jan_23_1718,SpeechDraft1Carolyn_lessNoise_PlusLocalization,2021.2.3,60.02456623654128,
freak.wav,freak.mpg,freak,5,AV,Pink_Noise_5_1.wav,Pink_Noise_5_2.wav,,,,,,,,,,,,,,,0,71,71,100,,,,,,,,,,,,,,,,,,,,,,,393.5051646800712,None,395.0215194784105,None,396.40496311103925,None,free,396.40496311103925,None,return,1.6606896631419659,396.4884492792189,None,,,,,,,,,,,,,,,,,,,,,,,,,,,,,,,,,,,,,,,154,001,2024_Jan_23_1718,SpeechDraft1Carolyn_lessNoise_PlusLocalization,2021.2.3,60.02456623654128,
gum.wav,gum.mpg,gum,4,AV,Pink_Noise_4_1.wav,Pink_Noise_4_2.wav,,,,,,,,,,,,,,,0,72,72,84,,,,,,,,,,,,,,,,,,,,,,,398.17185476841405,None,399.6881612204015,None,401.07173397531733,None,gum,401.07173397531733,None,return,0.7940827519632876,401.1550676263869,None,,,,,,,,,,,,,,,,,,,,,,,,,,,,,,,,,,,,,,,154,001,2024_Jan_23_1718,SpeechDraft1Carolyn_lessNoise_PlusLocalization,2021.2.3,60.02456623654128,
flee.wav,flee.mpg,flee,3,A,Pink_Noise_3_1.wav,Pink_Noise_3_2.wav,,,,,,,,,,,,,,,0,73,73,53,,,,,,,,,,,,,,,,,,,,,,,401.9717900091782,None,403.472956137266,None,404.8551427642815,None,leo,404.8551427642815,None,return,1.6906732539646327,404.9384837313555,None,,,,,,,,,,,,,,,,,,,,,,,,,,,,,,,,,,,,,,,154,001,2024_Jan_23_1718,SpeechDraft1Carolyn_lessNoise_PlusLocalization,2021.2.3,60.02456623654128,
folk.wav,folk.mpg,folk,2,A,Pink_Noise_2_1.wav,Pink_Noise_2_2.wav,,,,,,,,,,,,,,,0,74,74,25,,,,,,,,,,,,,,,,,,,,,,,406.6551091000438,None,408.1714966581203,None,409.55508279101923,None,book,409.55508279101923,None,return,1.830677152145654,409.6384604321793,None,,,,,,,,,,,,,,,,,,,,,,,,,,,,,,,,,,,,,,,154,001,2024_Jan_23_1718,SpeechDraft1Carolyn_lessNoise_PlusLocalization,2021.2.3,60.02456623654128,
glove.wav,glove.mpg,glove,3,AV,Pink_Noise_3_1.wav,Pink_Noise_3_2.wav,,,,,,,,,,,,,,,0,75,75,88,,,,,,,,,,,,,,,,,,,,,,,411.4884554501623,None,413.0047686272301,None,414.3883479870856,None,"glove
",414.3883479870856,None,return,1.0691781286150217,414.4719531121664,None,,,,,,,,,,,,,,,,,,,,,,,,,,,,,,,,,,,,,,,154,001,2024_Jan_23_1718,SpeechDraft1Carolyn_lessNoise_PlusLocalization,2021.2.3,60.02456623654128,
grown.wav,grown.mpg,grown,1,A,Pink_Noise_1_1.wav,Pink_Noise_1_2.wav,,,,,,,,,,,,,,,0,76,76,33,,,,,,,,,,,,,,,,,,,,,,,415.5717830173671,None,417.088162667118,None,418.47175642102957,None,grow,418.47175642102957,None,return,0.914024624042213,418.5551250213757,None,,,,,,,,,,,,,,,,,,,,,,,,,,,,,,,,,,,,,,,154,001,2024_Jan_23_1718,SpeechDraft1Carolyn_lessNoise_PlusLocalization,2021.2.3,60.02456623654128,
chant.wav,chant.mpg,chant,2,AV,Pink_Noise_2_1.wav,Pink_Noise_2_2.wav,,,,,,,,,,,,,,,0,77,77,113,,,,,,,,,,,,,,,,,,,,,,,419.48845383618027,None,421.00484042800963,None,422.3883405979723,None,chant,422.3883405979723,None,return,0.7495210650376976,422.47175843128935,None,,,,,,,,,,,,,,,,,,,,,,,,,,,,,,,,,,,,,,,154,001,2024_Jan_23_1718,SpeechDraft1Carolyn_lessNoise_PlusLocalization,2021.2.3,60.02456623654128,
guest.wav,guest.mpg,guest,4,A,Pink_Noise_4_1.wav,Pink_Noise_4_2.wav,,,,,,,,,,,,,,,0,78,78,19,,,,,,,,,,,,,,,,,,,,,,,423.2384246471338,None,424.75479494500905,None,426.1384336971678,None,"guest
",426.1384336971678,None,return,1.7512903418391943,426.2218243223615,None,,,,,,,,,,,,,,,,,,,,,,,,,,,,,,,,,,,,,,,154,001,2024_Jan_23_1718,SpeechDraft1Carolyn_lessNoise_PlusLocalization,2021.2.3,60.02456623654128,
craft.wav,craft.mpg,craft,2,A,Pink_Noise_2_1.wav,Pink_Noise_2_2.wav,,,,,,,,,,,,,,,0,79,79,28,,,,,,,,,,,,,,,,,,,,,,,428.00524545041844,None,429.5214774874039,None,430.90512963803485,None,craft,430.90512963803485,None,return,1.2567085986956954,430.9885443029925,None,,,,,,,,,,,,,,,,,,,,,,,,,,,,,,,,,,,,,,,154,001,2024_Jan_23_1718,SpeechDraft1Carolyn_lessNoise_PlusLocalization,2021.2.3,60.02456623654128,
teen.wav,teen.mpg,teen,5,A,Pink_Noise_5_1.wav,Pink_Noise_5_2.wav,,,,,,,,,,,,,,,0,80,80,58,,,,,,,,,,,,,,,,,,,,,,,432.2718438752927,None,433.80488161509857,None,435.1884846892208,None,"tools
",435.1884846892208,None,return,0.8533525462262332,435.27177273109555,None,,,,,,,,,,,,,,,,,,,,,,,,,,,,,,,,,,,,,,,154,001,2024_Jan_23_1718,SpeechDraft1Carolyn_lessNoise_PlusLocalization,2021.2.3,60.02456623654128,
crust.wav,crust.mpg,crust,3,A,Pink_Noise_3_1.wav,Pink_Noise_3_2.wav,,,,,,,,,,,,,,,0,81,81,47,,,,,,,,,,,,,,,,,,,,,,,436.15522095700726,None,437.67146733403206,None,439.0551450671628,None,crust,439.0551450671628,None,return,0.8586033838801086,439.1385525781661,None,,,,,,,,,,,,,,,,,,,,,,,,,,,,,,,,,,,,,,,154,001,2024_Jan_23_1718,SpeechDraft1Carolyn_lessNoise_PlusLocalization,2021.2.3,60.02456623654128,
bunch.wav,bunch.mpg,bunch,6,A,Pink_Noise_6_1.wav,Pink_Noise_6_2.wav,,,,,,,,,,,,,,,0,82,82,27,,,,,,,,,,,,,,,,,,,,,,,440.0217524319887,None,441.538120967336,None,442.92200008314103,None,arch,442.92200008314103,None,return,0.9120196038857102,443.005120978225,None,,,,,,,,,,,,,,,,,,,,,,,,,,,,,,,,,,,,,,,154,001,2024_Jan_23_1718,SpeechDraft1Carolyn_lessNoise_PlusLocalization,2021.2.3,60.02456623654128,
stuck.wav,stuck.mpg,stuck,5,AV,Pink_Noise_5_1.wav,Pink_Noise_5_2.wav,,,,,,,,,,,,,,,0,83,83,74,,,,,,,,,,,,,,,,,,,,,,,443.9384911521338,None,445.4548969180323,None,446.83847458520904,None,stuck,446.83847458520904,None,return,1.5953673631884158,446.92181849107146,None,,,,,,,,,,,,,,,,,,,,,,,,,,,,,,,,,,,,,,,154,001,2024_Jan_23_1718,SpeechDraft1Carolyn_lessNoise_PlusLocalization,2021.2.3,60.02456623654128,
duck.wav,duck.mpg,duck,6,AV,Pink_Noise_6_1.wav,Pink_Noise_6_2.wav,,,,,,,,,,,,,,,0,84,84,106,,,,,,,,,,,,,,,,,,,,,,,448.5385183612816,None,450.0548824509606,None,451.43853039015085,None,duck,451.43853039015085,None,return,2.107364436611533,451.52183473622426,None,,,,,,,,,,,,,,,,,,,,,,,,,,,,,,,,,,,,,,,154,001,2024_Jan_23_1718,SpeechDraft1Carolyn_lessNoise_PlusLocalization,2021.2.3,60.02456623654128,
choke.wav,choke.mpg,choke,6,AV,Pink_Noise_6_1.wav,Pink_Noise_6_2.wav,,,,,,,,,,,,,,,0,85,85,87,,,,,,,,,,,,,,,,,,,,,,,453.65511087235063,None,455.17155469721183,None,456.5554664400406,None,"choke
",456.5554664400406,None,return,0.918655653949827,456.63846668927,None,,,,,,,,,,,,,,,,,,,,,,,,,,,,,,,,,,,,,,,154,001,2024_Jan_23_1718,SpeechDraft1Carolyn_lessNoise_PlusLocalization,2021.2.3,60.02456623654128,
grail.wav,grail.mpg,grail,2,A,Pink_Noise_2_1.wav,Pink_Noise_2_2.wav,,,,,,,,,,,,,,,0,86,86,40,,,,,,,,,,,,,,,,,,,,,,,457.5884528993629,None,459.10480263922364,None,460.48848238028586,None,ground,460.48848238028586,None,return,1.9932956690900028,460.571794310119,None,,,,,,,,,,,,,,,,,,,,,,,,,,,,,,,,,,,,,,,154,001,2024_Jan_23_1718,SpeechDraft1Carolyn_lessNoise_PlusLocalization,2021.2.3,60.02456623654128,
flirt.wav,flirt.mpg,flirt,5,A,Pink_Noise_5_1.wav,Pink_Noise_5_2.wav,,,,,,,,,,,,,,,0,87,87,23,,,,,,,,,,,,,,,,,,,,,,,462.5884673544206,None,464.10510263731703,None,465.488546831999,None,throat,465.488546831999,None,return,1.793275998905301,465.571842498146,None,,,,,,,,,,,,,,,,,,,,,,,,,,,,,,,,,,,,,,,154,001,2024_Jan_23_1718,SpeechDraft1Carolyn_lessNoise_PlusLocalization,2021.2.3,60.02456623654128,
fierce.wav,fierce.mpg,fierce,1,AV,Pink_Noise_1_1.wav,Pink_Noise_1_2.wav,,,,,,,,,,,,,,,0,88,88,68,,,,,,,,,,,,,,,,,,,,,,,467.38858225522563,None,468.9048564163968,None,470.2884137481451,None,"fierce
",470.2884137481451,None,return,1.1690978240221739,470.37201212812215,None,,,,,,,,,,,,,,,,,,,,,,,,,,,,,,,,,,,,,,,154,001,2024_Jan_23_1718,SpeechDraft1Carolyn_lessNoise_PlusLocalization,2021.2.3,60.02456623654128,
beast.wav,beast.mpg,beast,1,AV,Pink_Noise_1_1.wav,Pink_Noise_1_2.wav,,,,,,,,,,,,,,,0,89,89,66,,,,,,,,,,,,,,,,,,,,,,,471.5718563091941,None,473.10489043500274,None,474.4883726569824,None,beast,474.4883726569824,None,return,0.9772569886408746,474.5718587320298,None,,,,,,,,,,,,,,,,,,,,,,,,,,,,,,,,,,,,,,,154,001,2024_Jan_23_1718,SpeechDraft1Carolyn_lessNoise_PlusLocalization,2021.2.3,60.02456623654128,
bird.wav,bird.mpg,bird,4,AV,Pink_Noise_4_1.wav,Pink_Noise_4_2.wav,,,,,,,,,,,,,,,0,90,90,115,,,,,,,,,,,,,,,,,,,,,,,475.571939766407,None,477.08824032824486,None,478.47180310310796,None,bird,478.47180310310796,None,return,0.8098727851174772,478.555264079012,None,,,,,,,,,,,,,,,,,,,,,,,,,,,,,,,,,,,,,,,154,001,2024_Jan_23_1718,SpeechDraft1Carolyn_lessNoise_PlusLocalization,2021.2.3,60.02456623654128,
shrimp.wav,shrimp.mpg,shrimp,4,AV,Pink_Noise_4_1.wav,Pink_Noise_4_2.wav,,,,,,,,,,,,,,,0,91,91,92,,,,,,,,,,,,,,,,,,,,,,,479.3887334642932,None,480.90497412811965,None,482.2885139831342,None,shrimp,482.2885139831342,None,return,1.265372539870441,482.3718934911303,None,,,,,,,,,,,,,,,,,,,,,,,,,,,,,,,,,,,,,,,154,001,2024_Jan_23_1718,SpeechDraft1Carolyn_lessNoise_PlusLocalization,2021.2.3,60.02456623654128,
duet.wav,duet.mpg,duet,2,A,Pink_Noise_2_1.wav,Pink_Noise_2_2.wav,,,,,,,,,,,,,,,0,92,92,2,,,,,,,,,,,,,,,,,,,,,,,483.6551984571852,None,485.1716098873876,None,486.5553980921395,None,duet,486.5553980921395,None,return,0.6226798142306507,486.63857069425285,None,,,,,,,,,,,,,,,,,,,,,,,,,,,,,,,,,,,,,,,154,001,2024_Jan_23_1718,SpeechDraft1Carolyn_lessNoise_PlusLocalization,2021.2.3,60.02456623654128,
tear.wav,tear.mpg,tear,2,AV,Pink_Noise_2_1.wav,Pink_Noise_2_2.wav,,,,,,,,,,,,,,,0,93,93,117,,,,,,,,,,,,,,,,,,,,,,,487.28846521116793,None,488.8049651202746,None,490.1884523429908,None,tear,490.1884523429908,None,return,0.621276366058737,490.27186389407143,None,,,,,,,,,,,,,,,,,,,,,,,,,,,,,,,,,,,,,,,154,001,2024_Jan_23_1718,SpeechDraft1Carolyn_lessNoise_PlusLocalization,2021.2.3,60.02456623654128,
duke.wav,duke.mpg,duke,2,AV,Pink_Noise_2_1.wav,Pink_Noise_2_2.wav,,,,,,,,,,,,,,,0,94,94,98,,,,,,,,,,,,,,,,,,,,,,,490.9218483362347,None,492.4383017043583,None,493.8217228120193,None,duke,493.8217228120193,None,return,0.6758872922509909,493.90522446203977,None,,,,,,,,,,,,,,,,,,,,,,,,,,,,,,,,,,,,,,,154,001,2024_Jan_23_1718,SpeechDraft1Carolyn_lessNoise_PlusLocalization,2021.2.3,60.02456623654128,
drug.wav,drug.mpg,drug,4,AV,Pink_Noise_4_1.wav,Pink_Noise_4_2.wav,,,,,,,,,,,,,,,0,95,95,104,,,,,,,,,,,,,,,,,,,,,,,494.605328027159,None,496.12160307215527,None,497.505092961248,None,drug,497.505092961248,None,return,0.6885633734054863,497.58857365930453,None,,,,,,,,,,,,,,,,,,,,,,,,,,,,,,,,,,,,,,,154,001,2024_Jan_23_1718,SpeechDraft1Carolyn_lessNoise_PlusLocalization,2021.2.3,60.02456623654128,
bin.wav,bin.mpg,bin,2,AV,Pink_Noise_2_1.wav,Pink_Noise_2_2.wav,,,,,,,,,,,,,,,0,96,96,97,,,,,,,,,,,,,,,,,,,,,,,498.305221629329,None,499.8232808462344,None,501.2050990322605,None,bin,501.2050990322605,None,return,0.6765974573791027,501.2885246532969,None,,,,,,,,,,,,,,,,,,,,,,,,,,,,,,,,,,,,,,,154,001,2024_Jan_23_1718,SpeechDraft1Carolyn_lessNoise_PlusLocalization,2021.2.3,60.02456623654128,
crush.wav,crush.mpg,crush,3,AV,Pink_Noise_3_1.wav,Pink_Noise_3_2.wav,,,,,,,,,,,,,,,0,97,97,107,,,,,,,,,,,,,,,,,,,,,,,501.9885383890942,None,503.5215580901131,None,504.9051333433017,None,"crush
",504.9051333433017,None,return,0.9365869769826531,504.9885300481692,None,,,,,,,,,,,,,,,,,,,,,,,,,,,,,,,,,,,,,,,154,001,2024_Jan_23_1718,SpeechDraft1Carolyn_lessNoise_PlusLocalization,2021.2.3,60.02456623654128,
doll.wav,doll.mpg,doll,3,A,Pink_Noise_3_1.wav,Pink_Noise_3_2.wav,,,,,,,,,,,,,,,0,98,98,8,,,,,,,,,,,,,,,,,,,,,,,505.95523397717625,None,507.4715888733044,None,508.85519864829257,None,stop,508.85519864829257,None,return,1.2825000011362135,508.9387267413549,None,,,,,,,,,,,,,,,,,,,,,,,,,,,,,,,,,,,,,,,154,001,2024_Jan_23_1718,SpeechDraft1Carolyn_lessNoise_PlusLocalization,2021.2.3,60.02456623654128,
flip.wav,flip.mpg,flip,3,A,Pink_Noise_3_1.wav,Pink_Noise_3_2.wav,,,,,,,,,,,,,,,0,99,99,50,,,,,,,,,,,,,,,,,,,,,,,510.2385815810412,None,511.7549704769626,None,513.1385770160705,None,flip,513.1385770160705,None,return,0.8153795697726309,513.2218705983832,None,,,,,,,,,,,,,,,,,,,,,,,,,,,,,,,,,,,,,,,154,001,2024_Jan_23_1718,SpeechDraft1Carolyn_lessNoise_PlusLocalization,2021.2.3,60.02456623654128,
groom.wav,groom.mpg,groom,4,A,Pink_Noise_4_1.wav,Pink_Noise_4_2.wav,,,,,,,,,,,,,,,0,100,100,48,,,,,,,,,,,,,,,,,,,,,,,514.0552672143094,None,515.5731005570851,None,516.9552459372208,None,"strew
",516.9552459372208,None,return,1.2705546650104225,517.0385672310367,None,,,,,,,,,,,,,,,,,,,,,,,,,,,,,,,,,,,,,,,154,001,2024_Jan_23_1718,SpeechDraft1Carolyn_lessNoise_PlusLocalization,2021.2.3,60.02456623654128,
clad.wav,clad.mpg,clad,5,A,Pink_Noise_5_1.wav,Pink_Noise_5_2.wav,,,,,,,,,,,,,,,0,101,101,51,,,,,,,,,,,,,,,,,,,,,,,518.3385329651646,None,519.8548281132244,None,521.2385544311255,None,"clap
",521.2385544311255,None,return,2.0352003620937467,521.3219277174212,None,,,,,,,,,,,,,,,,,,,,,,,,,,,,,,,,,,,,,,,154,001,2024_Jan_23_1718,SpeechDraft1Carolyn_lessNoise_PlusLocalization,2021.2.3,60.02456623654128,
blond.wav,blond.mpg,blond,2,AV,Pink_Noise_2_1.wav,Pink_Noise_2_2.wav,,,,,,,,,,,,,,,0,102,102,118,,,,,,,,,,,,,,,,,,,,,,,523.3885501711629,None,524.9216222721152,None,526.3052149531431,None,"blonde
",526.3052149531431,None,return,1.800476427655667,526.3886520313099,None,,,,,,,,,,,,,,,,,,,,,,,,,,,,,,,,,,,,,,,154,001,2024_Jan_23_1718,SpeechDraft1Carolyn_lessNoise_PlusLocalization,2021.2.3,60.02456623654128,
fond.wav,fond.mpg,fond,4,A,Pink_Noise_4_1.wav,Pink_Noise_4_2.wav,,,,,,,,,,,,,,,0,103,103,26,,,,,,,,,,,,,,,,,,,,,,,528.2218623752706,None,529.738304708153,None,531.121920700185,None,sponge,531.121920700185,None,return,1.0239768018946052,531.2052529952489,None,,,,,,,,,,,,,,,,,,,,,,,,,,,,,,,,,,,,,,,154,001,2024_Jan_23_1718,SpeechDraft1Carolyn_lessNoise_PlusLocalization,2021.2.3,60.02456623654128,
bath.wav,bath.mpg,bath,5,AV,Pink_Noise_5_1.wav,Pink_Noise_5_2.wav,,,,,,,,,,,,,,,0,104,104,75,,,,,,,,,,,,,,,,,,,,,,,532.2552670072764,None,533.7883222331293,None,535.1551455534063,None,bath,535.1551455534063,None,return,0.7743231877684593,535.2388363210484,None,,,,,,,,,,,,,,,,,,,,,,,,,,,,,,,,,,,,,,,154,001,2024_Jan_23_1718,SpeechDraft1Carolyn_lessNoise_PlusLocalization,2021.2.3,60.02456623654128,
dawn.wav,dawn.mpg,dawn,1,A,Pink_Noise_1_1.wav,Pink_Noise_1_2.wav,,,,,,,,,,,,,,,0,105,105,3,,,,,,,,,,,,,,,,,,,,,,,536.0387350181118,None,537.554961096961,None,538.9386465670541,None,dawn,538.9386465670541,None,return,1.6152360793203115,539.0219936203212,None,,,,,,,,,,,,,,,,,,,,,,,,,,,,,,,,,,,,,,,154,001,2024_Jan_23_1718,SpeechDraft1Carolyn_lessNoise_PlusLocalization,2021.2.3,60.02456623654128,
bind.wav,bind.mpg,bind,2,A,Pink_Noise_2_1.wav,Pink_Noise_2_2.wav,,,,,,,,,,,,,,,0,106,106,56,,,,,,,,,,,,,,,,,,,,,,,540.6552971331403,None,542.1883742050268,None,543.5718881250359,None,"find
",543.5718881250359,None,return,1.0858410950750113,543.6553095560521,None,,,,,,,,,,,,,,,,,,,,,,,,,,,,,,,,,,,,,,,154,001,2024_Jan_23_1718,SpeechDraft1Carolyn_lessNoise_PlusLocalization,2021.2.3,60.02456623654128,
gift.wav,gift.mpg,gift,4,AV,Pink_Noise_4_1.wav,Pink_Noise_4_2.wav,,,,,,,,,,,,,,,0,107,107,83,,,,,,,,,,,,,,,,,,,,,,,544.7719702660106,None,546.3049587160349,None,547.6885522073135,None,gift,547.6885522073135,None,return,0.7132478118874133,547.771969398018,None,,,,,,,,,,,,,,,,,,,,,,,,,,,,,,,,,,,,,,,154,001,2024_Jan_23_1718,SpeechDraft1Carolyn_lessNoise_PlusLocalization,2021.2.3,60.02456623654128,
bridge.wav,bridge.mpg,bridge,5,A,Pink_Noise_5_1.wav,Pink_Noise_5_2.wav,,,,,,,,,,,,,,,0,108,108,46,,,,,,,,,,,,,,,,,,,,,,,548.5053110942245,None,550.038999105338,None,551.4220347823575,None,"fridge
",551.4220347823575,None,return,1.4198626829311252,551.5052653793246,None,,,,,,,,,,,,,,,,,,,,,,,,,,,,,,,,,,,,,,,154,001,2024_Jan_23_1718,SpeechDraft1Carolyn_lessNoise_PlusLocalization,2021.2.3,60.02456623654128,
fuss.wav,fuss.mpg,fuss,4,A,Pink_Noise_4_1.wav,Pink_Noise_4_2.wav,,,,,,,,,,,,,,,0,109,109,37,,,,,,,,,,,,,,,,,,,,,,,552.9552666493692,None,554.4716123752296,None,555.8553327210248,None,"bust
",555.8553327210248,None,return,0.7545425980351865,555.9385870122351,None,,,,,,,,,,,,,,,,,,,,,,,,,,,,,,,,,,,,,,,154,001,2024_Jan_23_1718,SpeechDraft1Carolyn_lessNoise_PlusLocalization,2021.2.3,60.02456623654128,
gain.wav,gain.mpg,gain,4,AV,Pink_Noise_4_1.wav,Pink_Noise_4_2.wav,,,,,,,,,,,,,,,0,110,110,109,,,,,,,,,,,,,,,,,,,,,,,556.7220088941976,None,558.255035713315,None,559.639084589202,None,gale,559.639084589202,None,return,0.9952028547413647,559.7219192283228,None,,,,,,,,,,,,,,,,,,,,,,,,,,,,,,,,,,,,,,,154,001,2024_Jan_23_1718,SpeechDraft1Carolyn_lessNoise_PlusLocalization,2021.2.3,60.02456623654128,
roast.wav,roast.mpg,roast,6,A,Pink_Noise_6_1.wav,Pink_Noise_6_2.wav,,,,,,,,,,,,,,,0,111,111,35,,,,,,,,,,,,,,,,,,,,,,,560.7386766592972,None,562.2716483301483,None,563.6553276670165,None,"toast
",563.6553276670165,None,return,1.2344381343573332,563.7386916521937,None,,,,,,,,,,,,,,,,,,,,,,,,,,,,,,,,,,,,,,,154,001,2024_Jan_23_1718,SpeechDraft1Carolyn_lessNoise_PlusLocalization,2021.2.3,60.02456623654128,
curve.wav,curve.mpg,curve,1,AV,Pink_Noise_1_1.wav,Pink_Noise_1_2.wav,,,,,,,,,,,,,,,0,112,112,94,,,,,,,,,,,,,,,,,,,,,,,565.0055573750287,None,566.5383058399893,None,567.922015438322,None,curve,567.922015438322,None,return,1.6478024763055146,568.0053498083726,None,,,,,,,,,,,,,,,,,,,,,,,,,,,,,,,,,,,,,,,154,001,2024_Jan_23_1718,SpeechDraft1Carolyn_lessNoise_PlusLocalization,2021.2.3,60.02456623654128,
clog.wav,clog.mpg,clog,5,AV,Pink_Noise_5_1.wav,Pink_Noise_5_2.wav,,,,,,,,,,,,,,,0,113,113,99,,,,,,,,,,,,,,,,,,,,,,,569.6719890013337,None,571.2049881289713,None,572.5887383529916,None,clog,572.5887383529916,None,return,0.6609314307570457,572.6722007482313,None,,,,,,,,,,,,,,,,,,,,,,,,,,,,,,,,,,,,,,,154,001,2024_Jan_23_1718,SpeechDraft1Carolyn_lessNoise_PlusLocalization,2021.2.3,60.02456623654128,
gate.wav,gate.mpg,gate,6,A,Pink_Noise_6_1.wav,Pink_Noise_6_2.wav,,,,,,,,,,,,,,,0,114,114,55,,,,,,,,,,,,,,,,,,,,,,,573.3553112251684,None,574.8729716041125,None,576.25533456821,None,"itch
",576.25533456821,None,return,3.4022979270666838,576.3388210940175,None,,,,,,,,,,,,,,,,,,,,,,,,,,,,,,,,,,,,,,,154,001,2024_Jan_23_1718,SpeechDraft1Carolyn_lessNoise_PlusLocalization,2021.2.3,60.02456623654128,
card.wav,card.mpg,card,5,AV,Pink_Noise_5_1.wav,Pink_Noise_5_2.wav,,,,,,,,,,,,,,,0,115,115,93,,,,,,,,,,,,,,,,,,,,,,,579.7722140182741,None,581.3217571331188,None,582.7053112350404,None,"card
",582.7053112350404,None,return,1.136448438744992,582.7886858172715,None,,,,,,,,,,,,,,,,,,,,,,,,,,,,,,,,,,,,,,,154,001,2024_Jan_23_1718,SpeechDraft1Carolyn_lessNoise_PlusLocalization,2021.2.3,60.02456623654128,
flair.wav,flair.mpg,flair,3,AV,Pink_Noise_3_1.wav,Pink_Noise_3_2.wav,,,,,,,,,,,,,,,0,116,116,112,,,,,,,,,,,,,,,,,,,,,,,583.9554134244099,None,585.4884310131893,None,586.8719220170751,None,flare,586.8719220170751,None,return,0.7056706938892603,586.9554469650611,None,,,,,,,,,,,,,,,,,,,,,,,,,,,,,,,,,,,,,,,154,001,2024_Jan_23_1718,SpeechDraft1Carolyn_lessNoise_PlusLocalization,2021.2.3,60.02456623654128,
cruel.wav,cruel.mpg,cruel,6,A,Pink_Noise_6_1.wav,Pink_Noise_6_2.wav,,,,,,,,,,,,,,,0,117,117,44,,,,,,,,,,,,,,,,,,,,,,,587.6887190383859,None,589.2383493511006,None,590.6220101360232,None,feel,590.6220101360232,None,return,1.3957118499092758,590.7054347423837,None,,,,,,,,,,,,,,,,,,,,,,,,,,,,,,,,,,,,,,,154,001,2024_Jan_23_1718,SpeechDraft1Carolyn_lessNoise_PlusLocalization,2021.2.3,60.02456623654128,
barge.wav,barge.mpg,barge,3,AV,Pink_Noise_3_1.wav,Pink_Noise_3_2.wav,,,,,,,,,,,,,,,0,118,118,78,,,,,,,,,,,,,,,,,,,,,,,592.1220898902975,None,593.6550527992658,None,595.0386917591095,None,bardge,595.0386917591095,None,return,2.691022771410644,595.1220948123373,None,,,,,,,,,,,,,,,,,,,,,,,,,,,,,,,,,,,,,,,154,001,2024_Jan_23_1718,SpeechDraft1Carolyn_lessNoise_PlusLocalization,2021.2.3,60.02456623654128,
goose.wav,goose.mpg,goose,5,A,Pink_Noise_5_1.wav,Pink_Noise_5_2.wav,,,,,,,,,,,,,,,0,119,119,52,,,,,,,,,,,,,,,,,,,,,,,597.8386714239605,None,599.3549907743,None,600.7386969053186,None,used,600.7386969053186,None,return,3.6712178573943675,600.821925427299,None,,,,,,,,,,,,,,,,,,,,,,,,,,,,,,,,,,,,,,,154,001,2024_Jan_23_1718,SpeechDraft1Carolyn_lessNoise_PlusLocalization,2021.2.3,60.02456623654128,
,,,,,,,,,,,,,,,,,,,,,,,,,,,,,,,,,,,,,,,,,,,,,,,,,,,,,,,,,,,,,,,,,,space,15.551117695402354,604.6220280593261,None,,,,,,,,,,,,,,,,,,,,,,,,,,,,,154,001,2024_Jan_23_1718,SpeechDraft1Carolyn_lessNoise_PlusLocalization,2021.2.3,60.02456623654128,
,,,,,,,,nearLeft,-6.5,1,ch1Sound_localizationTask.wav,-6.5,"(857, 878)","(-103,-202)",-95,-338,,,,,,,,,0,0,0,2,,,,,,,,,,,,,,,,,,,,,,,,,,,,,,,,,,,,,,,,,,604.6220280593261,None,620.2218686370179,None,621.321851158049,None,622.255086068064,None,1.091005291005291,2.8687885026447475,622.255086068064,None,,,,,,,,,,,,,,,,,154,001,2024_Jan_23_1718,SpeechDraft1Carolyn_lessNoise_PlusLocalization,2021.2.3,60.02456623654128,
,,,,,,,,center,0.0,6,ch1Sound_localizationTask.wav,0.0,"(952, 878)","(-8,-202)",0,-338,,,,,,,,,0,1,1,3,,,,,,,,,,,,,,,,,,,,,,,,,,,,,,,,,,,,,,,,,,,,625.1225704131648,None,626.221734077204,None,627.1550836730748,None,1.5920634920634922,1.8504153899848461,627.1550836730748,None,,,,,,,,,,,,,,,,,154,001,2024_Jan_23_1718,SpeechDraft1Carolyn_lessNoise_PlusLocalization,2021.2.3,60.02456623654128,
,,,,,,,,farLeft,-19.1,5,ch1Sound_localizationTask.wav,-19.1,"(667, 878)","(-293,-202)",-285,-338,,,,,,,,,0,2,2,0,,,,,,,,,,,,,,,,,,,,,,,,,,,,,,,,,,,,,,,,,,,,629.0059357034042,None,630.1050519030541,None,631.03847207129,None,1.162962962962963,1.3156908289529383,631.03847207129,None,,,,,,,,,,,,,,,,,154,001,2024_Jan_23_1718,SpeechDraft1Carolyn_lessNoise_PlusLocalization,2021.2.3,60.02456623654128,
,,,,,,,,midLeft,-13.0,2,ch1Sound_localizationTask.wav,-13.0,"(762, 878)","(-198,-202)",-190,-338,,,,,,,,,0,3,3,1,,,,,,,,,,,,,,,,,,,,,,,,,,,,,,,,,,,,,,,,,,,,632.355319451075,None,633.4551952322945,None,634.3884946852922,None,1.2587301587301587,0.7995868977159262,634.3884946852922,None,,,,,,,,,,,,,,,,,154,001,2024_Jan_23_1718,SpeechDraft1Carolyn_lessNoise_PlusLocalization,2021.2.3,60.02456623654128,
,,,,,,,,nearRight,6.5,0,ch1Sound_localizationTask.wav,6.5,"(1047, 878)","(87, -202)",95,-338,,,,,,,,,0,4,4,4,,,,,,,,,,,,,,,,,,,,,,,,,,,,,,,,,,,,,,,,,,,,635.1892090323381,None,636.2885543531738,None,637.2217958173715,None,1.6947089947089946,1.0833260868676007,637.2217958173715,None,,,,,,,,,,,,,,,,,154,001,2024_Jan_23_1718,SpeechDraft1Carolyn_lessNoise_PlusLocalization,2021.2.3,60.02456623654128,
,,,,,,,,midRight,13.0,3,ch1Sound_localizationTask.wav,13.0,"(1142, 878)","(182, -202)",190,-338,,,,,,,,,0,5,5,5,,,,,,,,,,,,,,,,,,,,,,,,,,,,,,,,,,,,,,,,,,,,638.3056939160451,None,639.4051359291188,None,640.3384737460874,None,1.75978835978836,1.716565155889839,640.3384737460874,None,,,,,,,,,,,,,,,,,154,001,2024_Jan_23_1718,SpeechDraft1Carolyn_lessNoise_PlusLocalization,2021.2.3,60.02456623654128,
,,,,,,,,farRight,19.1,4,ch1Sound_localizationTask.wav,19.1,"(1237, 878)","(277,-202)",285,-338,,,,,,,,,0,6,6,6,,,,,,,,,,,,,,,,,,,,,,,,,,,,,,,,,,,,,,,,,,,,642.0561611792073,None,643.1550764781423,None,644.0886175963096,None,1.7306878306878306,0.615067080128938,644.0886175963096,None,,,,,,,,,,,,,,,,,154,001,2024_Jan_23_1718,SpeechDraft1Carolyn_lessNoise_PlusLocalization,2021.2.3,60.02456623654128,
,,,,,,,,nearLeft,-6.5,1,ch1Sound_localizationTask.wav,-6.5,"(857, 878)","(-103,-202)",-95,-338,,,,,,,,,1,0,7,2,,,,,,,,,,,,,,,,,,,,,,,,,,,,,,,,,,,,,,,,,,,,644.7055360651575,None,645.8050970421173,None,646.7384129082784,None,1.4476190476190476,1.2997551150619984,646.7384129082784,None,,,,,,,,,,,,,,,,,154,001,2024_Jan_23_1718,SpeechDraft1Carolyn_lessNoise_PlusLocalization,2021.2.3,60.02456623654128,
,,,,,,,,farLeft,-19.1,5,ch1Sound_localizationTask.wav,-19.1,"(667, 878)","(-293,-202)",-285,-338,,,,,,,,,1,1,8,0,,,,,,,,,,,,,,,,,,,,,,,,,,,,,,,,,,,,,,,,,,,,648.0396940000355,None,649.1384044550359,None,650.0718623772264,None,1.2492063492063492,0.8196608009748161,650.0718623772264,None,,,,,,,,,,,,,,,,,154,001,2024_Jan_23_1718,SpeechDraft1Carolyn_lessNoise_PlusLocalization,2021.2.3,60.02456623654128,
,,,,,,,,farLeft,-19.1,5,ch1Sound_localizationTask.wav,-19.1,"(667, 878)","(-293,-202)",-285,-338,,,,,,,,,1,2,9,0,,,,,,,,,,,,,,,,,,,,,,,,,,,,,,,,,,,,,,,,,,,,650.9060948281549,None,652.0051189200021,None,652.9384299260564,None,1.2312169312169312,0.8158937282860279,652.9384299260564,None,,,,,,,,,,,,,,,,,154,001,2024_Jan_23_1718,SpeechDraft1Carolyn_lessNoise_PlusLocalization,2021.2.3,60.02456623654128,
,,,,,,,,midRight,13.0,3,ch1Sound_localizationTask.wav,13.0,"(1142, 878)","(182, -202)",190,-338,,,,,,,,,1,3,10,5,,,,,,,,,,,,,,,,,,,,,,,,,,,,,,,,,,,,,,,,,,,,653.7554725972004,None,654.8552059782669,None,655.7885573781095,None,1.580952380952381,0.9650514177046716,655.7885573781095,None,,,,,,,,,,,,,,,,,154,001,2024_Jan_23_1718,SpeechDraft1Carolyn_lessNoise_PlusLocalization,2021.2.3,60.02456623654128,
,,,,,,,,midRight,13.0,3,ch1Sound_localizationTask.wav,13.0,"(1142, 878)","(182, -202)",190,-338,,,,,,,,,1,4,11,5,,,,,,,,,,,,,,,,,,,,,,,,,,,,,,,,,,,,,,,,,,,,656.7554362691008,None,657.8550339462236,None,658.7884430922568,None,1.6169312169312169,0.599441688042134,658.7884430922568,None,,,,,,,,,,,,,,,,,154,001,2024_Jan_23_1718,SpeechDraft1Carolyn_lessNoise_PlusLocalization,2021.2.3,60.02456623654128,
,,,,,,,,nearLeft,-6.5,1,ch1Sound_localizationTask.wav,-6.5,"(857, 878)","(-103,-202)",-95,-338,,,,,,,,,1,5,12,2,,,,,,,,,,,,,,,,,,,,,,,,,,,,,,,,,,,,,,,,,,,,659.3888281453401,None,660.4884486743249,None,661.4219002830796,None,1.4068783068783068,0.5815970501862466,661.4219002830796,None,,,,,,,,,,,,,,,,,154,001,2024_Jan_23_1718,SpeechDraft1Carolyn_lessNoise_PlusLocalization,2021.2.3,60.02456623654128,
,,,,,,,,center,0.0,6,ch1Sound_localizationTask.wav,0.0,"(952, 878)","(-8,-202)",0,-338,,,,,,,,,1,6,13,3,,,,,,,,,,,,,,,,,,,,,,,,,,,,,,,,,,,,,,,,,,,,662.0057384683751,None,663.1052069743164,None,664.0385729721747,None,1.5052910052910053,0.5833135549910367,664.0385729721747,None,,,,,,,,,,,,,,,,,154,001,2024_Jan_23_1718,SpeechDraft1Carolyn_lessNoise_PlusLocalization,2021.2.3,60.02456623654128,
,,,,,,,,nearRight,6.5,0,ch1Sound_localizationTask.wav,6.5,"(1047, 878)","(87, -202)",95,-338,,,,,,,,,2,0,14,4,,,,,,,,,,,,,,,,,,,,,,,,,,,,,,,,,,,,,,,,,,,,664.6223721769638,None,665.7218741714023,None,666.6551665430889,None,1.5915343915343916,0.633325528819114,666.6551665430889,None,,,,,,,,,,,,,,,,,154,001,2024_Jan_23_1718,SpeechDraft1Carolyn_lessNoise_PlusLocalization,2021.2.3,60.02456623654128,
,,,,,,,,farRight,19.1,4,ch1Sound_localizationTask.wav,19.1,"(1237, 878)","(277,-202)",285,-338,,,,,,,,,2,1,15,6,,,,,,,,,,,,,,,,,,,,,,,,,,,,,,,,,,,,,,,,,,,,667.289254559204,None,668.3885536743328,None,669.3219640362076,None,1.6481481481481481,0.5827603950165212,669.3219640362076,None,,,,,,,,,,,,,,,,,154,001,2024_Jan_23_1718,SpeechDraft1Carolyn_lessNoise_PlusLocalization,2021.2.3,60.02456623654128,
,,,,,,,,midLeft,-13.0,2,ch1Sound_localizationTask.wav,-13.0,"(762, 878)","(-198,-202)",-190,-338,,,,,,,,,2,2,16,1,,,,,,,,,,,,,,,,,,,,,,,,,,,,,,,,,,,,,,,,,,,,669.9054841552861,None,671.0051943301223,None,671.9384206733666,None,1.3772486772486774,0.6156574431806803,671.9384206733666,None,,,,,,,,,,,,,,,,,154,001,2024_Jan_23_1718,SpeechDraft1Carolyn_lessNoise_PlusLocalization,2021.2.3,60.02456623654128,
,,,,,,,,farRight,19.1,4,ch1Sound_localizationTask.wav,19.1,"(1237, 878)","(277,-202)",285,-338,,,,,,,,,2,3,17,6,,,,,,,,,,,,,,,,,,,,,,,,,,,,,,,,,,,,,,,,,,,,672.5555590232834,None,673.655127695296,None,674.5884681371972,None,1.6708994708994709,0.6993583631701767,674.5884681371972,None,,,,,,,,,,,,,,,,,154,001,2024_Jan_23_1718,SpeechDraft1Carolyn_lessNoise_PlusLocalization,2021.2.3,60.02456623654128,
,,,,,,,,farLeft,-19.1,5,ch1Sound_localizationTask.wav,-19.1,"(667, 878)","(-293,-202)",-285,-338,,,,,,,,,2,4,18,0,,,,,,,,,,,,,,,,,,,,,,,,,,,,,,,,,,,,,,,,,,,,675.28878906928,None,676.3885257123038,None,677.3218258302659,None,1.3820105820105821,1.2833938929252326,677.3218258302659,None,,,,,,,,,,,,,,,,,154,001,2024_Jan_23_1718,SpeechDraft1Carolyn_lessNoise_PlusLocalization,2021.2.3,60.02456623654128,
,,,,,,,,center,0.0,6,ch1Sound_localizationTask.wav,0.0,"(952, 878)","(-8,-202)",0,-338,,,,,,,,,2,5,19,3,,,,,,,,,,,,,,,,,,,,,,,,,,,,,,,,,,,,,,,,,,,,678.6061200462282,None,679.7051176642999,None,680.638476009015,None,1.57989417989418,0.616179286967963,680.638476009015,None,,,,,,,,,,,,,,,,,154,001,2024_Jan_23_1718,SpeechDraft1Carolyn_lessNoise_PlusLocalization,2021.2.3,60.02456623654128,
,,,,,,,,nearRight,6.5,0,ch1Sound_localizationTask.wav,6.5,"(1047, 878)","(87, -202)",95,-338,,,,,,,,,2,6,20,4,,,,,,,,,,,,,,,,,,,,,,,,,,,,,,,,,,,,,,,,,,,,681.2556296112016,None,682.3551882463507,None,683.288503549993,None,1.6238095238095238,0.8661222960799932,683.288503549993,None,,,,,,,,,,,,,,,,,154,001,2024_Jan_23_1718,SpeechDraft1Carolyn_lessNoise_PlusLocalization,2021.2.3,60.02456623654128,
,,,,,,,,center,0.0,6,ch1Sound_localizationTask.wav,0.0,"(952, 878)","(-8,-202)",0,-338,,,,,,,,,3,0,21,3,,,,,,,,,,,,,,,,,,,,,,,,,,,,,,,,,,,,,,,,,,,,684.1555186440237,None,685.2551012793556,None,686.1885735020041,None,1.5777777777777777,0.5334265166893601,686.1885735020041,None,,,,,,,,,,,,,,,,,154,001,2024_Jan_23_1718,SpeechDraft1Carolyn_lessNoise_PlusLocalization,2021.2.3,60.02456623654128,
,,,,,,,,center,0.0,6,ch1Sound_localizationTask.wav,0.0,"(952, 878)","(-8,-202)",0,-338,,,,,,,,,3,1,22,3,,,,,,,,,,,,,,,,,,,,,,,,,,,,,,,,,,,,,,,,,,,,686.7222059112974,None,687.8218208700418,None,688.7553834272549,None,1.5502645502645502,0.7333289561793208,688.7553834272549,None,,,,,,,,,,,,,,,,,154,001,2024_Jan_23_1718,SpeechDraft1Carolyn_lessNoise_PlusLocalization,2021.2.3,60.02456623654128,
,,,,,,,,nearLeft,-6.5,1,ch1Sound_localizationTask.wav,-6.5,"(857, 878)","(-103,-202)",-95,-338,,,,,,,,,3,2,23,2,,,,,,,,,,,,,,,,,,,,,,,,,,,,,,,,,,,,,,,,,,,,689.4892855579965,None,690.5885387109593,None,691.5221197362989,None,1.433862433862434,1.4836961701512337,691.5221197362989,None,,,,,,,,,,,,,,,,,154,001,2024_Jan_23_1718,SpeechDraft1Carolyn_lessNoise_PlusLocalization,2021.2.3,60.02456623654128,
,,,,,,,,farLeft,-19.1,5,ch1Sound_localizationTask.wav,-19.1,"(667, 878)","(-293,-202)",-285,-338,,,,,,,,,3,3,24,0,,,,,,,,,,,,,,,,,,,,,,,,,,,,,,,,,,,,,,,,,,,,693.0221993522719,None,694.121932412032,None,695.0386126954108,None,1.3502645502645503,0.5999277122318745,695.0386126954108,None,,,,,,,,,,,,,,,,,154,001,2024_Jan_23_1718,SpeechDraft1Carolyn_lessNoise_PlusLocalization,2021.2.3,60.02456623654128,
,,,,,,,,nearLeft,-6.5,1,ch1Sound_localizationTask.wav,-6.5,"(857, 878)","(-103,-202)",-95,-338,,,,,,,,,3,4,25,2,,,,,,,,,,,,,,,,,,,,,,,,,,,,,,,,,,,,,,,,,,,,695.6389794223942,None,696.7385317161679,None,697.6720038461499,None,1.447089947089947,0.6331997541710734,697.6720038461499,None,,,,,,,,,,,,,,,,,154,001,2024_Jan_23_1718,SpeechDraft1Carolyn_lessNoise_PlusLocalization,2021.2.3,60.02456623654128,
,,,,,,,,center,0.0,6,ch1Sound_localizationTask.wav,0.0,"(952, 878)","(-8,-202)",0,-338,,,,,,,,,3,5,26,3,,,,,,,,,,,,,,,,,,,,,,,,,,,,,,,,,,,,,,,,,,,,698.3055140441284,None,699.4052724922076,None,700.3386568152346,None,1.5592592592592593,0.4834381709806621,700.3386568152346,None,,,,,,,,,,,,,,,,,154,001,2024_Jan_23_1718,SpeechDraft1Carolyn_lessNoise_PlusLocalization,2021.2.3,60.02456623654128,
,,,,,,,,midLeft,-13.0,2,ch1Sound_localizationTask.wav,-13.0,"(762, 878)","(-198,-202)",-190,-338,,,,,,,,,3,6,27,1,,,,,,,,,,,,,,,,,,,,,,,,,,,,,,,,,,,,,,,,,,,,700.8228580481373,None,701.9220412629656,None,702.8552366611548,None,1.4206349206349207,0.5668263207189739,702.8552366611548,None,,,,,,,,,,,,,,,,,154,001,2024_Jan_23_1718,SpeechDraft1Carolyn_lessNoise_PlusLocalization,2021.2.3,60.02456623654128,
,,,,,,,,nearRight,6.5,0,ch1Sound_localizationTask.wav,6.5,"(1047, 878)","(87, -202)",95,-338,,,,,,,,,4,0,28,4,,,,,,,,,,,,,,,,,,,,,,,,,,,,,,,,,,,,,,,,,,,,703.4232433540747,None,704.5383166819811,None,705.4552793730982,None,1.5687830687830688,0.465564020909369,705.4552793730982,None,,,,,,,,,,,,,,,,,154,001,2024_Jan_23_1718,SpeechDraft1Carolyn_lessNoise_PlusLocalization,2021.2.3,60.02456623654128,
,,,,,,,,midRight,13.0,3,ch1Sound_localizationTask.wav,13.0,"(1142, 878)","(182, -202)",190,-338,,,,,,,,,4,1,29,5,,,,,,,,,,,,,,,,,,,,,,,,,,,,,,,,,,,,,,,,,,,,705.9221860803664,None,707.0218378822319,None,707.9551430670545,None,1.6597883597883598,0.7645679600536823,707.9551430670545,None,,,,,,,,,,,,,,,,,154,001,2024_Jan_23_1718,SpeechDraft1Carolyn_lessNoise_PlusLocalization,2021.2.3,60.02456623654128,
,,,,,,,,farRight,19.1,4,ch1Sound_localizationTask.wav,19.1,"(1237, 878)","(277,-202)",285,-338,,,,,,,,,4,2,30,6,,,,,,,,,,,,,,,,,,,,,,,,,,,,,,,,,,,,,,,,,,,,708.7225122512318,None,709.8219134230167,None,710.7551760850474,None,1.7582010582010583,0.5995474332012236,710.7551760850474,None,,,,,,,,,,,,,,,,,154,001,2024_Jan_23_1718,SpeechDraft1Carolyn_lessNoise_PlusLocalization,2021.2.3,60.02456623654128,
,,,,,,,,nearRight,6.5,0,ch1Sound_localizationTask.wav,6.5,"(1047, 878)","(87, -202)",95,-338,,,,,,,,,4,3,31,4,,,,,,,,,,,,,,,,,,,,,,,,,,,,,,,,,,,,,,,,,,,,711.3558798772283,None,712.4551374092698,None,713.3886042311788,None,1.6873015873015873,0.48301971703767776,713.3886042311788,None,,,,,,,,,,,,,,,,,154,001,2024_Jan_23_1718,SpeechDraft1Carolyn_lessNoise_PlusLocalization,2021.2.3,60.02456623654128,
,,,,,,,,midRight,13.0,3,ch1Sound_localizationTask.wav,13.0,"(1142, 878)","(182, -202)",190,-338,,,,,,,,,4,4,32,5,,,,,,,,,,,,,,,,,,,,,,,,,,,,,,,,,,,,,,,,,,,,713.8727074023336,None,714.9719077721238,None,715.9052056162618,None,1.6391534391534393,0.7170511879958212,715.9052056162618,None,,,,,,,,,,,,,,,,,154,001,2024_Jan_23_1718,SpeechDraft1Carolyn_lessNoise_PlusLocalization,2021.2.3,60.02456623654128,
,,,,,,,,nearLeft,-6.5,1,ch1Sound_localizationTask.wav,-6.5,"(857, 878)","(-103,-202)",-95,-338,,,,,,,,,4,5,33,2,,,,,,,,,,,,,,,,,,,,,,,,,,,,,,,,,,,,,,,,,,,,716.6225736499764,None,717.7218689252622,None,718.6553240860812,None,1.4105820105820106,0.616245596203953,718.6553240860812,None,,,,,,,,,,,,,,,,,154,001,2024_Jan_23_1718,SpeechDraft1Carolyn_lessNoise_PlusLocalization,2021.2.3,60.02456623654128,
,,,,,,,,farLeft,-19.1,5,ch1Sound_localizationTask.wav,-19.1,"(667, 878)","(-293,-202)",-285,-338,,,,,,,,,4,6,34,0,,,,,,,,,,,,,,,,,,,,,,,,,,,,,,,,,,,,,,,,,,,,719.2727042981423,None,720.3719773660414,None,721.3052615453489,None,1.3047619047619048,0.6833033221773803,721.3052615453489,None,,,,,,,,,,,,,,,,,154,001,2024_Jan_23_1718,SpeechDraft1Carolyn_lessNoise_PlusLocalization,2021.2.3,60.02456623654128,
,,,,,,,,midLeft,-13.0,2,ch1Sound_localizationTask.wav,-13.0,"(762, 878)","(-198,-202)",-190,-338,,,,,,,,,5,0,35,1,,,,,,,,,,,,,,,,,,,,,,,,,,,,,,,,,,,,,,,,,,,,721.989597610198,None,723.0885382783599,None,724.0219461070374,None,1.270899470899471,0.5374483875930309,724.0219461070374,None,,,,,,,,,,,,,,,,,154,001,2024_Jan_23_1718,SpeechDraft1Carolyn_lessNoise_PlusLocalization,2021.2.3,60.02456623654128,
,,,,,,,,farLeft,-19.1,5,ch1Sound_localizationTask.wav,-19.1,"(667, 878)","(-293,-202)",-285,-338,,,,,,,,,5,1,36,0,,,,,,,,,,,,,,,,,,,,,,,,,,,,,,,,,,,,,,,,,,,,724.5730574610643,None,725.6719594360329,None,726.6053163362667,None,1.3047619047619048,0.5158360851928592,726.6053163362667,None,,,,,,,,,,,,,,,,,154,001,2024_Jan_23_1718,SpeechDraft1Carolyn_lessNoise_PlusLocalization,2021.2.3,60.02456623654128,
,,,,,,,,nearRight,6.5,0,ch1Sound_localizationTask.wav,6.5,"(1047, 878)","(87, -202)",95,-338,,,,,,,,,5,2,37,4,,,,,,,,,,,,,,,,,,,,,,,,,,,,,,,,,,,,,,,,,,,,727.1222374159843,None,728.2219298239797,None,729.1552557433024,None,1.6597883597883598,0.8994571161456406,729.1552557433024,None,,,,,,,,,,,,,,,,,154,001,2024_Jan_23_1718,SpeechDraft1Carolyn_lessNoise_PlusLocalization,2021.2.3,60.02456623654128,
,,,,,,,,farLeft,-19.1,5,ch1Sound_localizationTask.wav,-19.1,"(667, 878)","(-293,-202)",-285,-338,,,,,,,,,5,3,38,0,,,,,,,,,,,,,,,,,,,,,,,,,,,,,,,,,,,,,,,,,,,,730.056141547393,None,731.1552836541086,None,732.0886028613895,None,1.3031746031746032,0.7503112079575658,732.0886028613895,None,,,,,,,,,,,,,,,,,154,001,2024_Jan_23_1718,SpeechDraft1Carolyn_lessNoise_PlusLocalization,2021.2.3,60.02456623654128,
,,,,,,,,farRight,19.1,4,ch1Sound_localizationTask.wav,19.1,"(1237, 878)","(277,-202)",285,-338,,,,,,,,,5,4,39,6,,,,,,,,,,,,,,,,,,,,,,,,,,,,,,,,,,,,,,,,,,,,732.8393273190595,None,733.9387302589603,None,734.8718874240294,None,1.6984126984126984,1.066143712028861,734.8718874240294,None,,,,,,,,,,,,,,,,,154,001,2024_Jan_23_1718,SpeechDraft1Carolyn_lessNoise_PlusLocalization,2021.2.3,60.02456623654128,
,,,,,,,,midRight,13.0,3,ch1Sound_localizationTask.wav,13.0,"(1142, 878)","(182, -202)",190,-338,,,,,,,,,5,5,40,5,,,,,,,,,,,,,,,,,,,,,,,,,,,,,,,,,,,,,,,,,,,,735.9392736791633,None,737.0385422944091,None,737.9718551333062,None,1.5920634920634922,0.4668646943755448,737.9718551333062,None,,,,,,,,,,,,,,,,,154,001,2024_Jan_23_1718,SpeechDraft1Carolyn_lessNoise_PlusLocalization,2021.2.3,60.02456623654128,
,,,,,,,,midLeft,-13.0,2,ch1Sound_localizationTask.wav,-13.0,"(762, 878)","(-198,-202)",-190,-338,,,,,,,,,5,6,41,1,,,,,,,,,,,,,,,,,,,,,,,,,,,,,,,,,,,,,,,,,,,,738.4391692033969,None,739.5386316850781,None,740.4719189391471,None,1.3386243386243386,0.9497658982872963,740.4719189391471,None,,,,,,,,,,,,,,,,,154,001,2024_Jan_23_1718,SpeechDraft1Carolyn_lessNoise_PlusLocalization,2021.2.3,60.02456623654128,
,,,,,,,,nearRight,6.5,0,ch1Sound_localizationTask.wav,6.5,"(1047, 878)","(87, -202)",95,-338,,,,,,,,,6,0,42,4,,,,,,,,,,,,,,,,,,,,,,,,,,,,,,,,,,,,,,,,,,,,741.4388999212533,None,742.5386993200518,None,743.4720380832441,None,1.6058201058201058,0.5664795045740902,743.4720380832441,None,,,,,,,,,,,,,,,,,154,001,2024_Jan_23_1718,SpeechDraft1Carolyn_lessNoise_PlusLocalization,2021.2.3,60.02456623654128,
,,,,,,,,midLeft,-13.0,2,ch1Sound_localizationTask.wav,-13.0,"(762, 878)","(-198,-202)",-190,-338,,,,,,,,,6,1,43,1,,,,,,,,,,,,,,,,,,,,,,,,,,,,,,,,,,,,,,,,,,,,744.0397743941285,None,745.1386798052117,None,746.0719684911892,None,1.3391534391534392,0.6160720749758184,746.0719684911892,None,,,,,,,,,,,,,,,,,154,001,2024_Jan_23_1718,SpeechDraft1Carolyn_lessNoise_PlusLocalization,2021.2.3,60.02456623654128,
,,,,,,,,farRight,19.1,4,ch1Sound_localizationTask.wav,19.1,"(1237, 878)","(277,-202)",285,-338,,,,,,,,,6,2,44,6,,,,,,,,,,,,,,,,,,,,,,,,,,,,,,,,,,,,,,,,,,,,746.6890754881315,None,747.7885929713957,None,748.721945753321,None,1.6814814814814816,0.5334287430159748,748.721945753321,None,,,,,,,,,,,,,,,,,154,001,2024_Jan_23_1718,SpeechDraft1Carolyn_lessNoise_PlusLocalization,2021.2.3,60.02456623654128,
,,,,,,,,nearRight,6.5,0,ch1Sound_localizationTask.wav,6.5,"(1047, 878)","(87, -202)",95,-338,,,,,,,,,6,3,45,4,,,,,,,,,,,,,,,,,,,,,,,,,,,,,,,,,,,,,,,,,,,,749.2562069501728,None,750.3553574383259,None,751.2885967101902,None,1.5915343915343916,0.5681061828508973,751.2885967101902,None,,,,,,,,,,,,,,,,,154,001,2024_Jan_23_1718,SpeechDraft1Carolyn_lessNoise_PlusLocalization,2021.2.3,60.02456623654128,
,,,,,,,,midLeft,-13.0,2,ch1Sound_localizationTask.wav,-13.0,"(762, 878)","(-198,-202)",-190,-338,,,,,,,,,6,4,46,1,,,,,,,,,,,,,,,,,,,,,,,,,,,,,,,,,,,,,,,,,,,,751.8723476012237,None,752.9719515251927,None,753.9053161060438,None,1.384126984126984,0.5988738210871816,753.9053161060438,None,,,,,,,,,,,,,,,,,154,001,2024_Jan_23_1718,SpeechDraft1Carolyn_lessNoise_PlusLocalization,2021.2.3,60.02456623654128,
,,,,,,,,midRight,13.0,3,ch1Sound_localizationTask.wav,13.0,"(1142, 878)","(182, -202)",190,-338,,,,,,,,,6,5,47,5,,,,,,,,,,,,,,,,,,,,,,,,,,,,,,,,,,,,,,,,,,,,754.505703789182,None,755.6053846450523,None,756.5386032741517,None,1.5518518518518518,0.7827072981745005,756.5386032741517,None,,,,,,,,,,,,,,,,,154,001,2024_Jan_23_1718,SpeechDraft1Carolyn_lessNoise_PlusLocalization,2021.2.3,60.02456623654128,
,,,,,,,,nearLeft,-6.5,1,ch1Sound_localizationTask.wav,-6.5,"(857, 878)","(-103,-202)",-95,-338,,,,,,,,,6,6,48,2,,,,,,,,,,,,,,,,,,,,,,,,,,,,,,,,,,,,,,,,,,,,757.3224503383972,None,758.4219797672704,None,759.3552537383512,None,1.3613756613756614,0.7829570709727705,759.3552537383512,None,,,,,,,,,,,,,,,,,154,001,2024_Jan_23_1718,SpeechDraft1Carolyn_lessNoise_PlusLocalization,2021.2.3,60.02456623654128,
,,,,,,,,midLeft,-13.0,2,ch1Sound_localizationTask.wav,-13.0,"(762, 878)","(-198,-202)",-190,-338,,,,,,,,,7,0,49,1,,,,,,,,,,,,,,,,,,,,,,,,,,,,,,,,,,,,,,,,,,,,760.1392736532725,None,761.238555196207,None,762.1720209461637,None,1.367195767195767,0.4997934610582888,762.1720209461637,None,,,,,,,,,,,,,,,,,154,001,2024_Jan_23_1718,SpeechDraft1Carolyn_lessNoise_PlusLocalization,2021.2.3,60.02456623654128,
,,,,,,,,center,0.0,6,ch1Sound_localizationTask.wav,0.0,"(952, 878)","(-8,-202)",0,-338,,,,,,,,,7,1,50,3,,,,,,,,,,,,,,,,,,,,,,,,,,,,,,,,,,,,,,,,,,,,762.672417841386,None,763.7719311020337,None,764.7052348121069,None,1.3957671957671958,0.431914655957371,764.7052348121069,None,,,,,,,,,,,,,,,,,154,001,2024_Jan_23_1718,SpeechDraft1Carolyn_lessNoise_PlusLocalization,2021.2.3,60.02456623654128,
,,,,,,,,farRight,19.1,4,ch1Sound_localizationTask.wav,19.1,"(1237, 878)","(277,-202)",285,-338,,,,,,,,,7,2,51,6,,,,,,,,,,,,,,,,,,,,,,,,,,,,,,,,,,,,,,,,,,,,765.138929230161,None,766.2386902542785,None,767.1719651222229,None,1.6111111111111112,0.6835904237814248,767.1719651222229,None,,,,,,,,,,,,,,,,,154,001,2024_Jan_23_1718,SpeechDraft1Carolyn_lessNoise_PlusLocalization,2021.2.3,60.02456623654128,
,,,,,,,,farRight,19.1,4,ch1Sound_localizationTask.wav,19.1,"(1237, 878)","(277,-202)",285,-338,,,,,,,,,7,3,52,6,,,,,,,,,,,,,,,,,,,,,,,,,,,,,,,,,,,,,,,,,,,,767.8557365844026,None,768.9554159683175,None,769.888708142098,None,1.6216931216931219,0.4319579969160259,769.888708142098,None,,,,,,,,,,,,,,,,,154,001,2024_Jan_23_1718,SpeechDraft1Carolyn_lessNoise_PlusLocalization,2021.2.3,60.02456623654128,
,,,,,,,,center,0.0,6,ch1Sound_localizationTask.wav,0.0,"(952, 878)","(-8,-202)",0,-338,,,,,,,,,7,4,53,3,,,,,,,,,,,,,,,,,,,,,,,,,,,,,,,,,,,,,,,,,,,,770.3222942859866,None,771.4219393841922,None,772.3552099610679,None,1.5121693121693123,0.5161575437523425,772.3552099610679,None,,,,,,,,,,,,,,,,,154,001,2024_Jan_23_1718,SpeechDraft1Carolyn_lessNoise_PlusLocalization,2021.2.3,60.02456623654128,
,,,,,,,,midRight,13.0,3,ch1Sound_localizationTask.wav,13.0,"(1142, 878)","(182, -202)",190,-338,,,,,,,,,7,5,54,5,,,,,,,,,,,,,,,,,,,,,,,,,,,,,,,,,,,,,,,,,,,,772.8724351623096,None,773.972311661113,None,774.9053595070727,None,1.5698412698412698,0.7501193941570818,774.9053595070727,None,,,,,,,,,,,,,,,,,154,001,2024_Jan_23_1718,SpeechDraft1Carolyn_lessNoise_PlusLocalization,2021.2.3,60.02456623654128,
,,,,,,,,nearLeft,-6.5,1,ch1Sound_localizationTask.wav,-6.5,"(857, 878)","(-103,-202)",-95,-338,,,,,,,,,7,6,55,2,,,,,,,,,,,,,,,,,,,,,,,,,,,,,,,,,,,,,,,,,,,,775.655987881124,None,776.7552638910711,None,777.688703048043,None,1.4238095238095239,0.49897349532693624,777.688703048043,None,,,,,,,,,,,,,,,,,154,001,2024_Jan_23_1718,SpeechDraft1Carolyn_lessNoise_PlusLocalization,2021.2.3,60.02456623654128,
,,,,,,,,,,,,,,,,,,,,,,,,,,,,,,,,,,,,,,,,,,,,,,,,,,,,,,,,,,,,,,,,,,,,,,,,,,,,,,,,,,space,16.796871334780008,778.2723706662655,None,,,,,,,,,,,,,154,001,2024_Jan_23_1718,SpeechDraft1Carolyn_lessNoise_PlusLocalization,2021.2.3,60.02456623654128,
,,,,,,,,nearLeft,-6.5,1,ch1Sound_localizationTask.wav,-6.5,"(857, 878)","(-103,-202)",-95,-338,,,,,,,,,,,,,0,0,0,2,,,,,,,,,,,,,,,,,,,,,,,,,,,,,,,,,,,,,,,,795.1053504482843,None,,,798.1233942680992,None,1.4603174603174602,1.420292732771486,798.1233942680992,None,,,,,778.2723706662655,None,796.1056237812154,None,796.2889962643385,796.3056074203923,,,,,,,154,001,2024_Jan_23_1718,SpeechDraft1Carolyn_lessNoise_PlusLocalization,2021.2.3,60.02456623654128,
,,,,,,,,farRight,19.1,4,ch1Sound_localizationTask.wav,19.1,"(1237, 878)","(277,-202)",285,-338,,,,,,,,,,,,,0,1,1,6,,,,,,,,,,,,,,,,,,,,,,,,,,,,,,,,,,,,,,,,799.555925058201,None,,,802.5720170401037,None,1.664021164021164,1.0493038059212267,802.5720170401037,None,,,,,,,800.5557103152387,None,800.738946235273,800.7557419063523,,,,,,,154,001,2024_Jan_23_1718,SpeechDraft1Carolyn_lessNoise_PlusLocalization,2021.2.3,60.02456623654128,
,,,,,,,,farLeft,-19.1,5,ch1Sound_localizationTask.wav,-19.1,"(667, 878)","(-293,-202)",-285,-338,,,,,,,,,,,,,0,2,2,0,,,,,,,,,,,,,,,,,,,,,,,,,,,,,,,,,,,,,,,,803.6230045412667,None,,,806.6387911573984,None,1.3513227513227513,0.9496869910508394,806.6387911573984,None,,,,,,,804.6222863350995,None,804.8056119922549,804.8223101734184,,,,,,,154,001,2024_Jan_23_1718,SpeechDraft1Carolyn_lessNoise_PlusLocalization,2021.2.3,60.02456623654128,
,,,,,,,,midRight,13.0,3,ch1Sound_localizationTask.wav,13.0,"(1142, 878)","(182, -202)",190,-338,,,,,,,,,,,,,0,3,3,5,,,,,,,,,,,,,,,,,,,,,,,,,,,,,,,,,,,,,,,,807.5896144332364,None,,,810.6053258599713,None,1.6116402116402115,0.8489059018902481,810.6053258599713,None,,,,,,,808.5890294220299,None,808.7723737442866,808.7890034550801,,,,,,,154,001,2024_Jan_23_1718,SpeechDraft1Carolyn_lessNoise_PlusLocalization,2021.2.3,60.02456623654128,
,,,,,,,,midRight,13.0,3,ch1Sound_localizationTask.wav,13.0,"(1142, 878)","(182, -202)",190,-338,,,,,,,,,,,,,0,4,4,5,,,,,,,,,,,,,,,,,,,,,,,,,,,,,,,,,,,,,,,,811.4556245733984,None,,,814.4720232309774,None,1.596825396825397,1.0993047580122948,814.4720232309774,None,,,,,,,812.4555773260072,None,812.6389705091715,812.6557709001936,,,,,,,154,001,2024_Jan_23_1718,SpeechDraft1Carolyn_lessNoise_PlusLocalization,2021.2.3,60.02456623654128,
,,,,,,,,center,0.0,6,ch1Sound_localizationTask.wav,0.0,"(952, 878)","(-8,-202)",0,-338,,,,,,,,,,,,,0,5,5,3,,,,,,,,,,,,,,,,,,,,,,,,,,,,,,,,,,,,,,,,815.5732219181955,None,,,818.5887008882128,None,1.4862433862433861,0.8156154663302004,818.5887008882128,None,,,,,,,816.5723273800686,None,816.7556794960983,816.772348057013,,,,,,,154,001,2024_Jan_23_1718,SpeechDraft1Carolyn_lessNoise_PlusLocalization,2021.2.3,60.02456623654128,
,,,,,,,,midLeft,-13.0,2,ch1Sound_localizationTask.wav,-13.0,"(762, 878)","(-198,-202)",-190,-338,,,,,,,,,,,,,0,6,6,1,,,,,,,,,,,,,,,,,,,,,,,,,,,,,,,,,,,,,,,,819.4058775352314,None,,,822.422174483072,None,1.42010582010582,0.8663637763820589,822.422174483072,None,,,,,,,820.4056705553085,None,820.5889741033316,820.6056996542029,,,,,,,154,001,2024_Jan_23_1718,SpeechDraft1Carolyn_lessNoise_PlusLocalization,2021.2.3,60.02456623654128,
,,,,,,,,nearRight,6.5,0,ch1Sound_localizationTask.wav,6.5,"(1047, 878)","(87, -202)",95,-338,,,,,,,,,,,,,1,0,7,4,,,,,,,,,,,,,,,,,,,,,,,,,,,,,,,,,,,,,,,,823.2892509191297,None,,,826.3052955213934,None,1.5687830687830688,0.9324491540901363,826.3052955213934,None,,,,,,,824.2890378381126,None,824.4723380552605,824.4890344380401,,,,,,,154,001,2024_Jan_23_1718,SpeechDraft1Carolyn_lessNoise_PlusLocalization,2021.2.3,60.02456623654128,
,,,,,,,,center,0.0,6,ch1Sound_localizationTask.wav,0.0,"(952, 878)","(-8,-202)",0,-338,,,,,,,,,,,,,1,1,8,3,,,,,,,,,,,,,,,,,,,,,,,,,,,,,,,,,,,,,,,,827.2394152963534,None,,,830.2554167513736,None,1.4835978835978836,0.617454294115305,830.2554167513736,None,,,,,,,828.2392700961791,None,828.422330448404,828.439110273961,,,,,,,154,001,2024_Jan_23_1718,SpeechDraft1Carolyn_lessNoise_PlusLocalization,2021.2.3,60.02456623654128,
,,,,,,,,nearLeft,-6.5,1,ch1Sound_localizationTask.wav,-6.5,"(857, 878)","(-103,-202)",-95,-338,,,,,,,,,,,,,1,2,9,2,,,,,,,,,,,,,,,,,,,,,,,,,,,,,,,,,,,,,,,,830.8896315372549,None,,,833.905424667988,None,1.4232804232804233,0.5332121970131993,833.905424667988,None,,,,,,,831.8890463979915,None,832.0723579023033,832.0890401853248,,,,,,,154,001,2024_Jan_23_1718,SpeechDraft1Carolyn_lessNoise_PlusLocalization,2021.2.3,60.02456623654128,
,,,,,,,,farRight,19.1,4,ch1Sound_localizationTask.wav,19.1,"(1237, 878)","(277,-202)",285,-338,,,,,,,,,,,,,1,3,10,6,,,,,,,,,,,,,,,,,,,,,,,,,,,,,,,,,,,,,,,,834.4393915943801,None,,,837.4554374599829,None,1.673015873015873,0.5330106159672141,837.4554374599829,None,,,,,,,835.439120168332,None,835.6224313513376,835.6390336733311,,,,,,,154,001,2024_Jan_23_1718,SpeechDraft1Carolyn_lessNoise_PlusLocalization,2021.2.3,60.02456623654128,
,,,,,,,,nearLeft,-6.5,1,ch1Sound_localizationTask.wav,-6.5,"(857, 878)","(-103,-202)",-95,-338,,,,,,,,,,,,,1,4,11,2,,,,,,,,,,,,,,,,,,,,,,,,,,,,,,,,,,,,,,,,837.9895989219658,None,,,841.0053993440233,None,1.41005291005291,0.5149792078882456,841.0053993440233,None,,,,,,,838.9889790713787,None,839.1724822199903,839.1889984942973,,,,,,,154,001,2024_Jan_23_1718,SpeechDraft1Carolyn_lessNoise_PlusLocalization,2021.2.3,60.02456623654128,
,,,,,,,,nearRight,6.5,0,ch1Sound_localizationTask.wav,6.5,"(1047, 878)","(87, -202)",95,-338,,,,,,,,,,,,,1,5,12,4,,,,,,,,,,,,,,,,,,,,,,,,,,,,,,,,,,,,,,,,841.5223266663961,None,,,844.5387815921567,None,1.546031746031746,0.6663443050347269,844.5387815921567,None,,,,,,,842.5223624603823,None,842.7057816213928,842.7224236121401,,,,,,,154,001,2024_Jan_23_1718,SpeechDraft1Carolyn_lessNoise_PlusLocalization,2021.2.3,60.02456623654128,
,,,,,,,,farRight,19.1,4,ch1Sound_localizationTask.wav,19.1,"(1237, 878)","(277,-202)",285,-338,,,,,,,,,,,,,1,6,13,6,,,,,,,,,,,,,,,,,,,,,,,,,,,,,,,,,,,,,,,,845.2062006862834,None,,,848.2220348613337,None,1.657142857142857,0.7322281240485609,848.2220348613337,None,,,,,,,846.205766945146,None,846.3890277133323,846.4057483412325,,,,,,,154,001,2024_Jan_23_1718,SpeechDraft1Carolyn_lessNoise_PlusLocalization,2021.2.3,60.02456623654128,
,,,,,,,,midRight,13.0,3,ch1Sound_localizationTask.wav,13.0,"(1142, 878)","(182, -202)",190,-338,,,,,,,,,,,,,2,0,14,5,,,,,,,,,,,,,,,,,,,,,,,,,,,,,,,,,,,,,,,,848.9560650619678,None,,,851.9721303163096,None,1.6068783068783068,0.8165585780516267,851.9721303163096,None,,,,,,,849.955735612195,None,850.139042402152,850.1556973131374,,,,,,,154,001,2024_Jan_23_1718,SpeechDraft1Carolyn_lessNoise_PlusLocalization,2021.2.3,60.02456623654128,
,,,,,,,,midLeft,-13.0,2,ch1Sound_localizationTask.wav,-13.0,"(762, 878)","(-198,-202)",-190,-338,,,,,,,,,,,,,2,1,15,1,,,,,,,,,,,,,,,,,,,,,,,,,,,,,,,,,,,,,,,,852.789525849279,None,,,855.8054381380789,None,1.4179894179894181,0.6662934217602015,855.8054381380789,None,,,,,,,853.7891151183285,None,853.9723959043622,853.9891035309993,,,,,,,154,001,2024_Jan_23_1718,SpeechDraft1Carolyn_lessNoise_PlusLocalization,2021.2.3,60.02456623654128,
,,,,,,,,center,0.0,6,ch1Sound_localizationTask.wav,0.0,"(952, 878)","(-8,-202)",0,-338,,,,,,,,,,,,,2,2,16,3,,,,,,,,,,,,,,,,,,,,,,,,,,,,,,,,,,,,,,,,856.4727400811389,None,,,859.4888094090857,None,1.4915343915343915,3.6662638601846993,859.4888094090857,None,,,,,,,857.4723199103028,None,857.6557539240457,857.6723350412212,,,,,,,154,001,2024_Jan_23_1718,SpeechDraft1Carolyn_lessNoise_PlusLocalization,2021.2.3,60.02456623654128,
,,,,,,,,farRight,19.1,4,ch1Sound_localizationTask.wav,19.1,"(1237, 878)","(277,-202)",285,-338,,,,,,,,,,,,,2,3,17,6,,,,,,,,,,,,,,,,,,,,,,,,,,,,,,,,,,,,,,,,863.1559787089936,None,,,866.172121964395,None,1.716931216931217,0.6318513592705131,866.172121964395,None,,,,,,,864.1557722003199,None,864.3390562250279,864.3557312223129,,,,,,,154,001,2024_Jan_23_1718,SpeechDraft1Carolyn_lessNoise_PlusLocalization,2021.2.3,60.02456623654128,
,,,,,,,,nearRight,6.5,0,ch1Sound_localizationTask.wav,6.5,"(1047, 878)","(87, -202)",95,-338,,,,,,,,,,,,,2,4,18,4,,,,,,,,,,,,,,,,,,,,,,,,,,,,,,,,,,,,,,,,866.8068179283291,None,,,869.8390039363876,None,1.5761904761904761,0.8161168862134218,869.8390039363876,None,,,,,,,867.8223406681791,None,868.0057452772744,868.0223534870893,,,,,,,154,001,2024_Jan_23_1718,SpeechDraft1Carolyn_lessNoise_PlusLocalization,2021.2.3,60.02456623654128,
,,,,,,,,midLeft,-13.0,2,ch1Sound_localizationTask.wav,-13.0,"(762, 878)","(-198,-202)",-190,-338,,,,,,,,,,,,,2,5,19,1,,,,,,,,,,,,,,,,,,,,,,,,,,,,,,,,,,,,,,,,870.6559310792945,None,,,873.672113864217,None,1.4095238095238094,0.6492128823883832,873.672113864217,None,,,,,,,871.6558473533951,None,871.8390561663546,871.8557646400295,,,,,,,154,001,2024_Jan_23_1718,SpeechDraft1Carolyn_lessNoise_PlusLocalization,2021.2.3,60.02456623654128,
,,,,,,,,farLeft,-19.1,5,ch1Sound_localizationTask.wav,-19.1,"(667, 878)","(-293,-202)",-285,-338,,,,,,,,,,,,,2,6,20,0,,,,,,,,,,,,,,,,,,,,,,,,,,,,,,,,,,,,,,,,874.3227507113479,None,,,877.3388504702598,None,1.3248677248677247,1.382181664928794,877.3388504702598,None,,,,,,,875.3224832303822,None,875.5057348832488,875.5224445243366,,,,,,,154,001,2024_Jan_23_1718,SpeechDraft1Carolyn_lessNoise_PlusLocalization,2021.2.3,60.02456623654128,
,,,,,,,,midRight,13.0,3,ch1Sound_localizationTask.wav,13.0,"(1142, 878)","(182, -202)",190,-338,,,,,,,,,,,,,3,0,21,5,,,,,,,,,,,,,,,,,,,,,,,,,,,,,,,,,,,,,,,,878.7224725410342,None,,,881.7389016030356,None,1.6169312169312169,0.7662320700474083,881.7389016030356,None,,,,,,,879.7224262361415,None,879.9057098622434,879.9224269511178,,,,,,,154,001,2024_Jan_23_1718,SpeechDraft1Carolyn_lessNoise_PlusLocalization,2021.2.3,60.02456623654128,
,,,,,,,,nearLeft,-6.5,1,ch1Sound_localizationTask.wav,-6.5,"(857, 878)","(-103,-202)",-95,-338,,,,,,,,,,,,,3,1,22,2,,,,,,,,,,,,,,,,,,,,,,,,,,,,,,,,,,,,,,,,882.5057855760679,None,,,885.5223021591082,None,1.447089947089947,0.6989808902144432,885.5223021591082,None,,,,,,,883.5057023400441,None,883.6890476103872,883.7058055023663,,,,,,,154,001,2024_Jan_23_1718,SpeechDraft1Carolyn_lessNoise_PlusLocalization,2021.2.3,60.02456623654128,
,,,,,,,,midLeft,-13.0,2,ch1Sound_localizationTask.wav,-13.0,"(762, 878)","(-198,-202)",-190,-338,,,,,,,,,,,,,3,2,23,1,,,,,,,,,,,,,,,,,,,,,,,,,,,,,,,,,,,,,,,,886.2227720050141,None,,,889.2389430352487,None,1.3883597883597885,1.0819023279473186,889.2389430352487,None,,,,,,,887.22238790337,None,887.4057533321902,887.4223832902499,,,,,,,154,001,2024_Jan_23_1718,SpeechDraft1Carolyn_lessNoise_PlusLocalization,2021.2.3,60.02456623654128,
,,,,,,,,center,0.0,6,ch1Sound_localizationTask.wav,0.0,"(952, 878)","(-8,-202)",0,-338,,,,,,,,,,,,,3,3,24,3,,,,,,,,,,,,,,,,,,,,,,,,,,,,,,,,,,,,,,,,890.3224459323101,None,,,893.3389393179677,None,1.4957671957671956,0.7993508288636804,893.3389393179677,None,,,,,,,891.322473666165,None,891.5057123024017,891.5225892723538,,,,,,,154,001,2024_Jan_23_1718,SpeechDraft1Carolyn_lessNoise_PlusLocalization,2021.2.3,60.02456623654128,
,,,,,,,,farLeft,-19.1,5,ch1Sound_localizationTask.wav,-19.1,"(667, 878)","(-293,-202)",-285,-338,,,,,,,,,,,,,3,4,25,0,,,,,,,,,,,,,,,,,,,,,,,,,,,,,,,,,,,,,,,,894.1399580980651,None,,,897.1553854071535,None,1.3460317460317461,0.9982588421553373,897.1553854071535,None,,,,,,,895.1390762170777,None,895.3223920590244,895.3391288132407,,,,,,,154,001,2024_Jan_23_1718,SpeechDraft1Carolyn_lessNoise_PlusLocalization,2021.2.3,60.02456623654128,
,,,,,,,,nearLeft,-6.5,1,ch1Sound_localizationTask.wav,-6.5,"(857, 878)","(-103,-202)",-95,-338,,,,,,,,,,,,,3,5,26,2,,,,,,,,,,,,,,,,,,,,,,,,,,,,,,,,,,,,,,,,898.1558283502236,None,,,901.17216980597,None,1.4386243386243387,0.8495520791038871,901.17216980597,None,,,,,,,899.1556932763197,None,899.3391475421377,899.3557676062919,,,,,,,154,001,2024_Jan_23_1718,SpeechDraft1Carolyn_lessNoise_PlusLocalization,2021.2.3,60.02456623654128,
,,,,,,,,center,0.0,6,ch1Sound_localizationTask.wav,0.0,"(952, 878)","(-8,-202)",0,-338,,,,,,,,,,,,,3,6,27,3,,,,,,,,,,,,,,,,,,,,,,,,,,,,,,,,,,,,,,,,902.0227143620141,None,,,905.0389128541574,None,1.4968253968253968,0.7489747279323637,905.0389128541574,None,,,,,,,903.0224217153154,None,903.2057823273353,903.2224846300669,,,,,,,154,001,2024_Jan_23_1718,SpeechDraft1Carolyn_lessNoise_PlusLocalization,2021.2.3,60.02456623654128,
,,,,,,,,farLeft,-19.1,5,ch1Sound_localizationTask.wav,-19.1,"(667, 878)","(-293,-202)",-285,-338,,,,,,,,,,,,,4,0,28,0,,,,,,,,,,,,,,,,,,,,,,,,,,,,,,,,,,,,,,,,905.7895164163783,None,,,908.8054415131919,None,1.353968253968254,0.9668788411654532,908.8054415131919,None,,,,,,,906.7892367620952,None,906.9725189423189,906.9892380260862,,,,,,,154,001,2024_Jan_23_1718,SpeechDraft1Carolyn_lessNoise_PlusLocalization,2021.2.3,60.02456623654128,
,,,,,,,,midRight,13.0,3,ch1Sound_localizationTask.wav,13.0,"(1142, 878)","(182, -202)",190,-338,,,,,,,,,,,,,4,1,29,5,,,,,,,,,,,,,,,,,,,,,,,,,,,,,,,,,,,,,,,,909.7890542563982,None,,,912.8056836412288,None,1.5820105820105819,0.7161026708781719,912.8056836412288,None,,,,,,,910.7890851702541,None,910.9724034150131,910.9892700361088,,,,,,,154,001,2024_Jan_23_1718,SpeechDraft1Carolyn_lessNoise_PlusLocalization,2021.2.3,60.02456623654128,
,,,,,,,,midRight,13.0,3,ch1Sound_localizationTask.wav,13.0,"(1142, 878)","(182, -202)",190,-338,,,,,,,,,,,,,4,2,30,5,,,,,,,,,,,,,,,,,,,,,,,,,,,,,,,,,,,,,,,,913.5227773194201,None,,,916.5388253973797,None,1.6037037037037036,0.8499608961865306,916.5388253973797,None,,,,,,,914.5224113473669,None,914.7057763841003,914.7224879274145,,,,,,,154,001,2024_Jan_23_1718,SpeechDraft1Carolyn_lessNoise_PlusLocalization,2021.2.3,60.02456623654128,
,,,,,,,,midLeft,-13.0,2,ch1Sound_localizationTask.wav,-13.0,"(762, 878)","(-198,-202)",-190,-338,,,,,,,,,,,,,4,3,31,1,,,,,,,,,,,,,,,,,,,,,,,,,,,,,,,,,,,,,,,,917.3899825732224,None,,,920.4054156830534,None,1.4074074074074074,0.8331343596801162,920.4054156830534,None,,,,,,,918.3892572200857,None,918.5724727301858,918.5891148513183,,,,,,,154,001,2024_Jan_23_1718,SpeechDraft1Carolyn_lessNoise_PlusLocalization,2021.2.3,60.02456623654128,
,,,,,,,,center,0.0,6,ch1Sound_localizationTask.wav,0.0,"(952, 878)","(-8,-202)",0,-338,,,,,,,,,,,,,4,4,32,3,,,,,,,,,,,,,,,,,,,,,,,,,,,,,,,,,,,,,,,,921.2394850631244,None,,,924.2555596521124,None,1.5015873015873016,0.6989325629547238,924.2555596521124,None,,,,,,,922.2391573530622,None,922.4223935003392,922.4391354122199,,,,,,,154,001,2024_Jan_23_1718,SpeechDraft1Carolyn_lessNoise_PlusLocalization,2021.2.3,60.02456623654128,
,,,,,,,,midLeft,-13.0,2,ch1Sound_localizationTask.wav,-13.0,"(762, 878)","(-198,-202)",-190,-338,,,,,,,,,,,,,4,5,33,1,,,,,,,,,,,,,,,,,,,,,,,,,,,,,,,,,,,,,,,,924.9558738199994,None,,,927.9721404681914,None,1.3894179894179894,0.6661148332059383,927.9721404681914,None,,,,,,,925.9558400870301,None,926.1391681102104,926.1559266163968,,,,,,,154,001,2024_Jan_23_1718,SpeechDraft1Carolyn_lessNoise_PlusLocalization,2021.2.3,60.02456623654128,
,,,,,,,,farLeft,-19.1,5,ch1Sound_localizationTask.wav,-19.1,"(667, 878)","(-293,-202)",-285,-338,,,,,,,,,,,,,4,6,34,0,,,,,,,,,,,,,,,,,,,,,,,,,,,,,,,,,,,,,,,,928.6394517803565,None,,,931.6557025020011,None,1.3793650793650793,0.7829379090107977,931.6557025020011,None,,,,,,,929.6391894062981,None,929.8225637613796,929.8392423093319,,,,,,,154,001,2024_Jan_23_1718,SpeechDraft1Carolyn_lessNoise_PlusLocalization,2021.2.3,60.02456623654128,
,,,,,,,,farLeft,-19.1,5,ch1Sound_localizationTask.wav,-19.1,"(667, 878)","(-293,-202)",-285,-338,,,,,,,,,,,,,5,0,35,0,,,,,,,,,,,,,,,,,,,,,,,,,,,,,,,,,,,,,,,,932.4391858871095,None,,,935.455605765339,None,1.3698412698412699,0.8993788389489055,935.455605765339,None,,,,,,,933.4392824890092,None,933.6225816411898,933.639224707149,,,,,,,154,001,2024_Jan_23_1718,SpeechDraft1Carolyn_lessNoise_PlusLocalization,2021.2.3,60.02456623654128,
,,,,,,,,farRight,19.1,4,ch1Sound_localizationTask.wav,19.1,"(1237, 878)","(277,-202)",285,-338,,,,,,,,,,,,,5,1,36,6,,,,,,,,,,,,,,,,,,,,,,,,,,,,,,,,,,,,,,,,936.3562319083139,None,,,939.3720887852833,None,1.7047619047619047,0.6669411291368306,939.3720887852833,None,,,,,,,937.3558402722701,None,937.5391219872981,937.5559212854132,,,,,,,154,001,2024_Jan_23_1718,SpeechDraft1Carolyn_lessNoise_PlusLocalization,2021.2.3,60.02456623654128,
,,,,,,,,nearRight,6.5,0,ch1Sound_localizationTask.wav,6.5,"(1047, 878)","(87, -202)",95,-338,,,,,,,,,,,,,5,2,37,4,,,,,,,,,,,,,,,,,,,,,,,,,,,,,,,,,,,,,,,,940.05583996512,None,,,943.0722897863016,None,1.5576719576719578,0.7491972260177135,943.0722897863016,None,,,,,,,941.0558463162743,None,941.2392892842181,941.2558143092319,,,,,,,154,001,2024_Jan_23_1718,SpeechDraft1Carolyn_lessNoise_PlusLocalization,2021.2.3,60.02456623654128,
,,,,,,,,nearRight,6.5,0,ch1Sound_localizationTask.wav,6.5,"(1047, 878)","(87, -202)",95,-338,,,,,,,,,,,,,5,3,38,4,,,,,,,,,,,,,,,,,,,,,,,,,,,,,,,,,,,,,,,,943.8225891473703,None,,,946.8389612953179,None,1.5624338624338625,0.9832501979544759,946.8389612953179,None,,,,,,,944.8225237829611,None,945.0058079543523,945.0225816080347,,,,,,,154,001,2024_Jan_23_1718,SpeechDraft1Carolyn_lessNoise_PlusLocalization,2021.2.3,60.02456623654128,
,,,,,,,,midLeft,-13.0,2,ch1Sound_localizationTask.wav,-13.0,"(762, 878)","(-198,-202)",-190,-338,,,,,,,,,,,,,5,4,39,1,,,,,,,,,,,,,,,,,,,,,,,,,,,,,,,,,,,,,,,,947.822945707012,None,,,950.8390511809848,None,1.4386243386243387,0.7500373502261937,950.8390511809848,None,,,,,,,948.8224566783756,None,949.0060355253518,949.0224433019757,,,,,,,154,001,2024_Jan_23_1718,SpeechDraft1Carolyn_lessNoise_PlusLocalization,2021.2.3,60.02456623654128,
,,,,,,,,nearRight,6.5,0,ch1Sound_localizationTask.wav,6.5,"(1047, 878)","(87, -202)",95,-338,,,,,,,,,,,,,5,5,40,4,,,,,,,,,,,,,,,,,,,,,,,,,,,,,,,,,,,,,,,,951.6060049203224,None,,,954.6222446183674,None,1.5777777777777777,0.5652844980359077,954.6222446183674,None,,,,,,,952.6058454592712,None,952.7891783444211,952.8058418091387,,,,,,,154,001,2024_Jan_23_1718,SpeechDraft1Carolyn_lessNoise_PlusLocalization,2021.2.3,60.02456623654128,
,,,,,,,,center,0.0,6,ch1Sound_localizationTask.wav,0.0,"(952, 878)","(-8,-202)",0,-338,,,,,,,,,,,,,5,6,41,3,,,,,,,,,,,,,,,,,,,,,,,,,,,,,,,,,,,,,,,,955.1892073452473,None,,,958.2055077981204,None,1.4904761904761905,0.7832635841332376,958.2055077981204,None,,,,,,,956.1891909600236,None,956.372495456133,956.3891358631663,,,,,,,154,001,2024_Jan_23_1718,SpeechDraft1Carolyn_lessNoise_PlusLocalization,2021.2.3,60.02456623654128,
,,,,,,,,nearRight,6.5,0,ch1Sound_localizationTask.wav,6.5,"(1047, 878)","(87, -202)",95,-338,,,,,,,,,,,,,6,0,42,4,,,,,,,,,,,,,,,,,,,,,,,,,,,,,,,,,,,,,,,,958.9897999120876,None,,,962.005472167395,None,1.5455026455026455,0.632680919021368,962.005472167395,None,,,,,,,959.9892335361801,None,960.1724943611771,960.1891323481686,,,,,,,154,001,2024_Jan_23_1718,SpeechDraft1Carolyn_lessNoise_PlusLocalization,2021.2.3,60.02456623654128,
,,,,,,,,nearLeft,-6.5,1,ch1Sound_localizationTask.wav,-6.5,"(857, 878)","(-103,-202)",-95,-338,,,,,,,,,,,,,6,1,43,2,,,,,,,,,,,,,,,,,,,,,,,,,,,,,,,,,,,,,,,,962.6396171310917,None,,,965.6556232310832,None,1.4534391534391533,0.7156932950019836,965.6556232310832,None,,,,,,,963.6391277662478,None,963.8225101470016,963.8391984789632,,,,,,,154,001,2024_Jan_23_1718,SpeechDraft1Carolyn_lessNoise_PlusLocalization,2021.2.3,60.02456623654128,
,,,,,,,,farRight,19.1,4,ch1Sound_localizationTask.wav,19.1,"(1237, 878)","(277,-202)",285,-338,,,,,,,,,,,,,6,2,44,6,,,,,,,,,,,,,,,,,,,,,,,,,,,,,,,,,,,,,,,,966.3728953390382,None,,,969.3888547373936,None,1.6365079365079365,0.6157679376192391,969.3888547373936,None,,,,,,,967.3726702551357,None,967.5559743312187,967.5725002982654,,,,,,,154,001,2024_Jan_23_1718,SpeechDraft1Carolyn_lessNoise_PlusLocalization,2021.2.3,60.02456623654128,
,,,,,,,,farRight,19.1,4,ch1Sound_localizationTask.wav,19.1,"(1237, 878)","(277,-202)",285,-338,,,,,,,,,,,,,6,3,45,6,,,,,,,,,,,,,,,,,,,,,,,,,,,,,,,,,,,,,,,,970.006565365009,None,,,973.0223515280522,None,1.6322751322751323,0.8658623970113695,973.0223515280522,None,,,,,,,971.0061448430642,None,971.1892522703856,971.2058610892855,,,,,,,154,001,2024_Jan_23_1718,SpeechDraft1Carolyn_lessNoise_PlusLocalization,2021.2.3,60.02456623654128,
,,,,,,,,midLeft,-13.0,2,ch1Sound_localizationTask.wav,-13.0,"(762, 878)","(-198,-202)",-190,-338,,,,,,,,,,,,,6,4,46,1,,,,,,,,,,,,,,,,,,,,,,,,,,,,,,,,,,,,,,,,973.8894218360074,None,,,976.9056926812045,None,1.4047619047619047,0.7665965519845486,976.9056926812045,None,,,,,,,974.8892233660445,None,975.0726762870327,975.0892897360027,,,,,,,154,001,2024_Jan_23_1718,SpeechDraft1Carolyn_lessNoise_PlusLocalization,2021.2.3,60.02456623654128,
,,,,,,,,midRight,13.0,3,ch1Sound_localizationTask.wav,13.0,"(1142, 878)","(182, -202)",190,-338,,,,,,,,,,,,,6,5,47,5,,,,,,,,,,,,,,,,,,,,,,,,,,,,,,,,,,,,,,,,977.6732002589852,None,,,980.6889725332148,None,1.5772486772486771,0.7828550231643021,980.6889725332148,None,,,,,,,978.6725567979738,None,978.8559437021613,978.8725913683884,,,,,,,154,001,2024_Jan_23_1718,SpeechDraft1Carolyn_lessNoise_PlusLocalization,2021.2.3,60.02456623654128,
,,,,,,,,nearRight,6.5,0,ch1Sound_localizationTask.wav,6.5,"(1047, 878)","(87, -202)",95,-338,,,,,,,,,,,,,6,6,48,4,,,,,,,,,,,,,,,,,,,,,,,,,,,,,,,,,,,,,,,,981.4725319263525,None,,,984.4889787663706,None,1.5386243386243388,0.5492239240556955,984.4889787663706,None,,,,,,,982.4725432153791,None,982.6558992089704,982.6726476540789,,,,,,,154,001,2024_Jan_23_1718,SpeechDraft1Carolyn_lessNoise_PlusLocalization,2021.2.3,60.02456623654128,
,,,,,,,,center,0.0,6,ch1Sound_localizationTask.wav,0.0,"(952, 878)","(-8,-202)",0,-338,,,,,,,,,,,,,7,0,49,3,,,,,,,,,,,,,,,,,,,,,,,,,,,,,,,,,,,,,,,,985.039434062317,None,,,988.0557409534231,None,1.4851851851851852,0.6987981493584812,988.0557409534231,None,,,,,,,986.0392366833985,None,986.222564779222,986.2393166120164,,,,,,,154,001,2024_Jan_23_1718,SpeechDraft1Carolyn_lessNoise_PlusLocalization,2021.2.3,60.02456623654128,
,,,,,,,,nearLeft,-6.5,1,ch1Sound_localizationTask.wav,-6.5,"(857, 878)","(-103,-202)",-95,-338,,,,,,,,,,,,,7,1,50,2,,,,,,,,,,,,,,,,,,,,,,,,,,,,,,,,,,,,,,,,988.7559451223351,None,,,991.7722797761671,None,1.4328042328042327,0.8325430559925735,991.7722797761671,None,,,,,,,989.755950444378,None,989.939291447401,989.9560466674156,,,,,,,154,001,2024_Jan_23_1718,SpeechDraft1Carolyn_lessNoise_PlusLocalization,2021.2.3,60.02456623654128,
,,,,,,,,farRight,19.1,4,ch1Sound_localizationTask.wav,19.1,"(1237, 878)","(277,-202)",285,-338,,,,,,,,,,,,,7,2,51,6,,,,,,,,,,,,,,,,,,,,,,,,,,,,,,,,,,,,,,,,992.6059582582675,None,,,995.6222110772505,None,1.6201058201058203,0.6980926464311779,995.6222110772505,None,,,,,,,993.6058338363655,None,993.7893140283413,993.8059985074215,,,,,,,154,001,2024_Jan_23_1718,SpeechDraft1Carolyn_lessNoise_PlusLocalization,2021.2.3,60.02456623654128,
,,,,,,,,midRight,13.0,3,ch1Sound_localizationTask.wav,13.0,"(1142, 878)","(182, -202)",190,-338,,,,,,,,,,,,,7,3,52,5,,,,,,,,,,,,,,,,,,,,,,,,,,,,,,,,,,,,,,,,996.3225923981518,None,,,999.3390722572803,None,1.5920634920634922,0.565496226772666,999.3390722572803,None,,,,,,,997.3226933493279,None,997.5058317664079,997.5226680859923,,,,,,,154,001,2024_Jan_23_1718,SpeechDraft1Carolyn_lessNoise_PlusLocalization,2021.2.3,60.02456623654128,
,,,,,,,,farLeft,-19.1,5,ch1Sound_localizationTask.wav,-19.1,"(667, 878)","(-293,-202)",-285,-338,,,,,,,,,,,,,7,4,53,0,,,,,,,,,,,,,,,,,,,,,,,,,,,,,,,,,,,,,,,,999.9060655110516,None,,,1002.9223088882864,None,1.4132275132275132,0.7999862651340663,1002.9223088882864,None,,,,,,,1000.9059572173283,None,1001.0892011113465,1001.1058924482204,,,,,,,154,001,2024_Jan_23_1718,SpeechDraft1Carolyn_lessNoise_PlusLocalization,2021.2.3,60.02456623654128,
,,,,,,,,farLeft,-19.1,5,ch1Sound_localizationTask.wav,-19.1,"(667, 878)","(-293,-202)",-285,-338,,,,,,,,,,,,,7,5,54,0,,,,,,,,,,,,,,,,,,,,,,,,,,,,,,,,,,,,,,,,1003.723340081051,None,,,1006.7389758550562,None,1.3820105820105821,0.6160335019230843,1006.7389758550562,None,,,,,,,1004.7225708593614,None,1004.9060121392831,1004.9226186061278,,,,,,,154,001,2024_Jan_23_1718,SpeechDraft1Carolyn_lessNoise_PlusLocalization,2021.2.3,60.02456623654128,
,,,,,,,,nearLeft,-6.5,1,ch1Sound_localizationTask.wav,-6.5,"(857, 878)","(-103,-202)",-95,-338,,,,,,,,,,,,,7,6,55,2,,,,,,,,,,,,,,,,,,,,,,,,,,,,,,,,,,,,,,,,1007.3562753233127,None,,,1010.3723119259812,None,1.428042328042328,0.5866358927451074,1010.3723119259812,None,,,,,,,1008.3559529623017,None,1008.5392754022032,1008.555937662255,,,,,,,154,001,2024_Jan_23_1718,SpeechDraft1Carolyn_lessNoise_PlusLocalization,2021.2.3,60.02456623654128,
,,,,,,,,,,,,,,,,,,,,,,,,,,,,,,,,,,,,,,,,,,,,,,,,,,,,,,,,,,,,,,,,,,,,,,,,,,,,,,,,,,,,,,,,,,,,1010.9737942223437,None,c,502.3212257181294,1011.9559661820531,None,154,001,2024_Jan_23_1718,SpeechDraft1Carolyn_lessNoise_PlusLocalization,2021.2.3,60.02456623654128,
