{"meta_data":{"additional_headers":{},"game_name":"Recollect","version":"2.53.01","user_name":"154","organization":"braingamecenter","study":"mpl2_2022_11","session_number":0,"device_id":"74342D95-EE82-45E3-8ADF-48FB3203C5DD"},"data":[{"trial":0,"action":1,"button_pressed":9,"time_out":false,"dwell_time":31.27099609375,"response_time":1706054476179.22},{"trial":0,"action":1,"button_pressed":1,"time_out":false,"dwell_time":30.31103515625,"response_time":1706054476628.26},{"trial":0,"action":9,"button_pressed":-1,"time_out":false,"dwell_time":74.80810546875,"response_time":1706054477538.2},{"trial":1,"action":1,"button_pressed":11,"time_out":false,"dwell_time":48.697998046875,"response_time":1706054487158.87},{"trial":1,"action":1,"button_pressed":2,"time_out":false,"dwell_time":47.614990234375,"response_time":1706054487674.46},{"trial":1,"action":1,"button_pressed":9,"time_out":false,"dwell_time":47.617919921875,"response_time":1706054488124.34},{"trial":1,"action":9,"button_pressed":-1,"time_out":false,"dwell_time":30.73193359375,"response_time":1706054488891.21},{"trial":2,"action":1,"button_pressed":8,"time_out":false,"dwell_time":64.171142578125,"response_time":1706054500836.65},{"trial":2,"action":1,"button_pressed":1,"time_out":false,"dwell_time":46.9130859375,"response_time":1706054501286.62},{"trial":2,"action":1,"button_pressed":3,"time_out":false,"dwell_time":64.580810546875,"response_time":1706054501670.01},{"trial":2,"action":1,"button_pressed":11,"time_out":false,"dwell_time":47.73095703125,"response_time":1706054502119.78},{"trial":2,"action":9,"button_pressed":-1,"time_out":false,"dwell_time":47.6689453125,"response_time":1706054503286.43},{"trial":3,"action":1,"button_pressed":2,"time_out":false,"dwell_time":30.951904296875,"response_time":1706054517848.3},{"trial":3,"action":1,"button_pressed":6,"time_out":false,"dwell_time":63.306884765625,"response_time":1706054518381.21},{"trial":3,"action":1,"button_pressed":7,"time_out":false,"dwell_time":47.569091796875,"response_time":1706054518748.32},{"trial":3,"action":1,"button_pressed":0,"time_out":false,"dwell_time":47.44384765625,"response_time":1706054519231.45},{"trial":3,"action":1,"button_pressed":8,"time_out":false,"dwell_time":30.2939453125,"response_time":1706054519614.09},{"trial":3,"action":9,"button_pressed":-1,"time_out":false,"dwell_time":16.64990234375,"response_time":1706054520196.97},{"trial":4,"action":1,"button_pressed":0,"time_out":false,"dwell_time":14.794921875,"response_time":1706054537224.94},{"trial":4,"action":1,"button_pressed":4,"time_out":false,"dwell_time":30.905029296875,"response_time":1706054537642.01},{"trial":4,"action":1,"button_pressed":11,"time_out":false,"dwell_time":48.220947265625,"response_time":1706054541890.59},{"trial":4,"action":1,"button_pressed":3,"time_out":false,"dwell_time":47.68505859375,"response_time":1706054542357.11},{"trial":4,"action":1,"button_pressed":5,"time_out":false,"dwell_time":47.744140625,"response_time":1706054542739.68},{"trial":4,"action":1,"button_pressed":7,"time_out":false,"dwell_time":48.330810546875,"response_time":1706054543290.16},{"trial":4,"action":9,"button_pressed":-1,"time_out":false,"dwell_time":48.27490234375,"response_time":1706054543839.7},{"trial":5,"action":1,"button_pressed":7,"time_out":false,"dwell_time":63.8740234375,"response_time":1706054563682.37},{"trial":5,"action":1,"button_pressed":11,"time_out":false,"dwell_time":47.446044921875,"response_time":1706054564049.92},{"trial":5,"action":1,"button_pressed":0,"time_out":false,"dwell_time":63.826904296875,"response_time":1706054564499.26},{"trial":5,"action":1,"button_pressed":3,"time_out":false,"dwell_time":48.40380859375,"response_time":1706054564882.97},{"trial":5,"action":1,"button_pressed":9,"time_out":false,"dwell_time":47.27685546875,"response_time":1706054565248.73},{"trial":5,"action":1,"button_pressed":5,"time_out":false,"dwell_time":30.341064453125,"response_time":1706054565648.63},{"trial":5,"action":1,"button_pressed":6,"time_out":false,"dwell_time":48.22509765625,"response_time":1706054566099.28},{"trial":5,"action":9,"button_pressed":-1,"time_out":false,"dwell_time":48.171142578125,"response_time":1706054566782.08},{"trial":6,"action":1,"button_pressed":7,"time_out":false,"dwell_time":48.135009765625,"response_time":1706054589058.86},{"trial":6,"action":1,"button_pressed":5,"time_out":false,"dwell_time":45.80712890625,"response_time":1706054589573},{"trial":6,"action":1,"button_pressed":3,"time_out":false,"dwell_time":63.735107421875,"response_time":1706054592323.48},{"trial":6,"action":1,"button_pressed":4,"time_out":false,"dwell_time":64.9189453125,"response_time":1706054592640.42},{"trial":6,"action":1,"button_pressed":1,"time_out":false,"dwell_time":47.721923828125,"response_time":1706054593139.91},{"trial":6,"action":1,"button_pressed":10,"time_out":false,"dwell_time":30.2451171875,"response_time":1706054593589.6},{"trial":6,"action":1,"button_pressed":8,"time_out":false,"dwell_time":47.2939453125,"response_time":1706054594056.02},{"trial":6,"action":1,"button_pressed":8,"time_out":false,"dwell_time":30.130126953125,"response_time":1706054594838.99},{"trial":6,"action":1,"button_pressed":2,"time_out":false,"dwell_time":48.23193359375,"response_time":1706054595772.9},{"trial":6,"action":1,"button_pressed":2,"time_out":false,"dwell_time":64.64501953125,"response_time":1706054596555.43},{"trial":6,"action":1,"button_pressed":8,"time_out":false,"dwell_time":30.714111328125,"response_time":1706054597904.63},{"trial":6,"action":1,"button_pressed":8,"time_out":false,"dwell_time":63.774169921875,"response_time":1706054598504.12},{"trial":6,"action":1,"button_pressed":8,"time_out":false,"dwell_time":64.59912109375,"response_time":1706054598654.87},{"trial":6,"action":1,"button_pressed":8,"time_out":false,"dwell_time":47.219970703125,"response_time":1706054599137.52},{"trial":6,"action":9,"button_pressed":-1,"time_out":false,"dwell_time":63.714111328125,"response_time":1706054601320.24},{"trial":7,"action":1,"button_pressed":11,"time_out":false,"dwell_time":46.85693359375,"response_time":1706054625579.19},{"trial":7,"action":1,"button_pressed":4,"time_out":false,"dwell_time":80.608154296875,"response_time":1706054626478.22},{"trial":7,"action":1,"button_pressed":6,"time_out":false,"dwell_time":80.495849609375,"response_time":1706054626945.51},{"trial":7,"action":1,"button_pressed":7,"time_out":false,"dwell_time":63.93798828125,"response_time":1706054627328.2},{"trial":7,"action":1,"button_pressed":10,"time_out":false,"dwell_time":62.64404296875,"response_time":1706054628760.77},{"trial":7,"action":1,"button_pressed":1,"time_out":false,"dwell_time":30.135986328125,"response_time":1706054630543.84},{"trial":7,"action":9,"button_pressed":-1,"time_out":false,"dwell_time":14.0439453125,"response_time":1706054631110.82},{"trial":8,"action":1,"button_pressed":7,"time_out":false,"dwell_time":64.684814453125,"response_time":1706054648488.23},{"trial":8,"action":1,"button_pressed":3,"time_out":false,"dwell_time":64.535888671875,"response_time":1706054648838.02},{"trial":8,"action":1,"button_pressed":8,"time_out":false,"dwell_time":63.56201171875,"response_time":1706054649204.72},{"trial":8,"action":1,"button_pressed":0,"time_out":false,"dwell_time":63.610107421875,"response_time":1706054649603.57},{"trial":8,"action":1,"button_pressed":4,"time_out":false,"dwell_time":63.77099609375,"response_time":1706054649887.01},{"trial":8,"action":1,"button_pressed":1,"time_out":false,"dwell_time":47.76708984375,"response_time":1706054650221.52},{"trial":8,"action":9,"button_pressed":-1,"time_out":false,"dwell_time":30.62890625,"response_time":1706054650571.11},{"trial":9,"action":1,"button_pressed":6,"time_out":false,"dwell_time":63.950927734375,"response_time":1706054670297.25},{"trial":9,"action":1,"button_pressed":9,"time_out":false,"dwell_time":47.41796875,"response_time":1706054670547.29},{"trial":9,"action":1,"button_pressed":2,"time_out":false,"dwell_time":30.161865234375,"response_time":1706054670880.49},{"trial":9,"action":1,"button_pressed":3,"time_out":false,"dwell_time":64.553955078125,"response_time":1706054672580.22},{"trial":9,"action":1,"button_pressed":0,"time_out":false,"dwell_time":64.06982421875,"response_time":1706054672779.54},{"trial":9,"action":1,"button_pressed":10,"time_out":false,"dwell_time":13.1708984375,"response_time":1706054673046.11},{"trial":9,"action":1,"button_pressed":7,"time_out":false,"dwell_time":30.213134765625,"response_time":1706054673579.73},{"trial":9,"action":9,"button_pressed":-1,"time_out":false,"dwell_time":30.796142578125,"response_time":1706054674146.4},{"trial":10,"action":1,"button_pressed":5,"time_out":false,"dwell_time":63.486083984375,"response_time":1706054694272.63},{"trial":10,"action":1,"button_pressed":3,"time_out":false,"dwell_time":64.544189453125,"response_time":1706054694839.5},{"trial":10,"action":1,"button_pressed":8,"time_out":false,"dwell_time":63.77392578125,"response_time":1706054695255.42},{"trial":10,"action":1,"button_pressed":7,"time_out":false,"dwell_time":63.617919921875,"response_time":1706054695805.16},{"trial":10,"action":1,"button_pressed":11,"time_out":false,"dwell_time":47.427978515625,"response_time":1706054696105.48},{"trial":10,"action":1,"button_pressed":4,"time_out":false,"dwell_time":63.921875,"response_time":1706054696572.45},{"trial":10,"action":1,"button_pressed":10,"time_out":false,"dwell_time":48.489990234375,"response_time":1706054696939.46},{"trial":10,"action":9,"button_pressed":-1,"time_out":false,"dwell_time":31.8798828125,"response_time":1706054697605.51}]}