{"meta_data":{"additional_headers":{},"game_name":"Recollect","version":"2.53.01","user_name":"154","organization":"braingamecenter","study":"mpl2_2022_11","session_number":0,"device_id":"74342D95-EE82-45E3-8ADF-48FB3203C5DD"},"data":[{"stage":"Practice","trial":0,"sequence":"6F","letter_input":"F","number_input":"6","is_correct":true,"presentation_start_time":1706054731625.14,"presentation_end_time":1706054734627.73,"response_time":1706054740190.71},{"stage":"Practice","trial":1,"sequence":"G4","letter_input":"G","number_input":"4","is_correct":true,"presentation_start_time":1706054741721.84,"presentation_end_time":1706054744724.4,"response_time":1706054748169.74},{"stage":"Practice","trial":2,"sequence":"3W5","letter_input":"W","number_input":"35","is_correct":true,"presentation_start_time":1706054749702.49,"presentation_end_time":1706054754204.51,"response_time":1706054758582.98},{"stage":"Practice","trial":3,"sequence":"T7L","letter_input":"LT","number_input":"7","is_correct":true,"presentation_start_time":1706054760115.68,"presentation_end_time":1706054764617.91,"response_time":1706054771462.05},{"stage":"Practice","trial":4,"sequence":"9J1","letter_input":"J","number_input":"19","is_correct":true,"presentation_start_time":1706054772994.75,"presentation_end_time":1706054777496.82,"response_time":1706054780658.91},{"stage":"Calibration","trial":0,"sequence":"J9","letter_input":"J","number_input":"9","is_correct":true,"presentation_start_time":1706054791088.77,"presentation_end_time":1706054794091.43,"response_time":1706054797136.91},{"stage":"Calibration","trial":1,"sequence":"7T","letter_input":"T","number_input":"7","is_correct":true,"presentation_start_time":1706054798669.62,"presentation_end_time":1706054801672.29,"response_time":1706054804617.69},{"stage":"Calibration","trial":2,"sequence":"R1P","letter_input":"RP","number_input":"1","is_correct":false,"presentation_start_time":1706054806150.41,"presentation_end_time":1706054810652.56,"response_time":1706054821078.85},{"stage":"Calibration","trial":3,"sequence":"4Q2","letter_input":"Q","number_input":"24","is_correct":true,"presentation_start_time":1706054822611.63,"presentation_end_time":1706054827113.65,"response_time":1706054832575.15},{"stage":"Calibration","trial":4,"sequence":"Z9N5","letter_input":"NZ","number_input":"59","is_correct":true,"presentation_start_time":1706054834107.78,"presentation_end_time":1706054840109.37,"response_time":1706054846803.72},{"stage":"Calibration","trial":5,"sequence":"6T2E","letter_input":"ET","number_input":"26","is_correct":true,"presentation_start_time":1706054848336.4,"presentation_end_time":1706054854338.04,"response_time":1706054859049.65},{"stage":"Calibration","trial":6,"sequence":"G8A5Q","letter_input":"AGQ","number_input":"58","is_correct":true,"presentation_start_time":1706054860582.34,"presentation_end_time":1706054868083.39,"response_time":1706054874227.9},{"stage":"Calibration","trial":7,"sequence":"4Z9N7","letter_input":"NZ","number_input":"479","is_correct":true,"presentation_start_time":1706054875760.59,"presentation_end_time":1706054883261.72,"response_time":1706054898053.36},{"stage":"Calibration","trial":8,"sequence":"B3V1Q6","letter_input":"BQV","number_input":"136","is_correct":true,"presentation_start_time":1706054899586.06,"presentation_end_time":1706054908586.69,"response_time":1706054924178.06},{"stage":"Calibration","trial":9,"sequence":"2J8A4T","letter_input":"AJT","number_input":"248","is_correct":true,"presentation_start_time":1706054925710.85,"presentation_end_time":1706054934711.33,"response_time":1706054946370.56},{"stage":"Calibration","trial":10,"sequence":"B1L9D3W","letter_input":"BLW","number_input":"139","is_correct":false,"presentation_start_time":1706054947903.29,"presentation_end_time":1706054958403.36,"response_time":1706054968396.78},{"stage":"Calibration","trial":11,"sequence":"8J5A2V9","letter_input":"AJV","number_input":"2589","is_correct":true,"presentation_start_time":1706054969929.35,"presentation_end_time":1706054980429.29,"response_time":1706054998586.59},{"stage":"Calibration","trial":12,"sequence":"G4E1Z9N7","letter_input":"GE","number_input":"1497","is_correct":false,"presentation_start_time":1706055000119.33,"presentation_end_time":1706055012118.84,"response_time":1706055027610.21},{"stage":"Calibration","trial":13,"sequence":"5A3T8J4F","letter_input":"JTE","number_input":"358","is_correct":false,"presentation_start_time":1706055029142.9,"presentation_end_time":1706055041142.64,"response_time":1706055049702.83}]}