{"meta_data":{"additional_headers":{},"game_name":"Recollect","version":"2.53.01","user_name":"155","organization":"braingamecenter","study":"mpl2_2022_11","session_number":0,"device_id":"74342D95-EE82-45E3-8ADF-48FB3203C5DD"},"data":[{"stage":"Practice","trial":0,"sequence":"6F","letter_input":"F","number_input":"6","is_correct":true,"presentation_start_time":1706128643158.55,"presentation_end_time":1706128646161.22,"response_time":1706128652757.1},{"stage":"Practice","trial":1,"sequence":"G4","letter_input":"G","number_input":"4","is_correct":true,"presentation_start_time":1706128654288.22,"presentation_end_time":1706128657290.87,"response_time":1706128661935.91},{"stage":"Practice","trial":2,"sequence":"3W5","letter_input":"W","number_input":"35","is_correct":true,"presentation_start_time":1706128663468.59,"presentation_end_time":1706128667970.8,"response_time":1706128672649},{"stage":"Practice","trial":3,"sequence":"T7L","letter_input":"LT","number_input":"7","is_correct":true,"presentation_start_time":1706128674181.75,"presentation_end_time":1706128678683.9,"response_time":1706128687610.79},{"stage":"Practice","trial":4,"sequence":"9J1","letter_input":"J","number_input":"19","is_correct":true,"presentation_start_time":1706128689143.55,"presentation_end_time":1706128693645.63,"response_time":1706128697940.78},{"stage":"Calibration","trial":0,"sequence":"P3","letter_input":"P","number_input":"3","is_correct":true,"presentation_start_time":1706128704505.39,"presentation_end_time":1706128707507.86,"response_time":1706128711219.86},{"stage":"Calibration","trial":1,"sequence":"9W","letter_input":"W","number_input":"9","is_correct":true,"presentation_start_time":1706128712752.67,"presentation_end_time":1706128715755.19,"response_time":1706128720050.25},{"stage":"Calibration","trial":2,"sequence":"Z6M","letter_input":"MZ","number_input":"6","is_correct":true,"presentation_start_time":1706128721582.99,"presentation_end_time":1706128726085.27,"response_time":1706128736028.39},{"stage":"Calibration","trial":3,"sequence":"7D2","letter_input":"D","number_input":"27","is_correct":true,"presentation_start_time":1706128737561.11,"presentation_end_time":1706128742063.45,"response_time":1706128745908.53},{"stage":"Calibration","trial":4,"sequence":"W8Q5","letter_input":"QW","number_input":"58","is_correct":true,"presentation_start_time":1706128747441.34,"presentation_end_time":1706128753442.99,"response_time":1706128763736.17},{"stage":"Calibration","trial":5,"sequence":"3S1A","letter_input":"AS","number_input":"13","is_correct":true,"presentation_start_time":1706128765268.72,"presentation_end_time":1706128771270.4,"response_time":1706128780863.82},{"stage":"Calibration","trial":6,"sequence":"G7T5N","letter_input":"GNT","number_input":"57","is_correct":true,"presentation_start_time":1706128782396.63,"presentation_end_time":1706128789897.62,"response_time":1706128807988.32},{"stage":"Calibration","trial":7,"sequence":"6F2C9","letter_input":"CF","number_input":"269","is_correct":true,"presentation_start_time":1706128809521.13,"presentation_end_time":1706128817022.33,"response_time":1706128828431.61},{"stage":"Calibration","trial":8,"sequence":"T5G3V8","letter_input":"FGT","number_input":"358","is_correct":false,"presentation_start_time":1706128829964.39,"presentation_end_time":1706128838965,"response_time":1706128860887.82},{"stage":"Calibration","trial":9,"sequence":"2D6A4Q","letter_input":"ADG","number_input":"246","is_correct":false,"presentation_start_time":1706128862420.53,"presentation_end_time":1706128871421.18,"response_time":1706128884530.2}]}