{"meta_data":{"additional_headers":{},"game_name":"Recollect","version":"2.53.01","user_name":"155","organization":"braingamecenter","study":"mpl2_2022_11","session_number":0,"device_id":"74342D95-EE82-45E3-8ADF-48FB3203C5DD"},"data":[{"trial":0,"action":1,"button_pressed":2,"time_out":false,"dwell_time":31.389892578125,"response_time":1706128312602.12},{"trial":0,"action":1,"button_pressed":9,"time_out":false,"dwell_time":48.35888671875,"response_time":1706128313085.17},{"trial":0,"action":9,"button_pressed":-1,"time_out":false,"dwell_time":56.326904296875,"response_time":1706128314059.99},{"trial":1,"action":1,"button_pressed":11,"time_out":false,"dwell_time":48.77197265625,"response_time":1706128323865.09},{"trial":1,"action":1,"button_pressed":2,"time_out":false,"dwell_time":30.842041015625,"response_time":1706128324381.34},{"trial":1,"action":1,"button_pressed":9,"time_out":false,"dwell_time":30.996826171875,"response_time":1706128324814.59},{"trial":1,"action":9,"button_pressed":-1,"time_out":false,"dwell_time":16.498046875,"response_time":1706128325746.77},{"trial":2,"action":1,"button_pressed":1,"time_out":false,"dwell_time":48.632080078125,"response_time":1706128337993.81},{"trial":2,"action":1,"button_pressed":6,"time_out":false,"dwell_time":30.08203125,"response_time":1706128338359.39},{"trial":2,"action":1,"button_pressed":5,"time_out":false,"dwell_time":48.434814453125,"response_time":1706128338860.13},{"trial":2,"action":1,"button_pressed":10,"time_out":false,"dwell_time":31.587890625,"response_time":1706128339276.55},{"trial":2,"action":9,"button_pressed":-1,"time_out":false,"dwell_time":49.196044921875,"response_time":1706128340026.77},{"trial":3,"action":1,"button_pressed":5,"time_out":false,"dwell_time":48.033935546875,"response_time":1706128354554.4},{"trial":3,"action":1,"button_pressed":9,"time_out":false,"dwell_time":48.327880859375,"response_time":1706128354938.17},{"trial":3,"action":1,"button_pressed":6,"time_out":false,"dwell_time":29.955810546875,"response_time":1706128355253.84},{"trial":3,"action":1,"button_pressed":8,"time_out":false,"dwell_time":30.864990234375,"response_time":1706128355638.01},{"trial":3,"action":1,"button_pressed":7,"time_out":false,"dwell_time":29.97802734375,"response_time":1706128356203.61},{"trial":3,"action":9,"button_pressed":-1,"time_out":false,"dwell_time":48.10595703125,"response_time":1706128356837.25},{"trial":4,"action":1,"button_pressed":11,"time_out":false,"dwell_time":47.7099609375,"response_time":1706128373998.88},{"trial":4,"action":1,"button_pressed":8,"time_out":false,"dwell_time":47.452880859375,"response_time":1706128374498.43},{"trial":4,"action":1,"button_pressed":6,"time_out":false,"dwell_time":30.780029296875,"response_time":1706128374931.68},{"trial":4,"action":1,"button_pressed":4,"time_out":false,"dwell_time":46.93212890625,"response_time":1706128375247.39},{"trial":4,"action":1,"button_pressed":1,"time_out":false,"dwell_time":47.72900390625,"response_time":1706128375598.22},{"trial":4,"action":1,"button_pressed":10,"time_out":false,"dwell_time":30.99609375,"response_time":1706128375997.23},{"trial":4,"action":9,"button_pressed":-1,"time_out":false,"dwell_time":64.530029296875,"response_time":1706128376863.57},{"trial":5,"action":1,"button_pressed":6,"time_out":false,"dwell_time":64.0830078125,"response_time":1706128396390.33},{"trial":5,"action":1,"button_pressed":10,"time_out":false,"dwell_time":64.248046875,"response_time":1706128396923.91},{"trial":5,"action":1,"button_pressed":11,"time_out":false,"dwell_time":64.182861328125,"response_time":1706128397423.84},{"trial":5,"action":1,"button_pressed":3,"time_out":false,"dwell_time":63.85595703125,"response_time":1706128397923.63},{"trial":5,"action":1,"button_pressed":8,"time_out":false,"dwell_time":48.378173828125,"response_time":1706128398424.14},{"trial":5,"action":1,"button_pressed":1,"time_out":false,"dwell_time":30.198974609375,"response_time":1706128399956.09},{"trial":5,"action":1,"button_pressed":5,"time_out":false,"dwell_time":30.200927734375,"response_time":1706128400405.85},{"trial":5,"action":9,"button_pressed":-1,"time_out":false,"dwell_time":64.339111328125,"response_time":1706128401139.64},{"trial":6,"action":1,"button_pressed":3,"time_out":false,"dwell_time":46.942138671875,"response_time":1706128420616.18},{"trial":6,"action":1,"button_pressed":0,"time_out":false,"dwell_time":47.072998046875,"response_time":1706128421032.63},{"trial":6,"action":1,"button_pressed":10,"time_out":false,"dwell_time":48.3681640625,"response_time":1706128421666.41},{"trial":6,"action":1,"button_pressed":5,"time_out":false,"dwell_time":63.279052734375,"response_time":1706128422464.44},{"trial":6,"action":1,"button_pressed":4,"time_out":false,"dwell_time":64.62890625,"response_time":1706128422865.64},{"trial":6,"action":1,"button_pressed":1,"time_out":false,"dwell_time":63.85498046875,"response_time":1706128423847.86},{"trial":6,"action":1,"button_pressed":2,"time_out":false,"dwell_time":30.208984375,"response_time":1706128424348.09},{"trial":6,"action":9,"button_pressed":-1,"time_out":false,"dwell_time":64.557861328125,"response_time":1706128432495.59},{"trial":7,"action":1,"button_pressed":10,"time_out":false,"dwell_time":63.278076171875,"response_time":1706128455271.39},{"trial":7,"action":1,"button_pressed":8,"time_out":false,"dwell_time":64.23681640625,"response_time":1706128456437.99},{"trial":7,"action":1,"button_pressed":0,"time_out":false,"dwell_time":80.584228515625,"response_time":1706128456954.67},{"trial":7,"action":1,"button_pressed":2,"time_out":false,"dwell_time":63.778076171875,"response_time":1706128457670.17},{"trial":7,"action":1,"button_pressed":1,"time_out":false,"dwell_time":63.531005859375,"response_time":1706128460319.33},{"trial":7,"action":1,"button_pressed":4,"time_out":false,"dwell_time":48.3369140625,"response_time":1706128460737.25},{"trial":7,"action":1,"button_pressed":3,"time_out":false,"dwell_time":47.652099609375,"response_time":1706128461770.19},{"trial":7,"action":1,"button_pressed":5,"time_out":false,"dwell_time":47.64111328125,"response_time":1706128462169.2},{"trial":7,"action":9,"button_pressed":-1,"time_out":false,"dwell_time":32.4541015625,"response_time":1706128462870.35},{"trial":8,"action":1,"button_pressed":2,"time_out":false,"dwell_time":64.5439453125,"response_time":1706128486261.83},{"trial":8,"action":1,"button_pressed":4,"time_out":false,"dwell_time":30.055908203125,"response_time":1706128486861.16},{"trial":8,"action":1,"button_pressed":11,"time_out":false,"dwell_time":30.705078125,"response_time":1706128487494.33},{"trial":8,"action":1,"button_pressed":0,"time_out":false,"dwell_time":30.2509765625,"response_time":1706128489726.96},{"trial":8,"action":1,"button_pressed":3,"time_out":false,"dwell_time":47.02685546875,"response_time":1706128490226.93},{"trial":8,"action":1,"button_pressed":5,"time_out":false,"dwell_time":81.241943359375,"response_time":1706128490760.23},{"trial":8,"action":1,"button_pressed":6,"time_out":false,"dwell_time":47.57421875,"response_time":1706128491310.7},{"trial":8,"action":1,"button_pressed":8,"time_out":false,"dwell_time":63.639892578125,"response_time":1706128496257.84},{"trial":8,"action":9,"button_pressed":-1,"time_out":false,"dwell_time":49.157958984375,"response_time":1706128496842.53},{"trial":9,"action":1,"button_pressed":8,"time_out":false,"dwell_time":30.113037109375,"response_time":1706128514052.44},{"trial":9,"action":1,"button_pressed":1,"time_out":false,"dwell_time":47.41796875,"response_time":1706128514502.1},{"trial":9,"action":1,"button_pressed":0,"time_out":false,"dwell_time":64.386962890625,"response_time":1706128514852.37},{"trial":9,"action":1,"button_pressed":6,"time_out":false,"dwell_time":47.64013671875,"response_time":1706128515185.33},{"trial":9,"action":1,"button_pressed":3,"time_out":false,"dwell_time":64.824951171875,"response_time":1706128515452.36},{"trial":9,"action":1,"button_pressed":5,"time_out":false,"dwell_time":64.6220703125,"response_time":1706128515852.07},{"trial":9,"action":9,"button_pressed":-1,"time_out":false,"dwell_time":48.22705078125,"response_time":1706128516502.16},{"trial":10,"action":1,"button_pressed":2,"time_out":false,"dwell_time":48.009033203125,"response_time":1706128533613.77},{"trial":10,"action":1,"button_pressed":6,"time_out":false,"dwell_time":30.010986328125,"response_time":1706128534012.49},{"trial":10,"action":1,"button_pressed":10,"time_out":false,"dwell_time":47.4189453125,"response_time":1706128534329.15},{"trial":10,"action":1,"button_pressed":3,"time_out":false,"dwell_time":47.571044921875,"response_time":1706128534646.46},{"trial":10,"action":1,"button_pressed":7,"time_out":false,"dwell_time":47.489990234375,"response_time":1706128534995.52},{"trial":10,"action":1,"button_pressed":9,"time_out":false,"dwell_time":30.701171875,"response_time":1706128535479.42},{"trial":10,"action":0,"button_pressed":-1,"time_out":false,"dwell_time":30.5439453125,"response_time":1706128541576.98},{"trial":10,"action":1,"button_pressed":2,"time_out":false,"dwell_time":30.06005859375,"response_time":1706128542159.83},{"trial":10,"action":1,"button_pressed":6,"time_out":false,"dwell_time":64.237060546875,"response_time":1706128542676.65},{"trial":10,"action":1,"button_pressed":10,"time_out":false,"dwell_time":64.400146484375,"response_time":1706128542993.29},{"trial":10,"action":1,"button_pressed":7,"time_out":false,"dwell_time":48.093994140625,"response_time":1706128544009.95},{"trial":10,"action":1,"button_pressed":9,"time_out":false,"dwell_time":29.322021484375,"response_time":1706128544391.72},{"trial":10,"action":1,"button_pressed":3,"time_out":false,"dwell_time":47.82177734375,"response_time":1706128544759.15},{"trial":10,"action":9,"button_pressed":-1,"time_out":false,"dwell_time":48.111083984375,"response_time":1706128545442.49},{"trial":11,"action":1,"button_pressed":0,"time_out":false,"dwell_time":47.113037109375,"response_time":1706128565302.55},{"trial":11,"action":1,"button_pressed":8,"time_out":false,"dwell_time":63.580810546875,"response_time":1706128565919.13},{"trial":11,"action":1,"button_pressed":2,"time_out":false,"dwell_time":46.814208984375,"response_time":1706128566318.7},{"trial":11,"action":1,"button_pressed":4,"time_out":false,"dwell_time":64.620849609375,"response_time":1706128566802.24},{"trial":11,"action":1,"button_pressed":5,"time_out":false,"dwell_time":48.3740234375,"response_time":1706128567235.68},{"trial":11,"action":1,"button_pressed":6,"time_out":false,"dwell_time":47.81396484375,"response_time":1706128567702.04},{"trial":11,"action":1,"button_pressed":9,"time_out":false,"dwell_time":47.204833984375,"response_time":1706128568085.74},{"trial":11,"action":9,"button_pressed":-1,"time_out":false,"dwell_time":64.10498046875,"response_time":1706128571367},{"trial":12,"action":1,"button_pressed":5,"time_out":false,"dwell_time":63.385009765625,"response_time":1706128591043.87},{"trial":12,"action":1,"button_pressed":3,"time_out":false,"dwell_time":46.86181640625,"response_time":1706128591560.49},{"trial":12,"action":1,"button_pressed":8,"time_out":false,"dwell_time":63.668212890625,"response_time":1706128592159.92},{"trial":12,"action":1,"button_pressed":4,"time_out":false,"dwell_time":46.950927734375,"response_time":1706128592493.65},{"trial":12,"action":1,"button_pressed":11,"time_out":false,"dwell_time":47.280029296875,"response_time":1706128593444.07},{"trial":12,"action":1,"button_pressed":6,"time_out":false,"dwell_time":48.35302734375,"response_time":1706128593793.96},{"trial":12,"action":1,"button_pressed":10,"time_out":false,"dwell_time":47.636962890625,"response_time":1706128594210.4},{"trial":12,"action":9,"button_pressed":-1,"time_out":false,"dwell_time":47.5888671875,"response_time":1706128595193.21}]}