{"meta_data":{"additional_headers":{},"game_name":"Recollect","version":"2.53.01","user_name":"156","organization":"braingamecenter","study":"mpl2_2022_11","session_number":0,"device_id":"74342D95-EE82-45E3-8ADF-48FB3203C5DD"},"data":[{"stage":"Practice","trial":0,"sequence":"6F","letter_input":"F","number_input":"6","is_correct":true,"presentation_start_time":1706223246025.36,"presentation_end_time":1706223249028.03,"response_time":1706223255523.85},{"stage":"Practice","trial":1,"sequence":"G4","letter_input":"G","number_input":"4","is_correct":true,"presentation_start_time":1706223257055.11,"presentation_end_time":1706223260057.57,"response_time":1706223265352.34},{"stage":"Practice","trial":2,"sequence":"3W5","letter_input":"W","number_input":"35","is_correct":true,"presentation_start_time":1706223266885.1,"presentation_end_time":1706223271387.23,"response_time":1706223277581.58},{"stage":"Practice","trial":3,"sequence":"T7L","letter_input":"LT","number_input":"7","is_correct":true,"presentation_start_time":1706223279114.38,"presentation_end_time":1706223283616.56,"response_time":1706223289610.97},{"stage":"Practice","trial":4,"sequence":"9J1","letter_input":"J","number_input":"19","is_correct":true,"presentation_start_time":1706223291143.71,"presentation_end_time":1706223295645.87,"response_time":1706223299790.96},{"stage":"Calibration","trial":0,"sequence":"W7","letter_input":"W","number_input":"7","is_correct":true,"presentation_start_time":1706223306588.56,"presentation_end_time":1706223309591.03,"response_time":1706223313936.42},{"stage":"Calibration","trial":1,"sequence":"6T","letter_input":"T","number_input":"6","is_correct":true,"presentation_start_time":1706223315469.05,"presentation_end_time":1706223318471.65,"response_time":1706223322333.43},{"stage":"Calibration","trial":2,"sequence":"V8H","letter_input":"HV","number_input":"8","is_correct":true,"presentation_start_time":1706223323866.24,"presentation_end_time":1706223328368.24,"response_time":1706223333329.8},{"stage":"Calibration","trial":3,"sequence":"5W1","letter_input":"W","number_input":"15","is_correct":true,"presentation_start_time":1706223334862.51,"presentation_end_time":1706223339364.69,"response_time":1706223342676.67},{"stage":"Calibration","trial":4,"sequence":"K8F2","letter_input":"FK","number_input":"28","is_correct":true,"presentation_start_time":1706223344209.48,"presentation_end_time":1706223350210.95,"response_time":1706223355389.17},{"stage":"Calibration","trial":5,"sequence":"9Z1A","letter_input":"AZ","number_input":"19","is_correct":true,"presentation_start_time":1706223356921.9,"presentation_end_time":1706223362923.52,"response_time":1706223366968.6},{"stage":"Calibration","trial":6,"sequence":"P6N4C","letter_input":"CNP","number_input":"46","is_correct":true,"presentation_start_time":1706223368501.31,"presentation_end_time":1706223376002.48,"response_time":1706223384579.49},{"stage":"Calibration","trial":7,"sequence":"3Z7K5","letter_input":"KZ","number_input":"357","is_correct":true,"presentation_start_time":1706223386112.19,"presentation_end_time":1706223393613.2,"response_time":1706223398258.2},{"stage":"Calibration","trial":8,"sequence":"R2G8W4","letter_input":"GRW","number_input":"248","is_correct":true,"presentation_start_time":1706223399790.98,"presentation_end_time":1706223408791.51,"response_time":1706223419251.21},{"stage":"Calibration","trial":9,"sequence":"5L3E1P","letter_input":"ELP","number_input":"135","is_correct":true,"presentation_start_time":1706223420783.87,"presentation_end_time":1706223429784.49,"response_time":1706223433596.45},{"stage":"Calibration","trial":10,"sequence":"N9G6S2K","letter_input":"GKNS","number_input":"269","is_correct":true,"presentation_start_time":1706223435129.2,"presentation_end_time":1706223445629.27,"response_time":1706223460487.47},{"stage":"Calibration","trial":11,"sequence":"7M4V1P8","letter_input":"MPV","number_input":"1478","is_correct":true,"presentation_start_time":1706223462020.28,"presentation_end_time":1706223472520.46,"response_time":1706223483529.82},{"stage":"Calibration","trial":12,"sequence":"J5B2W9T1","letter_input":"BJWT","number_input":"1259","is_correct":false,"presentation_start_time":1706223485062.55,"presentation_end_time":1706223497062.12,"response_time":1706223525665.83},{"stage":"Calibration","trial":13,"sequence":"3Z7F2N5L","letter_input":"FLNV","number_input":"2375","is_correct":false,"presentation_start_time":1706223527198.61,"presentation_end_time":1706223539198.15,"response_time":1706223547841.73}]}