{"meta_data":{"additional_headers":{},"game_name":"Recollect","version":"2.53.01","user_name":"156","organization":"braingamecenter","study":"mpl2_2022_11","session_number":0,"device_id":"74342D95-EE82-45E3-8ADF-48FB3203C5DD"},"data":[{"trial":0,"action":1,"button_pressed":0,"time_out":false,"dwell_time":63.302978515625,"response_time":1706222920618.34},{"trial":0,"action":1,"button_pressed":6,"time_out":false,"dwell_time":63.751953125,"response_time":1706222921035.52},{"trial":0,"action":9,"button_pressed":-1,"time_out":false,"dwell_time":59.011962890625,"response_time":1706222921580.23},{"trial":1,"action":1,"button_pressed":8,"time_out":false,"dwell_time":63.0380859375,"response_time":1706222931231.38},{"trial":1,"action":1,"button_pressed":11,"time_out":false,"dwell_time":63.033203125,"response_time":1706222931581.22},{"trial":1,"action":1,"button_pressed":5,"time_out":false,"dwell_time":97.287109375,"response_time":1706222932198.43},{"trial":1,"action":9,"button_pressed":-1,"time_out":false,"dwell_time":80.2490234375,"response_time":1706222932631.24},{"trial":2,"action":1,"button_pressed":7,"time_out":false,"dwell_time":46.94580078125,"response_time":1706222944660.72},{"trial":2,"action":1,"button_pressed":9,"time_out":false,"dwell_time":64.256103515625,"response_time":1706222945060.84},{"trial":2,"action":1,"button_pressed":0,"time_out":false,"dwell_time":80.58203125,"response_time":1706222945444},{"trial":2,"action":1,"button_pressed":4,"time_out":false,"dwell_time":47.368896484375,"response_time":1706222945710.74},{"trial":2,"action":9,"button_pressed":-1,"time_out":false,"dwell_time":16.572021484375,"response_time":1706222946326.65},{"trial":3,"action":1,"button_pressed":7,"time_out":false,"dwell_time":81.6318359375,"response_time":1706222961189.08},{"trial":3,"action":1,"button_pressed":4,"time_out":false,"dwell_time":47.509033203125,"response_time":1706222961672.46},{"trial":3,"action":1,"button_pressed":11,"time_out":false,"dwell_time":97.51806640625,"response_time":1706222962071.49},{"trial":3,"action":1,"button_pressed":3,"time_out":false,"dwell_time":47.760986328125,"response_time":1706222962404.78},{"trial":3,"action":1,"button_pressed":10,"time_out":false,"dwell_time":64.092041015625,"response_time":1706222962788.21},{"trial":3,"action":9,"button_pressed":-1,"time_out":false,"dwell_time":64.885009765625,"response_time":1706222963438.41},{"trial":4,"action":1,"button_pressed":1,"time_out":false,"dwell_time":81.238037109375,"response_time":1706222980898.76},{"trial":4,"action":1,"button_pressed":9,"time_out":false,"dwell_time":80.156982421875,"response_time":1706222981315.19},{"trial":4,"action":1,"button_pressed":5,"time_out":false,"dwell_time":80.568115234375,"response_time":1706222981748.59},{"trial":4,"action":1,"button_pressed":7,"time_out":false,"dwell_time":114.578125,"response_time":1706222982281.93},{"trial":4,"action":1,"button_pressed":6,"time_out":false,"dwell_time":63.739990234375,"response_time":1706222982647.61},{"trial":4,"action":1,"button_pressed":2,"time_out":false,"dwell_time":63.080078125,"response_time":1706222983230.69},{"trial":4,"action":9,"button_pressed":-1,"time_out":false,"dwell_time":115.27294921875,"response_time":1706222984931.26},{"trial":5,"action":1,"button_pressed":7,"time_out":false,"dwell_time":63.964111328125,"response_time":1706223002225.22},{"trial":5,"action":1,"button_pressed":3,"time_out":false,"dwell_time":98.3251953125,"response_time":1706223002608.72},{"trial":5,"action":1,"button_pressed":8,"time_out":false,"dwell_time":113.029052734375,"response_time":1706223003007.62},{"trial":5,"action":1,"button_pressed":0,"time_out":false,"dwell_time":81.19921875,"response_time":1706223003458.01},{"trial":5,"action":1,"button_pressed":4,"time_out":false,"dwell_time":80.962890625,"response_time":1706223003775.04},{"trial":5,"action":1,"button_pressed":1,"time_out":false,"dwell_time":63.901123046875,"response_time":1706223004107.17},{"trial":5,"action":9,"button_pressed":-1,"time_out":false,"dwell_time":64.4111328125,"response_time":1706223004490.7},{"trial":6,"action":1,"button_pressed":8,"time_out":false,"dwell_time":81.5478515625,"response_time":1706223023884.9},{"trial":6,"action":1,"button_pressed":5,"time_out":false,"dwell_time":79.614013671875,"response_time":1706223024283.81},{"trial":6,"action":1,"button_pressed":6,"time_out":false,"dwell_time":80.30712890625,"response_time":1706223024767.98},{"trial":6,"action":1,"button_pressed":3,"time_out":false,"dwell_time":113.095947265625,"response_time":1706223025233.61},{"trial":6,"action":1,"button_pressed":1,"time_out":false,"dwell_time":80.3701171875,"response_time":1706223026066.56},{"trial":6,"action":1,"button_pressed":2,"time_out":false,"dwell_time":46.8798828125,"response_time":1706223027733.16},{"trial":6,"action":1,"button_pressed":11,"time_out":false,"dwell_time":63.89892578125,"response_time":1706223028366.7},{"trial":6,"action":9,"button_pressed":-1,"time_out":false,"dwell_time":82.034912109375,"response_time":1706223030366.35},{"trial":7,"action":1,"button_pressed":8,"time_out":false,"dwell_time":48.614013671875,"response_time":1706223050343.2},{"trial":7,"action":1,"button_pressed":4,"time_out":false,"dwell_time":80.491943359375,"response_time":1706223051458.08},{"trial":7,"action":1,"button_pressed":8,"time_out":false,"dwell_time":80.462158203125,"response_time":1706223052257.85},{"trial":7,"action":1,"button_pressed":4,"time_out":false,"dwell_time":80.47607421875,"response_time":1706223052908.25},{"trial":7,"action":1,"button_pressed":4,"time_out":false,"dwell_time":63.958984375,"response_time":1706223053374.1},{"trial":7,"action":1,"button_pressed":4,"time_out":false,"dwell_time":64.018798828125,"response_time":1706223053840.67},{"trial":7,"action":1,"button_pressed":4,"time_out":false,"dwell_time":63.33203125,"response_time":1706223054207.16},{"trial":7,"action":1,"button_pressed":4,"time_out":false,"dwell_time":47.795166015625,"response_time":1706223054724.93},{"trial":7,"action":1,"button_pressed":4,"time_out":false,"dwell_time":30.468994140625,"response_time":1706223055257.37},{"trial":7,"action":1,"button_pressed":4,"time_out":false,"dwell_time":47.77783203125,"response_time":1706223055740.52},{"trial":7,"action":1,"button_pressed":4,"time_out":false,"dwell_time":47.98291015625,"response_time":1706223055890.48},{"trial":7,"action":1,"button_pressed":4,"time_out":false,"dwell_time":48.067138671875,"response_time":1706223056041.33},{"trial":7,"action":1,"button_pressed":4,"time_out":false,"dwell_time":47.007080078125,"response_time":1706223056373.51},{"trial":7,"action":1,"button_pressed":4,"time_out":false,"dwell_time":98.125,"response_time":1706223056540.49},{"trial":7,"action":1,"button_pressed":4,"time_out":false,"dwell_time":98.60302734375,"response_time":1706223056656.66},{"trial":7,"action":1,"button_pressed":4,"time_out":false,"dwell_time":62.636962890625,"response_time":1706223056772.33},{"trial":7,"action":1,"button_pressed":4,"time_out":false,"dwell_time":80.683837890625,"response_time":1706223056906.35},{"trial":7,"action":1,"button_pressed":4,"time_out":false,"dwell_time":63.341064453125,"response_time":1706223057022.94},{"trial":7,"action":1,"button_pressed":4,"time_out":false,"dwell_time":80.536865234375,"response_time":1706223057172.88},{"trial":7,"action":0,"button_pressed":-1,"time_out":false,"dwell_time":80.804931640625,"response_time":1706223058256.78},{"trial":7,"action":1,"button_pressed":4,"time_out":false,"dwell_time":64.2548828125,"response_time":1706223058972.84},{"trial":7,"action":0,"button_pressed":-1,"time_out":false,"dwell_time":114.1689453125,"response_time":1706223060921.79},{"trial":7,"action":1,"button_pressed":4,"time_out":false,"dwell_time":63.0791015625,"response_time":1706223062604.38},{"trial":7,"action":1,"button_pressed":8,"time_out":false,"dwell_time":62.966064453125,"response_time":1706223063120.91},{"trial":7,"action":1,"button_pressed":9,"time_out":false,"dwell_time":63.091796875,"response_time":1706223065620.67},{"trial":7,"action":1,"button_pressed":2,"time_out":false,"dwell_time":97.83203125,"response_time":1706223066237.2},{"trial":7,"action":1,"button_pressed":1,"time_out":false,"dwell_time":47.62109375,"response_time":1706223067086.65},{"trial":7,"action":1,"button_pressed":3,"time_out":false,"dwell_time":63.847900390625,"response_time":1706223069519.42},{"trial":7,"action":0,"button_pressed":-1,"time_out":false,"dwell_time":131.7861328125,"response_time":1706223072102.23},{"trial":7,"action":1,"button_pressed":3,"time_out":false,"dwell_time":80.503173828125,"response_time":1706223072834.3},{"trial":7,"action":1,"button_pressed":8,"time_out":false,"dwell_time":63.693115234375,"response_time":1706223073351.51},{"trial":7,"action":1,"button_pressed":9,"time_out":false,"dwell_time":80.31103515625,"response_time":1706223073884.62},{"trial":7,"action":1,"button_pressed":2,"time_out":false,"dwell_time":97.3271484375,"response_time":1706223074451.28},{"trial":7,"action":1,"button_pressed":1,"time_out":false,"dwell_time":97.212890625,"response_time":1706223076217.28},{"trial":7,"action":1,"button_pressed":0,"time_out":false,"dwell_time":64.157958984375,"response_time":1706223077566.7},{"trial":7,"action":1,"button_pressed":6,"time_out":false,"dwell_time":47.505126953125,"response_time":1706223077883.14},{"trial":7,"action":9,"button_pressed":-1,"time_out":false,"dwell_time":48.449951171875,"response_time":1706223078616.8},{"trial":8,"action":1,"button_pressed":6,"time_out":false,"dwell_time":80.51904296875,"response_time":1706223094010.79},{"trial":8,"action":1,"button_pressed":3,"time_out":false,"dwell_time":98.02685546875,"response_time":1706223094244.76},{"trial":8,"action":1,"button_pressed":8,"time_out":false,"dwell_time":80.73291015625,"response_time":1706223094627.48},{"trial":8,"action":1,"button_pressed":11,"time_out":false,"dwell_time":64.07421875,"response_time":1706223095077.99},{"trial":8,"action":1,"button_pressed":0,"time_out":false,"dwell_time":47.656005859375,"response_time":1706223095560.57},{"trial":8,"action":9,"button_pressed":-1,"time_out":false,"dwell_time":49.096923828125,"response_time":1706223096194.88},{"trial":9,"action":1,"button_pressed":3,"time_out":false,"dwell_time":98.197021484375,"response_time":1706223113321.82},{"trial":9,"action":1,"button_pressed":7,"time_out":false,"dwell_time":31.096923828125,"response_time":1706223114954.99},{"trial":9,"action":1,"button_pressed":4,"time_out":false,"dwell_time":30.27392578125,"response_time":1706223115487.21},{"trial":9,"action":1,"button_pressed":10,"time_out":false,"dwell_time":81.093017578125,"response_time":1706223115954.03},{"trial":9,"action":1,"button_pressed":2,"time_out":false,"dwell_time":80.56005859375,"response_time":1706223116353.21},{"trial":9,"action":1,"button_pressed":9,"time_out":false,"dwell_time":46.674072265625,"response_time":1706223116753.55},{"trial":9,"action":9,"button_pressed":-1,"time_out":false,"dwell_time":47.177001953125,"response_time":1706223117420.31},{"trial":10,"action":1,"button_pressed":7,"time_out":false,"dwell_time":63.285888671875,"response_time":1706223137179.76},{"trial":10,"action":1,"button_pressed":11,"time_out":false,"dwell_time":97.31787109375,"response_time":1706223137562.9},{"trial":10,"action":1,"button_pressed":0,"time_out":false,"dwell_time":114.577880859375,"response_time":1706223139812.84},{"trial":10,"action":1,"button_pressed":3,"time_out":false,"dwell_time":63.75,"response_time":1706223142328.48},{"trial":10,"action":1,"button_pressed":9,"time_out":false,"dwell_time":79.590087890625,"response_time":1706223142894.41},{"trial":10,"action":1,"button_pressed":8,"time_out":false,"dwell_time":79.571044921875,"response_time":1706223143877.3},{"trial":10,"action":1,"button_pressed":6,"time_out":false,"dwell_time":64.15283203125,"response_time":1706223144261.7},{"trial":10,"action":9,"button_pressed":-1,"time_out":false,"dwell_time":65.097900390625,"response_time":1706223145061.57},{"trial":11,"action":1,"button_pressed":3,"time_out":false,"dwell_time":80.8779296875,"response_time":1706223164421.53},{"trial":11,"action":1,"button_pressed":0,"time_out":false,"dwell_time":97.16796875,"response_time":1706223164854.47},{"trial":11,"action":1,"button_pressed":10,"time_out":false,"dwell_time":80.1669921875,"response_time":1706223165336.94},{"trial":11,"action":1,"button_pressed":5,"time_out":false,"dwell_time":96.514892578125,"response_time":1706223165886.75},{"trial":11,"action":1,"button_pressed":4,"time_out":false,"dwell_time":80.514892578125,"response_time":1706223168452.54},{"trial":11,"action":1,"button_pressed":1,"time_out":false,"dwell_time":64.597900390625,"response_time":1706223168969.72},{"trial":11,"action":1,"button_pressed":2,"time_out":false,"dwell_time":80.412109375,"response_time":1706223169635.47},{"trial":11,"action":9,"button_pressed":-1,"time_out":false,"dwell_time":131.177001953125,"response_time":1706223170352.4},{"trial":12,"action":1,"button_pressed":3,"time_out":false,"dwell_time":64.02392578125,"response_time":1706223192412.11},{"trial":12,"action":1,"button_pressed":11,"time_out":false,"dwell_time":63.635009765625,"response_time":1706223192761.22},{"trial":12,"action":1,"button_pressed":4,"time_out":false,"dwell_time":114.639892578125,"response_time":1706223193411.68},{"trial":12,"action":1,"button_pressed":7,"time_out":false,"dwell_time":47.62109375,"response_time":1706223194061.23},{"trial":12,"action":1,"button_pressed":2,"time_out":false,"dwell_time":63.907958984375,"response_time":1706223194810.64},{"trial":12,"action":1,"button_pressed":10,"time_out":false,"dwell_time":81.135986328125,"response_time":1706223195644.44},{"trial":12,"action":1,"button_pressed":9,"time_out":false,"dwell_time":63.875,"response_time":1706223196976.46},{"trial":12,"action":1,"button_pressed":1,"time_out":false,"dwell_time":46.7939453125,"response_time":1706223197443.33},{"trial":12,"action":9,"button_pressed":-1,"time_out":false,"dwell_time":65.1298828125,"response_time":1706223198027.28},{"trial":13,"action":1,"button_pressed":3,"time_out":false,"dwell_time":46.953125,"response_time":1706223220785.66},{"trial":13,"action":1,"button_pressed":5,"time_out":false,"dwell_time":98.22705078125,"response_time":1706223221286.12},{"trial":13,"action":1,"button_pressed":0,"time_out":false,"dwell_time":30.241943359375,"response_time":1706223221752.17},{"trial":13,"action":1,"button_pressed":10,"time_out":false,"dwell_time":97.762939453125,"response_time":1706223222402.12},{"trial":13,"action":1,"button_pressed":8,"time_out":false,"dwell_time":96.283935546875,"response_time":1706223223001.25},{"trial":13,"action":1,"button_pressed":1,"time_out":false,"dwell_time":47.921875,"response_time":1706223223651.68},{"trial":13,"action":1,"button_pressed":7,"time_out":false,"dwell_time":81.637939453125,"response_time":1706223224168.24},{"trial":13,"action":9,"button_pressed":-1,"time_out":false,"dwell_time":16.56689453125,"response_time":1706223225034.07}]}