{"meta_data":{"additional_headers":{},"game_name":"Recollect","version":"2.53.01","user_name":"157","organization":"braingamecenter","study":"mpl2_2022_11","session_number":0,"device_id":"74342D95-EE82-45E3-8ADF-48FB3203C5DD"},"data":[{"stage":"Practice","trial":0,"sequence":"6F","letter_input":"F","number_input":"6","is_correct":true,"presentation_start_time":1706313432619.08,"presentation_end_time":1706313435621.77,"response_time":1706313441636.13},{"stage":"Practice","trial":1,"sequence":"G4","letter_input":"G","number_input":"4","is_correct":true,"presentation_start_time":1706313443165.56,"presentation_end_time":1706313446168.28,"response_time":1706313452329.28},{"stage":"Practice","trial":2,"sequence":"3W5","letter_input":"W","number_input":"35","is_correct":true,"presentation_start_time":1706313453862.01,"presentation_end_time":1706313458364.44,"response_time":1706313462975.77},{"stage":"Practice","trial":3,"sequence":"T7L","letter_input":"LT","number_input":"7","is_correct":true,"presentation_start_time":1706313464508.55,"presentation_end_time":1706313469010.58,"response_time":1706313473555.62},{"stage":"Practice","trial":4,"sequence":"9J1","letter_input":"J","number_input":"19","is_correct":true,"presentation_start_time":1706313475088.45,"presentation_end_time":1706313479590.39,"response_time":1706313484801.87},{"stage":"Calibration","trial":0,"sequence":"C8","letter_input":"C","number_input":"8","is_correct":true,"presentation_start_time":1706313495814.87,"presentation_end_time":1706313498817.34,"response_time":1706313502729.17},{"stage":"Calibration","trial":1,"sequence":"9J","letter_input":"J","number_input":"9","is_correct":true,"presentation_start_time":1706313504261.95,"presentation_end_time":1706313507264.67,"response_time":1706313512226.06},{"stage":"Calibration","trial":2,"sequence":"W1B","letter_input":"BW","number_input":"1","is_correct":true,"presentation_start_time":1706313513758.8,"presentation_end_time":1706313518261.14,"response_time":1706313522889.28},{"stage":"Calibration","trial":3,"sequence":"9Y5","letter_input":"Y","number_input":"59","is_correct":true,"presentation_start_time":1706313524422,"presentation_end_time":1706313528924.14,"response_time":1706313534751.95},{"stage":"Calibration","trial":4,"sequence":"F6A2","letter_input":"AF","number_input":"26","is_correct":true,"presentation_start_time":1706313536284.79,"presentation_end_time":1706313542286.42,"response_time":1706313551030.02},{"stage":"Calibration","trial":5,"sequence":"3Q1G","letter_input":"GQ","number_input":"13","is_correct":true,"presentation_start_time":1706313552562.6,"presentation_end_time":1706313558564.22,"response_time":1706313570873.41},{"stage":"Calibration","trial":6,"sequence":"N7J4A","letter_input":"AJN","number_input":"47","is_correct":true,"presentation_start_time":1706313572406.11,"presentation_end_time":1706313579907.19,"response_time":1706313603779.09},{"stage":"Calibration","trial":7,"sequence":"1Z5W3","letter_input":"WZ","number_input":"135","is_correct":true,"presentation_start_time":1706313605311.93,"presentation_end_time":1706313612812.92,"response_time":1706313625755.14},{"stage":"Calibration","trial":8,"sequence":"Q8M6V2","letter_input":"MQV","number_input":"268","is_correct":true,"presentation_start_time":1706313627287.99,"presentation_end_time":1706313636288.64,"response_time":1706313660227.05},{"stage":"Calibration","trial":9,"sequence":"1E7Z5R","letter_input":"ERZ","number_input":"157","is_correct":true,"presentation_start_time":1706313661759.95,"presentation_end_time":1706313670759.34,"response_time":1706313683502.7},{"stage":"Calibration","trial":10,"sequence":"K4F2S8B","letter_input":"BKS","number_input":"248","is_correct":false,"presentation_start_time":1706313685035.39,"presentation_end_time":1706313695535.56,"response_time":1706313723756.08},{"stage":"Calibration","trial":11,"sequence":"6R3E9A1","letter_input":"AER","number_input":"1369","is_correct":true,"presentation_start_time":1706313725288.85,"presentation_end_time":1706313735789.02,"response_time":1706313765409.03},{"stage":"Calibration","trial":12,"sequence":"D2S7P4L8","letter_input":"DPS","number_input":"2478","is_correct":false,"presentation_start_time":1706313766941.68,"presentation_end_time":1706313778941.44,"response_time":1706313818208.15},{"stage":"Calibration","trial":13,"sequence":"9H5B3V1M","letter_input":"DERM","number_input":"1579","is_correct":false,"presentation_start_time":1706313819740.96,"presentation_end_time":1706313831740.69,"response_time":1706313846931.98}]}