{"meta_data":{"additional_headers":{},"game_name":"Recollect","version":"2.53.01","user_name":"157","organization":"braingamecenter","study":"mpl2_2022_11","session_number":0,"device_id":"74342D95-EE82-45E3-8ADF-48FB3203C5DD"},"data":[{"trial":0,"action":1,"button_pressed":9,"time_out":false,"dwell_time":114.423095703125,"response_time":1706313060494.42},{"trial":0,"action":1,"button_pressed":1,"time_out":false,"dwell_time":47.02197265625,"response_time":1706313060977.39},{"trial":0,"action":9,"button_pressed":-1,"time_out":false,"dwell_time":57.134033203125,"response_time":1706313062137.08},{"trial":1,"action":1,"button_pressed":4,"time_out":false,"dwell_time":80.989013671875,"response_time":1706313071741.2},{"trial":1,"action":1,"button_pressed":7,"time_out":false,"dwell_time":29.840087890625,"response_time":1706313072440.26},{"trial":1,"action":1,"button_pressed":10,"time_out":false,"dwell_time":30.097900390625,"response_time":1706313072940.03},{"trial":1,"action":9,"button_pressed":-1,"time_out":false,"dwell_time":97.681884765625,"response_time":1706313073740.51},{"trial":2,"action":1,"button_pressed":3,"time_out":false,"dwell_time":82.004150390625,"response_time":1706313086236.5},{"trial":2,"action":1,"button_pressed":5,"time_out":false,"dwell_time":113.677001953125,"response_time":1706313086735.8},{"trial":2,"action":1,"button_pressed":9,"time_out":false,"dwell_time":46.84814453125,"response_time":1706313087418.62},{"trial":2,"action":1,"button_pressed":2,"time_out":false,"dwell_time":47.626953125,"response_time":1706313087902.57},{"trial":2,"action":9,"button_pressed":-1,"time_out":false,"dwell_time":64.544921875,"response_time":1706313088468.36},{"trial":3,"action":1,"button_pressed":5,"time_out":false,"dwell_time":48.385009765625,"response_time":1706313103030.66},{"trial":3,"action":1,"button_pressed":9,"time_out":false,"dwell_time":63.172119140625,"response_time":1706313103546.29},{"trial":3,"action":1,"button_pressed":6,"time_out":false,"dwell_time":30.612060546875,"response_time":1706313103797.27},{"trial":3,"action":1,"button_pressed":8,"time_out":false,"dwell_time":63.597900390625,"response_time":1706313104146.69},{"trial":3,"action":1,"button_pressed":7,"time_out":false,"dwell_time":63.301025390625,"response_time":1706313104646.42},{"trial":3,"action":9,"button_pressed":-1,"time_out":false,"dwell_time":31.02294921875,"response_time":1706313105646.48},{"trial":4,"action":1,"button_pressed":11,"time_out":false,"dwell_time":47.84912109375,"response_time":1706313122923.66},{"trial":4,"action":1,"button_pressed":8,"time_out":false,"dwell_time":46.720947265625,"response_time":1706313123406.7},{"trial":4,"action":1,"button_pressed":6,"time_out":false,"dwell_time":63.60400390625,"response_time":1706313123940.17},{"trial":4,"action":1,"button_pressed":4,"time_out":false,"dwell_time":64.5068359375,"response_time":1706313124306.62},{"trial":4,"action":1,"button_pressed":1,"time_out":false,"dwell_time":64.43505859375,"response_time":1706313124673.12},{"trial":4,"action":1,"button_pressed":10,"time_out":false,"dwell_time":63.662109375,"response_time":1706313125222.28},{"trial":4,"action":9,"button_pressed":-1,"time_out":false,"dwell_time":64.450927734375,"response_time":1706313125905.86},{"trial":5,"action":1,"button_pressed":0,"time_out":false,"dwell_time":81.68994140625,"response_time":1706313145999.72},{"trial":5,"action":1,"button_pressed":8,"time_out":false,"dwell_time":47.427978515625,"response_time":1706313146382.4},{"trial":5,"action":1,"button_pressed":5,"time_out":false,"dwell_time":47.672119140625,"response_time":1706313146682.32},{"trial":5,"action":1,"button_pressed":6,"time_out":false,"dwell_time":30.885986328125,"response_time":1706313147248.86},{"trial":5,"action":1,"button_pressed":10,"time_out":false,"dwell_time":46.948974609375,"response_time":1706313147865.33},{"trial":5,"action":1,"button_pressed":2,"time_out":false,"dwell_time":63.85986328125,"response_time":1706313148265.43},{"trial":5,"action":1,"button_pressed":9,"time_out":false,"dwell_time":48.26904296875,"response_time":1706313148665.8},{"trial":5,"action":9,"button_pressed":-1,"time_out":false,"dwell_time":14.444091796875,"response_time":1706313149314.67},{"trial":6,"action":1,"button_pressed":6,"time_out":false,"dwell_time":47.755859375,"response_time":1706313171808.29},{"trial":6,"action":1,"button_pressed":0,"time_out":false,"dwell_time":114.567138671875,"response_time":1706313172440.82},{"trial":6,"action":1,"button_pressed":5,"time_out":false,"dwell_time":80.615234375,"response_time":1706313172890.7},{"trial":6,"action":1,"button_pressed":3,"time_out":false,"dwell_time":63.818115234375,"response_time":1706313173389.66},{"trial":6,"action":1,"button_pressed":10,"time_out":false,"dwell_time":47.89111328125,"response_time":1706313174623.9},{"trial":6,"action":1,"button_pressed":8,"time_out":false,"dwell_time":63.601806640625,"response_time":1706313175073.09},{"trial":6,"action":1,"button_pressed":1,"time_out":false,"dwell_time":64.452880859375,"response_time":1706313175639.63},{"trial":6,"action":1,"button_pressed":7,"time_out":false,"dwell_time":47.14892578125,"response_time":1706313176223.29},{"trial":6,"action":9,"button_pressed":-1,"time_out":false,"dwell_time":15.924072265625,"response_time":1706313177090.33},{"trial":7,"action":1,"button_pressed":2,"time_out":false,"dwell_time":80.70703125,"response_time":1706313202696.9},{"trial":7,"action":1,"button_pressed":5,"time_out":false,"dwell_time":97.364990234375,"response_time":1706313203230.77},{"trial":7,"action":1,"button_pressed":9,"time_out":false,"dwell_time":47.507080078125,"response_time":1706313204880.58},{"trial":7,"action":1,"button_pressed":7,"time_out":false,"dwell_time":63.844970703125,"response_time":1706313205613.39},{"trial":7,"action":1,"button_pressed":3,"time_out":false,"dwell_time":31.205078125,"response_time":1706313206346.8},{"trial":7,"action":1,"button_pressed":11,"time_out":false,"dwell_time":47.56201171875,"response_time":1706313211460.9},{"trial":7,"action":1,"button_pressed":0,"time_out":false,"dwell_time":79.8359375,"response_time":1706313212593.51},{"trial":7,"action":1,"button_pressed":8,"time_out":false,"dwell_time":47.548095703125,"response_time":1706313214477.38},{"trial":7,"action":1,"button_pressed":1,"time_out":false,"dwell_time":47.532958984375,"response_time":1706313216543.39},{"trial":7,"action":9,"button_pressed":-1,"time_out":false,"dwell_time":49.2109375,"response_time":1706313217393.8},{"trial":8,"action":1,"button_pressed":11,"time_out":false,"dwell_time":80.474853515625,"response_time":1706313245149.39},{"trial":8,"action":1,"button_pressed":9,"time_out":false,"dwell_time":63.2939453125,"response_time":1706313245765.91},{"trial":8,"action":1,"button_pressed":0,"time_out":false,"dwell_time":79.748779296875,"response_time":1706313246399.07},{"trial":8,"action":1,"button_pressed":7,"time_out":false,"dwell_time":48.442138671875,"response_time":1706313249965.81},{"trial":8,"action":1,"button_pressed":10,"time_out":false,"dwell_time":130.69189453125,"response_time":1706313251864.57},{"trial":8,"action":1,"button_pressed":6,"time_out":false,"dwell_time":63.384033203125,"response_time":1706313256129},{"trial":8,"action":1,"button_pressed":1,"time_out":false,"dwell_time":47.5830078125,"response_time":1706313256513.5},{"trial":8,"action":1,"button_pressed":8,"time_out":false,"dwell_time":13.39697265625,"response_time":1706313256978.5},{"trial":8,"action":9,"button_pressed":-1,"time_out":false,"dwell_time":82.0751953125,"response_time":1706313257629.94},{"trial":9,"action":1,"button_pressed":3,"time_out":false,"dwell_time":63.4228515625,"response_time":1706313277472.23},{"trial":9,"action":1,"button_pressed":0,"time_out":false,"dwell_time":64.744140625,"response_time":1706313277772.77},{"trial":9,"action":1,"button_pressed":10,"time_out":false,"dwell_time":63.748046875,"response_time":1706313278171.84},{"trial":9,"action":1,"button_pressed":5,"time_out":false,"dwell_time":63.763916015625,"response_time":1706313278588.93},{"trial":9,"action":1,"button_pressed":4,"time_out":false,"dwell_time":81.363037109375,"response_time":1706313278938.99},{"trial":9,"action":1,"button_pressed":1,"time_out":false,"dwell_time":80.6240234375,"response_time":1706313279372.34},{"trial":9,"action":1,"button_pressed":2,"time_out":false,"dwell_time":79.780029296875,"response_time":1706313279804.86},{"trial":9,"action":9,"button_pressed":-1,"time_out":false,"dwell_time":81.0849609375,"response_time":1706313280171.57},{"trial":10,"action":1,"button_pressed":9,"time_out":false,"dwell_time":97.45703125,"response_time":1706313302264.32},{"trial":10,"action":1,"button_pressed":8,"time_out":false,"dwell_time":46.68994140625,"response_time":1706313302614.13},{"trial":10,"action":1,"button_pressed":10,"time_out":false,"dwell_time":46.93212890625,"response_time":1706313302830.9},{"trial":10,"action":1,"button_pressed":2,"time_out":false,"dwell_time":63.742919921875,"response_time":1706313303180.14},{"trial":10,"action":1,"button_pressed":4,"time_out":false,"dwell_time":81.52587890625,"response_time":1706313303481.25},{"trial":10,"action":1,"button_pressed":4,"time_out":false,"dwell_time":64.5810546875,"response_time":1706313304696.99},{"trial":10,"action":1,"button_pressed":4,"time_out":false,"dwell_time":47.055908203125,"response_time":1706313305963.13},{"trial":10,"action":0,"button_pressed":-1,"time_out":false,"dwell_time":16.339111328125,"response_time":1706313308061.86},{"trial":10,"action":1,"button_pressed":10,"time_out":false,"dwell_time":64.22900390625,"response_time":1706313309278.76},{"trial":10,"action":1,"button_pressed":2,"time_out":false,"dwell_time":80.89404296875,"response_time":1706313309662.46},{"trial":10,"action":1,"button_pressed":8,"time_out":false,"dwell_time":47.530029296875,"response_time":1706313310312.36},{"trial":10,"action":1,"button_pressed":9,"time_out":false,"dwell_time":47.580810546875,"response_time":1706313310694.78},{"trial":10,"action":1,"button_pressed":1,"time_out":false,"dwell_time":46.801025390625,"response_time":1706313313027.35},{"trial":10,"action":1,"button_pressed":0,"time_out":false,"dwell_time":63.85205078125,"response_time":1706313313859.92},{"trial":10,"action":1,"button_pressed":5,"time_out":false,"dwell_time":80.89404296875,"response_time":1706313314276.88},{"trial":10,"action":1,"button_pressed":4,"time_out":false,"dwell_time":63.614013671875,"response_time":1706313315842.62},{"trial":10,"action":9,"button_pressed":-1,"time_out":false,"dwell_time":31.537109375,"response_time":1706313316243.44},{"trial":11,"action":1,"button_pressed":5,"time_out":false,"dwell_time":47.299072265625,"response_time":1706313338668.99},{"trial":11,"action":1,"button_pressed":6,"time_out":false,"dwell_time":81.200927734375,"response_time":1706313339785.52},{"trial":11,"action":1,"button_pressed":11,"time_out":false,"dwell_time":63.909912109375,"response_time":1706313340051.52},{"trial":11,"action":1,"button_pressed":1,"time_out":false,"dwell_time":80.48193359375,"response_time":1706313340617.77},{"trial":11,"action":1,"button_pressed":4,"time_out":false,"dwell_time":30.233154296875,"response_time":1706313344966.69},{"trial":11,"action":1,"button_pressed":10,"time_out":false,"dwell_time":30.10595703125,"response_time":1706313345399.93},{"trial":11,"action":1,"button_pressed":7,"time_out":false,"dwell_time":64.52587890625,"response_time":1706313346016.79},{"trial":11,"action":1,"button_pressed":0,"time_out":false,"dwell_time":48.47705078125,"response_time":1706313347166.83},{"trial":11,"action":9,"button_pressed":-1,"time_out":false,"dwell_time":48.512939453125,"response_time":1706313348217.05},{"trial":12,"action":1,"button_pressed":8,"time_out":false,"dwell_time":80.1689453125,"response_time":1706313373007.41},{"trial":12,"action":1,"button_pressed":10,"time_out":false,"dwell_time":63.8671875,"response_time":1706313373257.86},{"trial":12,"action":1,"button_pressed":4,"time_out":false,"dwell_time":48.154052734375,"response_time":1706313373774.63},{"trial":12,"action":1,"button_pressed":1,"time_out":false,"dwell_time":63.736083984375,"response_time":1706313374457.18},{"trial":12,"action":1,"button_pressed":9,"time_out":false,"dwell_time":46.341064453125,"response_time":1706313378289.01},{"trial":12,"action":1,"button_pressed":0,"time_out":false,"dwell_time":47.455078125,"response_time":1706313380538.24},{"trial":12,"action":1,"button_pressed":2,"time_out":false,"dwell_time":63.875,"response_time":1706313380855.13},{"trial":12,"action":1,"button_pressed":7,"time_out":false,"dwell_time":30.85791015625,"response_time":1706313381272.12},{"trial":12,"action":9,"button_pressed":-1,"time_out":false,"dwell_time":31.8359375,"response_time":1706313382321.64},{"trial":13,"action":1,"button_pressed":1,"time_out":false,"dwell_time":114.080078125,"response_time":1706313407245.81},{"trial":13,"action":1,"button_pressed":7,"time_out":false,"dwell_time":46.748046875,"response_time":1706313407829.22},{"trial":13,"action":1,"button_pressed":10,"time_out":false,"dwell_time":97.932861328125,"response_time":1706313408179.63},{"trial":13,"action":1,"button_pressed":9,"time_out":false,"dwell_time":47.322998046875,"response_time":1706313408628.87},{"trial":13,"action":1,"button_pressed":6,"time_out":false,"dwell_time":63.55615234375,"response_time":1706313408978.48},{"trial":13,"action":1,"button_pressed":3,"time_out":false,"dwell_time":47.14404296875,"response_time":1706313409195.6},{"trial":13,"action":1,"button_pressed":4,"time_out":false,"dwell_time":48.412841796875,"response_time":1706313409762.61},{"trial":13,"action":1,"button_pressed":2,"time_out":false,"dwell_time":63.86181640625,"response_time":1706313410777.84},{"trial":13,"action":9,"button_pressed":-1,"time_out":false,"dwell_time":48.027099609375,"response_time":1706313411611.75}]}