{"meta_data":{"additional_headers":{},"game_name":"Recollect","version":"2.53.01","user_name":"158","organization":"braingamecenter","study":"mpl2_2022_11","session_number":0,"device_id":"74342D95-EE82-45E3-8ADF-48FB3203C5DD"},"data":[{"stage":"Practice","trial":0,"sequence":"6F","letter_input":"F","number_input":"6","is_correct":true,"presentation_start_time":1706571895893.14,"presentation_end_time":1706571898895.74,"response_time":1706571909290.51},{"stage":"Practice","trial":1,"sequence":"G4","letter_input":"G","number_input":"4","is_correct":true,"presentation_start_time":1706571910821.58,"presentation_end_time":1706571913824.31,"response_time":1706571919818.78},{"stage":"Practice","trial":2,"sequence":"3W5","letter_input":"W","number_input":"35","is_correct":true,"presentation_start_time":1706571921351.47,"presentation_end_time":1706571925853.81,"response_time":1706571930931.85},{"stage":"Practice","trial":3,"sequence":"T7L","letter_input":"LT","number_input":"7","is_correct":true,"presentation_start_time":1706571932464.49,"presentation_end_time":1706571936966.69,"response_time":1706571942594.69},{"stage":"Practice","trial":4,"sequence":"9J1","letter_input":"J","number_input":"19","is_correct":true,"presentation_start_time":1706571944127.36,"presentation_end_time":1706571948629.72,"response_time":1706571953191.16},{"stage":"Calibration","trial":0,"sequence":"2S","letter_input":"S","number_input":"2","is_correct":true,"presentation_start_time":1706571962004.88,"presentation_end_time":1706571965007.53,"response_time":1706571968502.8},{"stage":"Calibration","trial":1,"sequence":"C9","letter_input":"C","number_input":"9","is_correct":true,"presentation_start_time":1706571970035.55,"presentation_end_time":1706571973038.19,"response_time":1706571976383.66},{"stage":"Calibration","trial":2,"sequence":"7P5","letter_input":"P","number_input":"57","is_correct":true,"presentation_start_time":1706571977916.33,"presentation_end_time":1706571982418.61,"response_time":1706571986030.51},{"stage":"Calibration","trial":3,"sequence":"S4A","letter_input":"AS","number_input":"4","is_correct":true,"presentation_start_time":1706571987563.24,"presentation_end_time":1706571992065.44,"response_time":1706571997176.8},{"stage":"Calibration","trial":4,"sequence":"8Q3G","letter_input":"GQ","number_input":"38","is_correct":true,"presentation_start_time":1706571998709.51,"presentation_end_time":1706572004711.46,"response_time":1706572010772.36},{"stage":"Calibration","trial":5,"sequence":"M7K5","letter_input":"KM","number_input":"57","is_correct":true,"presentation_start_time":1706572012305.05,"presentation_end_time":1706572018306.83,"response_time":1706572028283.3},{"stage":"Calibration","trial":6,"sequence":"4Y2D9","letter_input":"DY","number_input":"249","is_correct":true,"presentation_start_time":1706572029816.03,"presentation_end_time":1706572037317.29,"response_time":1706572047543.71},{"stage":"Calibration","trial":7,"sequence":"H5B1M","letter_input":"BHN","number_input":"15","is_correct":false,"presentation_start_time":1706572049076.4,"presentation_end_time":1706572056577.72,"response_time":1706572069736.42},{"stage":"Calibration","trial":8,"sequence":"7W3N9A","letter_input":"ANW","number_input":"379","is_correct":true,"presentation_start_time":1706572071269.2,"presentation_end_time":1706572080269.67,"response_time":1706572093245.38},{"stage":"Calibration","trial":9,"sequence":"Z4H2F8","letter_input":"FHZ","number_input":"248","is_correct":true,"presentation_start_time":1706572094778.21,"presentation_end_time":1706572103778.89,"response_time":1706572129433.61},{"stage":"Calibration","trial":10,"sequence":"7G1C9Q3","letter_input":"GQ","number_input":"1379","is_correct":false,"presentation_start_time":1706572130966.26,"presentation_end_time":1706572141466.53,"response_time":1706572165571.77},{"stage":"Calibration","trial":11,"sequence":"T5K2B8P","letter_input":"BTK","number_input":"258","is_correct":false,"presentation_start_time":1706572167104.55,"presentation_end_time":1706572177604.73,"response_time":1706572196311.66}]}