{"meta_data":{"additional_headers":{},"game_name":"Recollect","version":"2.53.01","user_name":"158","organization":"braingamecenter","study":"mpl2_2022_11","session_number":0,"device_id":"74342D95-EE82-45E3-8ADF-48FB3203C5DD"},"data":[{"trial":0,"action":1,"button_pressed":4,"time_out":false,"dwell_time":47.9150390625,"response_time":1706571523983.34},{"trial":0,"action":1,"button_pressed":11,"time_out":false,"dwell_time":46.89794921875,"response_time":1706571524383.1},{"trial":0,"action":9,"button_pressed":-1,"time_out":false,"dwell_time":57.93798828125,"response_time":1706571524959.72},{"trial":1,"action":1,"button_pressed":7,"time_out":false,"dwell_time":81.56982421875,"response_time":1706571534563.65},{"trial":1,"action":1,"button_pressed":3,"time_out":false,"dwell_time":80.494140625,"response_time":1706571535112.49},{"trial":1,"action":1,"button_pressed":2,"time_out":false,"dwell_time":62.902099609375,"response_time":1706571535579},{"trial":1,"action":9,"button_pressed":-1,"time_out":false,"dwell_time":47.52001953125,"response_time":1706571536013.09},{"trial":2,"action":1,"button_pressed":2,"time_out":false,"dwell_time":64.234130859375,"response_time":1706571547808.57},{"trial":2,"action":1,"button_pressed":4,"time_out":false,"dwell_time":80.501953125,"response_time":1706571548258.91},{"trial":2,"action":1,"button_pressed":10,"time_out":false,"dwell_time":63.153076171875,"response_time":1706571548724.79},{"trial":2,"action":1,"button_pressed":5,"time_out":false,"dwell_time":64.118896484375,"response_time":1706571549208.02},{"trial":2,"action":9,"button_pressed":-1,"time_out":false,"dwell_time":65.173095703125,"response_time":1706571549658.85},{"trial":3,"action":1,"button_pressed":0,"time_out":false,"dwell_time":30.5859375,"response_time":1706571564153.64},{"trial":3,"action":1,"button_pressed":7,"time_out":false,"dwell_time":46.766845703125,"response_time":1706571564520.1},{"trial":3,"action":1,"button_pressed":10,"time_out":false,"dwell_time":81.201171875,"response_time":1706571565003.49},{"trial":3,"action":1,"button_pressed":4,"time_out":false,"dwell_time":46.998046875,"response_time":1706571565353.12},{"trial":3,"action":1,"button_pressed":1,"time_out":false,"dwell_time":31.051025390625,"response_time":1706571565669.74},{"trial":3,"action":9,"button_pressed":-1,"time_out":false,"dwell_time":31.6630859375,"response_time":1706571566119.98},{"trial":4,"action":1,"button_pressed":11,"time_out":false,"dwell_time":63.887939453125,"response_time":1706571583281},{"trial":4,"action":1,"button_pressed":8,"time_out":false,"dwell_time":63.06005859375,"response_time":1706571583496.82},{"trial":4,"action":1,"button_pressed":6,"time_out":false,"dwell_time":80.26708984375,"response_time":1706571583746.58},{"trial":4,"action":1,"button_pressed":4,"time_out":false,"dwell_time":63.884033203125,"response_time":1706571584013.98},{"trial":4,"action":1,"button_pressed":1,"time_out":false,"dwell_time":81.426025390625,"response_time":1706571584430.48},{"trial":4,"action":1,"button_pressed":10,"time_out":false,"dwell_time":30.955078125,"response_time":1706571584814.15},{"trial":4,"action":9,"button_pressed":-1,"time_out":false,"dwell_time":80.171875,"response_time":1706571585380},{"trial":5,"action":1,"button_pressed":6,"time_out":false,"dwell_time":63.594970703125,"response_time":1706571604907.16},{"trial":5,"action":1,"button_pressed":10,"time_out":false,"dwell_time":47.638916015625,"response_time":1706571605173.41},{"trial":5,"action":1,"button_pressed":11,"time_out":false,"dwell_time":63.673095703125,"response_time":1706571605473.44},{"trial":5,"action":1,"button_pressed":4,"time_out":false,"dwell_time":47.971923828125,"response_time":1706571605823.44},{"trial":5,"action":1,"button_pressed":8,"time_out":false,"dwell_time":64.405029296875,"response_time":1706571606156.55},{"trial":5,"action":1,"button_pressed":3,"time_out":false,"dwell_time":47.715087890625,"response_time":1706571606423.69},{"trial":5,"action":1,"button_pressed":5,"time_out":false,"dwell_time":47.68603515625,"response_time":1706571606672.72},{"trial":5,"action":9,"button_pressed":-1,"time_out":false,"dwell_time":65.43701171875,"response_time":1706571607306.71},{"trial":6,"action":1,"button_pressed":10,"time_out":false,"dwell_time":81.4609375,"response_time":1706571629582.46},{"trial":6,"action":1,"button_pressed":2,"time_out":false,"dwell_time":47.06298828125,"response_time":1706571630015.27},{"trial":6,"action":1,"button_pressed":1,"time_out":false,"dwell_time":97.285888671875,"response_time":1706571630481.34},{"trial":6,"action":1,"button_pressed":9,"time_out":false,"dwell_time":46.84912109375,"response_time":1706571631031.49},{"trial":6,"action":1,"button_pressed":8,"time_out":false,"dwell_time":63.682861328125,"response_time":1706571633464.27},{"trial":6,"action":1,"button_pressed":11,"time_out":false,"dwell_time":48.35498046875,"response_time":1706571640662.52},{"trial":6,"action":1,"button_pressed":4,"time_out":false,"dwell_time":80.466796875,"response_time":1706571640995.32},{"trial":6,"action":1,"button_pressed":4,"time_out":false,"dwell_time":63.864013671875,"response_time":1706571642161.47},{"trial":6,"action":1,"button_pressed":5,"time_out":false,"dwell_time":30.1611328125,"response_time":1706571643860.64},{"trial":6,"action":9,"button_pressed":-1,"time_out":false,"dwell_time":65.473876953125,"response_time":1706571644528.02},{"trial":7,"action":1,"button_pressed":2,"time_out":false,"dwell_time":64.2490234375,"response_time":1706571666586.38},{"trial":7,"action":1,"button_pressed":4,"time_out":false,"dwell_time":64.593994140625,"response_time":1706571666953.39},{"trial":7,"action":1,"button_pressed":11,"time_out":false,"dwell_time":63.781005859375,"response_time":1706571667303.24},{"trial":7,"action":1,"button_pressed":6,"time_out":false,"dwell_time":64.27197265625,"response_time":1706571673134.63},{"trial":7,"action":1,"button_pressed":5,"time_out":false,"dwell_time":63.701171875,"response_time":1706571676616.83},{"trial":7,"action":1,"button_pressed":10,"time_out":false,"dwell_time":47.284912109375,"response_time":1706571677000.6},{"trial":7,"action":1,"button_pressed":3,"time_out":false,"dwell_time":48.2099609375,"response_time":1706571677250.58},{"trial":7,"action":9,"button_pressed":-1,"time_out":false,"dwell_time":82.005859375,"response_time":1706571677767.1},{"trial":8,"action":1,"button_pressed":5,"time_out":false,"dwell_time":80.963134765625,"response_time":1706571695227.03},{"trial":8,"action":1,"button_pressed":10,"time_out":false,"dwell_time":46.9521484375,"response_time":1706571695610.61},{"trial":8,"action":1,"button_pressed":7,"time_out":false,"dwell_time":47.60107421875,"response_time":1706571695877.79},{"trial":8,"action":1,"button_pressed":4,"time_out":false,"dwell_time":46.947021484375,"response_time":1706571696226.9},{"trial":8,"action":1,"button_pressed":0,"time_out":false,"dwell_time":47.173828125,"response_time":1706571696527.09},{"trial":8,"action":1,"button_pressed":8,"time_out":false,"dwell_time":46.635986328125,"response_time":1706571696876.78},{"trial":8,"action":9,"button_pressed":-1,"time_out":false,"dwell_time":65.18115234375,"response_time":1706571697543.88},{"trial":9,"action":1,"button_pressed":10,"time_out":false,"dwell_time":148.34912109375,"response_time":1706571718153.69},{"trial":9,"action":1,"button_pressed":1,"time_out":false,"dwell_time":96.31005859375,"response_time":1706571718552.53},{"trial":9,"action":1,"button_pressed":2,"time_out":false,"dwell_time":98.386962890625,"response_time":1706571718853.46},{"trial":9,"action":1,"button_pressed":7,"time_out":false,"dwell_time":47.56005859375,"response_time":1706571719170.3},{"trial":9,"action":1,"button_pressed":6,"time_out":false,"dwell_time":63.62109375,"response_time":1706571719552.22},{"trial":9,"action":1,"button_pressed":0,"time_out":false,"dwell_time":46.6728515625,"response_time":1706571719852.51},{"trial":9,"action":1,"button_pressed":4,"time_out":false,"dwell_time":47.622802734375,"response_time":1706571720053.28},{"trial":9,"action":9,"button_pressed":-1,"time_out":false,"dwell_time":16.48291015625,"response_time":1706571720535.52},{"trial":10,"action":1,"button_pressed":10,"time_out":false,"dwell_time":30.241943359375,"response_time":1706571744861.22},{"trial":10,"action":1,"button_pressed":2,"time_out":false,"dwell_time":46.932861328125,"response_time":1706571745244.27},{"trial":10,"action":1,"button_pressed":9,"time_out":false,"dwell_time":47.5830078125,"response_time":1706571745694.86},{"trial":10,"action":1,"button_pressed":8,"time_out":false,"dwell_time":81.18701171875,"response_time":1706571746027.71},{"trial":10,"action":1,"button_pressed":1,"time_out":false,"dwell_time":97.173095703125,"response_time":1706571746610.78},{"trial":10,"action":1,"button_pressed":0,"time_out":false,"dwell_time":31.014892578125,"response_time":1706571747443.5},{"trial":10,"action":1,"button_pressed":5,"time_out":false,"dwell_time":46.943115234375,"response_time":1706571747760.19},{"trial":10,"action":9,"button_pressed":-1,"time_out":false,"dwell_time":115.31591796875,"response_time":1706571748177.44},{"trial":11,"action":1,"button_pressed":4,"time_out":false,"dwell_time":81.60107421875,"response_time":1706571770386.5},{"trial":11,"action":1,"button_pressed":11,"time_out":false,"dwell_time":63.199951171875,"response_time":1706571770602.26},{"trial":11,"action":1,"button_pressed":7,"time_out":false,"dwell_time":63.532958984375,"response_time":1706571770918.78},{"trial":11,"action":1,"button_pressed":0,"time_out":false,"dwell_time":81.365966796875,"response_time":1706571771169.53},{"trial":11,"action":1,"button_pressed":2,"time_out":false,"dwell_time":79.9228515625,"response_time":1706571771452.01},{"trial":11,"action":1,"button_pressed":1,"time_out":false,"dwell_time":64.166015625,"response_time":1706571771752.07},{"trial":11,"action":1,"button_pressed":3,"time_out":false,"dwell_time":46.7890625,"response_time":1706571772018.9},{"trial":11,"action":1,"button_pressed":9,"time_out":false,"dwell_time":63.2490234375,"response_time":1706571772318.5},{"trial":11,"action":9,"button_pressed":-1,"time_out":false,"dwell_time":16.5830078125,"response_time":1706571772885.1},{"trial":12,"action":1,"button_pressed":5,"time_out":false,"dwell_time":47.72607421875,"response_time":1706571797243.96},{"trial":12,"action":1,"button_pressed":11,"time_out":false,"dwell_time":63.6708984375,"response_time":1706571797560.08},{"trial":12,"action":1,"button_pressed":3,"time_out":false,"dwell_time":47.623046875,"response_time":1706571797927.02},{"trial":12,"action":1,"button_pressed":4,"time_out":false,"dwell_time":63.8779296875,"response_time":1706571798160.87},{"trial":12,"action":1,"button_pressed":8,"time_out":false,"dwell_time":62.901123046875,"response_time":1706571798393.33},{"trial":12,"action":1,"button_pressed":7,"time_out":false,"dwell_time":63.7109375,"response_time":1706571798610.68},{"trial":12,"action":1,"button_pressed":2,"time_out":false,"dwell_time":80.587890625,"response_time":1706571798826.41},{"trial":12,"action":1,"button_pressed":10,"time_out":false,"dwell_time":80.73583984375,"response_time":1706571799227.15},{"trial":12,"action":1,"button_pressed":9,"time_out":false,"dwell_time":30.989013671875,"response_time":1706571799543.3},{"trial":12,"action":9,"button_pressed":-1,"time_out":false,"dwell_time":16.539794921875,"response_time":1706571800142.86},{"trial":13,"action":1,"button_pressed":10,"time_out":false,"dwell_time":80.455078125,"response_time":1706571827901.08},{"trial":13,"action":1,"button_pressed":6,"time_out":false,"dwell_time":80.22900390625,"response_time":1706571828150.9},{"trial":13,"action":1,"button_pressed":4,"time_out":false,"dwell_time":97.723876953125,"response_time":1706571828450.89},{"trial":13,"action":1,"button_pressed":11,"time_out":false,"dwell_time":47.6171875,"response_time":1706571831882.66},{"trial":13,"action":1,"button_pressed":1,"time_out":false,"dwell_time":46.719970703125,"response_time":1706571834565.1},{"trial":13,"action":1,"button_pressed":8,"time_out":false,"dwell_time":80.359130859375,"response_time":1706571834798.09},{"trial":13,"action":1,"button_pressed":2,"time_out":false,"dwell_time":98.2060546875,"response_time":1706571835065.48},{"trial":13,"action":9,"button_pressed":-1,"time_out":false,"dwell_time":47.833984375,"response_time":1706571836131.84},{"trial":14,"action":1,"button_pressed":9,"time_out":false,"dwell_time":64.289794921875,"response_time":1706571863505.44},{"trial":14,"action":1,"button_pressed":8,"time_out":false,"dwell_time":81.239990234375,"response_time":1706571863939.09},{"trial":14,"action":1,"button_pressed":5,"time_out":false,"dwell_time":97.875,"response_time":1706571864339.06},{"trial":14,"action":1,"button_pressed":1,"time_out":false,"dwell_time":96.60498046875,"response_time":1706571865771.22},{"trial":14,"action":1,"button_pressed":10,"time_out":false,"dwell_time":63.658935546875,"response_time":1706571866321.01},{"trial":14,"action":1,"button_pressed":11,"time_out":false,"dwell_time":80.388916015625,"response_time":1706571867204.69},{"trial":14,"action":1,"button_pressed":4,"time_out":false,"dwell_time":79.862060546875,"response_time":1706571868970.15},{"trial":14,"action":1,"button_pressed":0,"time_out":false,"dwell_time":63.94921875,"response_time":1706571869154.33},{"trial":14,"action":9,"button_pressed":-1,"time_out":false,"dwell_time":80.444091796875,"response_time":1706571869520.45}]}