Audio_Only_Files,Video_Files,Original_Word_List,noiseLevelCode,conditionCodes,noiseLevelFile1,noiseLevelFile2,InstrTextVar,targetSpeakerName,targetSpeakerEccen,targetSpkrChannel,targetSpkrSound,targetVisualDegrees,visStimLoc,visStimLoc2,visStimW,visStimH,practiceTrials.thisRepN,practiceTrials.thisTrialN,practiceTrials.thisN,practiceTrials.thisIndex,trials.thisRepN,trials.thisTrialN,trials.thisN,trials.thisIndex,audLocalLoop.thisRepN,audLocalLoop.thisTrialN,audLocalLoop.thisN,audLocalLoop.thisIndex,visualLocalLoop.thisRepN,visualLocalLoop.thisTrialN,visualLocalLoop.thisN,visualLocalLoop.thisIndex,letsGoAlready.keys,letsGoAlready.rt,letsGoAlready.started,letsGoAlready.stopped,text_2.started,text_2.stopped,text_3.started,text_3.stopped,key_resp_2.keys,key_resp_2.rt,key_resp_2.started,key_resp_2.stopped,text_5.started,text_5.stopped,fixCross.started,fixCross.stopped,fixCross2.started,fixCross2.stopped,answerPrompt.started,answerPrompt.stopped,getAnswer.text,getAnswer.started,getAnswer.stopped,goToNext.keys,goToNext.rt,goToNext.started,goToNext.stopped,stretchBreakTxrt.started,stretchBreakTxrt.stopped,key_resp_3.keys,key_resp_3.rt,key_resp_3.started,key_resp_3.stopped,letsGoLocal.keys,letsGoLocal.rt,letsGoLocal.started,letsGoLocal.stopped,text_4.started,text_4.stopped,prepFixTxt.started,prepFixTxt.stopped,prepFixTxt_2.started,prepFixTxt_2.stopped,respPromptLocal.started,respPromptLocal.stopped,slider.response,slider.rt,slider.started,slider.stopped,letsGoLocal_2.keys,letsGoLocal_2.rt,letsGoLocal_2.started,letsGoLocal_2.stopped,text_7.started,text_7.stopped,prepFixTxt_3.started,prepFixTxt_3.stopped,grating.started,grating.stopped,exitTxt.started,exitTxt.stopped,key_resp.keys,key_resp.rt,key_resp.started,key_resp.stopped,participant,session,date,expName,psychopyVersion,frameRate,
,,,,,,,,,,,,,,,,,,,,,,,,,,,,,,,,,space,111.48970902897418,15.034152407664806,None,,,,,,,,,,,,,,,,,,,,,,,,,,,,,,,,,,,,,,,,,,,,,,,,,,,,,,,,,,,,,,159,001,2024_Jan_30_1548,SpeechDraft1Carolyn_lessNoise_PlusLocalization,2021.2.3,60.036862830597734,
,,,,,,,,,,,,,,,,,,,,,,,,,,,,,,,,,,,,,15.034152407664806,None,126.6500292448327,None,space,9.434845447074622,126.83303087577224,None,,,,,,,,,,,,,,,,,,,,,,,,,,,,,,,,,,,,,,,,,,,,,,,,,,,,,,159,001,2024_Jan_30_1548,SpeechDraft1Carolyn_lessNoise_PlusLocalization,2021.2.3,60.036862830597734,
ash.wav,ash.mpg,ash,1,A,Pink_Noise_1_1.wav,Pink_Noise_1_2.wav,"This is an example of an

AUDIO trial",,,,,,,,,,0,0,0,0,,,,,,,,,,,,,,,,,,,,,,,,,136.33273064205423,None,137.31637758389115,None,140.63262808974832,None,142.0165611836128,None,ash,142.0165611836128,None,return,4.256507609970868,142.0995192429982,None,,,,,,,,,,,,,,,,,,,,,,,,,,,,,,,,,,,,,,,159,001,2024_Jan_30_1548,SpeechDraft1Carolyn_lessNoise_PlusLocalization,2021.2.3,60.036862830597734,
ash.wav,ash.mpg,ash,1,AV,Pink_Noise_1_1.wav,Pink_Noise_1_2.wav,"This is an example of an

AUDIO + VIDEO  trial",,,,,,,,,,0,1,1,1,,,,,,,,,,,,,,,,,,,,,,,,,146.3992854738608,None,147.39968353463337,None,148.8841107878834,None,150.26617911783978,None,ash,150.26617911783978,None,return,6.694316451903433,150.3495562216267,None,,,,,,,,,,,,,,,,,,,,,,,,,,,,,,,,,,,,,,,159,001,2024_Jan_30_1548,SpeechDraft1Carolyn_lessNoise_PlusLocalization,2021.2.3,60.036862830597734,
,,,,,,,,,,,,,,,,,,,,,,,,,,,,,,,,,,,,,,,,,,,,,,,,,,,,,,,,,,,,157.08275156188756,None,space,4.905488861724734,157.2663983637467,None,,,,,,,,,,,,,,,,,,,,,,,,,,,,,,,,,159,001,2024_Jan_30_1548,SpeechDraft1Carolyn_lessNoise_PlusLocalization,2021.2.3,60.036862830597734,
bad.wav,bad.mpg,bad,3,AV,Pink_Noise_3_1.wav,Pink_Noise_3_2.wav,,,,,,,,,,,,,,,0,0,0,72,,,,,,,,,,,,,,,,,,,,,,,162.23270323267207,None,163.71586793288589,None,165.09964455477893,None,bag,165.09964455477893,None,return,3.7408100590109825,165.18310003587976,None,,,,,,,,,,,,,,,,,,,,,,,,,,,,,,,,,,,,,,,159,001,2024_Jan_30_1548,SpeechDraft1Carolyn_lessNoise_PlusLocalization,2021.2.3,60.036862830597734,
pact.wav,pact.mpg,pact,5,AV,Pink_Noise_5_1.wav,Pink_Noise_5_2.wav,,,,,,,,,,,,,,,0,1,1,82,,,,,,,,,,,,,,,,,,,,,,,168.94958323100582,None,170.44934830162674,None,171.83311775466427,None,"bat
",171.83311775466427,None,return,1.3834668179042637,171.9163808086887,None,,,,,,,,,,,,,,,,,,,,,,,,,,,,,,,,,,,,,,,159,001,2024_Jan_30_1548,SpeechDraft1Carolyn_lessNoise_PlusLocalization,2021.2.3,60.036862830597734,
fold.wav,fold.mpg,fold,3,AV,Pink_Noise_3_1.wav,Pink_Noise_3_2.wav,,,,,,,,,,,,,,,0,2,2,106,,,,,,,,,,,,,,,,,,,,,,,173.33311994280666,None,174.83258683793247,None,176.21620046999305,None,"stpr,",176.21620046999305,None,return,6.407998623792082,176.2998728826642,None,,,,,,,,,,,,,,,,,,,,,,,,,,,,,,,,,,,,,,,159,001,2024_Jan_30_1548,SpeechDraft1Carolyn_lessNoise_PlusLocalization,2021.2.3,60.036862830597734,
bar.wav,bar.mpg,bar,3,AV,Pink_Noise_3_1.wav,Pink_Noise_3_2.wav,,,,,,,,,,,,,,,0,3,3,76,,,,,,,,,,,,,,,,,,,,,,,182.73309597885236,None,184.23284595878795,None,185.61652368074283,None,bar,185.61652368074283,None,return,0.7921946947462857,185.69968838291243,None,,,,,,,,,,,,,,,,,,,,,,,,,,,,,,,,,,,,,,,159,001,2024_Jan_30_1548,SpeechDraft1Carolyn_lessNoise_PlusLocalization,2021.2.3,60.036862830597734,
glad.wav,glad.mpg,glad,6,A,Pink_Noise_6_1.wav,Pink_Noise_6_2.wav,,,,,,,,,,,,,,,0,4,4,52,,,,,,,,,,,,,,,,,,,,,,,186.51645366474986,None,188.01604913687333,None,189.3997186277993,None,"red
",189.3997186277993,None,return,2.736943169031292,189.48293322883546,None,,,,,,,,,,,,,,,,,,,,,,,,,,,,,,,,,,,,,,,159,001,2024_Jan_30_1548,SpeechDraft1Carolyn_lessNoise_PlusLocalization,2021.2.3,60.036862830597734,
hike.wav,hike.mpg,hike,5,A,Pink_Noise_5_1.wav,Pink_Noise_5_2.wav,,,,,,,,,,,,,,,0,5,5,4,,,,,,,,,,,,,,,,,,,,,,,192.2495512929745,None,193.74939656769857,None,195.1330697829835,None,us,195.1330697829835,None,return,2.107549767009914,195.21637477492914,None,,,,,,,,,,,,,,,,,,,,,,,,,,,,,,,,,,,,,,,159,001,2024_Jan_30_1548,SpeechDraft1Carolyn_lessNoise_PlusLocalization,2021.2.3,60.036862830597734,
clay.wav,clay.mpg,clay,6,A,Pink_Noise_6_1.wav,Pink_Noise_6_2.wav,,,,,,,,,,,,,,,0,6,6,1,,,,,,,,,,,,,,,,,,,,,,,197.3495720559731,None,198.83402031380683,None,200.21647084876895,None,red,200.21647084876895,None,return,0.7920848489739001,200.29979056306183,None,,,,,,,,,,,,,,,,,,,,,,,,,,,,,,,,,,,,,,,159,001,2024_Jan_30_1548,SpeechDraft1Carolyn_lessNoise_PlusLocalization,2021.2.3,60.036862830597734,
pledge.wav,pledge.mpg,pledge,3,A,Pink_Noise_3_1.wav,Pink_Noise_3_2.wav,,,,,,,,,,,,,,,0,7,7,54,,,,,,,,,,,,,,,,,,,,,,,201.11622738000005,None,202.61608046106994,None,203.9998017209582,None,flush,203.9998017209582,None,return,1.224682163912803,204.08318208064884,None,,,,,,,,,,,,,,,,,,,,,,,,,,,,,,,,,,,,,,,159,001,2024_Jan_30_1548,SpeechDraft1Carolyn_lessNoise_PlusLocalization,2021.2.3,60.036862830597734,
gym.wav,gym.mpg,gym,5,A,Pink_Noise_5_1.wav,Pink_Noise_5_2.wav,,,,,,,,,,,,,,,0,8,8,9,,,,,,,,,,,,,,,,,,,,,,,205.3331195479259,None,206.83261856995523,None,208.2164788809605,None,jay,208.2164788809605,None,return,5.976010467857122,208.2998608360067,None,,,,,,,,,,,,,,,,,,,,,,,,,,,,,,,,,,,,,,,159,001,2024_Jan_30_1548,SpeechDraft1Carolyn_lessNoise_PlusLocalization,2021.2.3,60.036862830597734,
bride.wav,bride.mpg,bride,4,AV,Pink_Noise_4_1.wav,Pink_Noise_4_2.wav,,,,,,,,,,,,,,,0,9,9,65,,,,,,,,,,,,,,,,,,,,,,,214.2998485257849,None,215.7993925898336,None,217.18278997205198,None,bride,217.18278997205198,None,return,1.0897708577103913,217.26625179080293,None,,,,,,,,,,,,,,,,,,,,,,,,,,,,,,,,,,,,,,,159,001,2024_Jan_30_1548,SpeechDraft1Carolyn_lessNoise_PlusLocalization,2021.2.3,60.036862830597734,
fly.wav,fly.mpg,fly,5,A,Pink_Noise_5_1.wav,Pink_Noise_5_2.wav,,,,,,,,,,,,,,,0,10,10,24,,,,,,,,,,,,,,,,,,,,,,,218.38294870965183,None,219.88260274985805,None,221.26647947682068,None,right,221.26647947682068,None,return,1.3821461698971689,221.3497797176242,None,,,,,,,,,,,,,,,,,,,,,,,,,,,,,,,,,,,,,,,159,001,2024_Jan_30_1548,SpeechDraft1Carolyn_lessNoise_PlusLocalization,2021.2.3,60.036862830597734,
dove.wav,dove.mpg,dove,5,A,Pink_Noise_5_1.wav,Pink_Noise_5_2.wav,,,,,,,,,,,,,,,0,11,11,21,,,,,,,,,,,,,,,,,,,,,,,222.7497329209,None,224.249500494916,None,225.6330017070286,None,duck,225.6330017070286,None,return,2.6315350821241736,225.7164154178463,None,,,,,,,,,,,,,,,,,,,,,,,,,,,,,,,,,,,,,,,159,001,2024_Jan_30_1548,SpeechDraft1Carolyn_lessNoise_PlusLocalization,2021.2.3,60.036862830597734,
drunk.wav,drunk.mpg,drunk,6,A,Pink_Noise_6_1.wav,Pink_Noise_6_2.wav,,,,,,,,,,,,,,,0,12,12,41,,,,,,,,,,,,,,,,,,,,,,,228.366389982868,None,229.86605469463393,None,231.2496133847162,None,rush,231.2496133847162,None,return,1.0546622560359538,231.33321883482859,None,,,,,,,,,,,,,,,,,,,,,,,,,,,,,,,,,,,,,,,159,001,2024_Jan_30_1548,SpeechDraft1Carolyn_lessNoise_PlusLocalization,2021.2.3,60.036862830597734,
tank.wav,tank.mpg,tank,6,A,Pink_Noise_6_1.wav,Pink_Noise_6_2.wav,,,,,,,,,,,,,,,0,13,13,39,,,,,,,,,,,,,,,,,,,,,,,232.41623762296513,None,233.91600791877136,None,235.29962300183252,None,"blush
",235.29962300183252,None,return,1.2689315020106733,235.382952301763,None,,,,,,,,,,,,,,,,,,,,,,,,,,,,,,,,,,,,,,,159,001,2024_Jan_30_1548,SpeechDraft1Carolyn_lessNoise_PlusLocalization,2021.2.3,60.036862830597734,
quart.wav,quart.mpg,quart,2,A,Pink_Noise_2_1.wav,Pink_Noise_2_2.wav,,,,,,,,,,,,,,,0,14,14,20,,,,,,,,,,,,,,,,,,,,,,,236.68319643381983,None,238.18261595861986,None,239.56651062797755,None,"court
",239.56651062797755,None,return,1.050171460956335,239.6496942648664,None,,,,,,,,,,,,,,,,,,,,,,,,,,,,,,,,,,,,,,,159,001,2024_Jan_30_1548,SpeechDraft1Carolyn_lessNoise_PlusLocalization,2021.2.3,60.036862830597734,
bath.wav,bath.mpg,bath,6,A,Pink_Noise_6_1.wav,Pink_Noise_6_2.wav,,,,,,,,,,,,,,,0,15,15,48,,,,,,,,,,,,,,,,,,,,,,,240.73294878890738,None,242.23294846806675,None,243.61653562169522,None,"ash
",243.61653562169522,None,return,0.7523073279298842,243.69956828886643,None,,,,,,,,,,,,,,,,,,,,,,,,,,,,,,,,,,,,,,,159,001,2024_Jan_30_1548,SpeechDraft1Carolyn_lessNoise_PlusLocalization,2021.2.3,60.036862830597734,
cheat.wav,cheat.mpg,cheat,1,AV,Pink_Noise_1_1.wav,Pink_Noise_1_2.wav,,,,,,,,,,,,,,,0,16,16,116,,,,,,,,,,,,,,,,,,,,,,,244.48297228803858,None,245.98281912365928,None,247.3663191339001,None,"cheat
",247.3663191339001,None,return,0.8181867417879403,247.4496874329634,None,,,,,,,,,,,,,,,,,,,,,,,,,,,,,,,,,,,,,,,159,001,2024_Jan_30_1548,SpeechDraft1Carolyn_lessNoise_PlusLocalization,2021.2.3,60.036862830597734,
wheat.wav,wheat.mpg,wheat,3,A,Pink_Noise_3_1.wav,Pink_Noise_3_2.wav,,,,,,,,,,,,,,,0,17,17,14,,,,,,,,,,,,,,,,,,,,,,,248.29982533073053,None,249.7997801587917,None,251.1830916260369,None,"treat
",251.1830916260369,None,return,2.7532704481855035,251.266601908952,None,,,,,,,,,,,,,,,,,,,,,,,,,,,,,,,,,,,,,,,159,001,2024_Jan_30_1548,SpeechDraft1Carolyn_lessNoise_PlusLocalization,2021.2.3,60.036862830597734,
dive.wav,dive.mpg,dive,6,AV,Pink_Noise_6_1.wav,Pink_Noise_6_2.wav,,,,,,,,,,,,,,,0,18,18,115,,,,,,,,,,,,,,,,,,,,,,,254.04983464302495,None,255.54940490378067,None,256.93319342983887,None,life,256.93319342983887,None,return,1.7636623228900135,257.0162978018634,None,,,,,,,,,,,,,,,,,,,,,,,,,,,,,,,,,,,,,,,159,001,2024_Jan_30_1548,SpeechDraft1Carolyn_lessNoise_PlusLocalization,2021.2.3,60.036862830597734,
blend.wav,blend.mpg,blend,5,AV,Pink_Noise_5_1.wav,Pink_Noise_5_2.wav,,,,,,,,,,,,,,,0,19,19,81,,,,,,,,,,,,,,,,,,,,,,,258.7997481287457,None,260.29932000581175,None,261.68298019096255,None,blank,261.68298019096255,None,return,12.2614640831016,261.7664141058922,None,,,,,,,,,,,,,,,,,,,,,,,,,,,,,,,,,,,,,,,159,001,2024_Jan_30_1548,SpeechDraft1Carolyn_lessNoise_PlusLocalization,2021.2.3,60.036862830597734,
chord.wav,chord.mpg,chord,3,AV,Pink_Noise_3_1.wav,Pink_Noise_3_2.wav,,,,,,,,,,,,,,,0,20,20,69,,,,,,,,,,,,,,,,,,,,,,,274.04989023366943,None,275.54986278293654,None,276.9331956249662,None,cord,276.9331956249662,None,return,2.3235114980489016,277.0164809077978,None,,,,,,,,,,,,,,,,,,,,,,,,,,,,,,,,,,,,,,,159,001,2024_Jan_30_1548,SpeechDraft1Carolyn_lessNoise_PlusLocalization,2021.2.3,60.036862830597734,
dream.wav,dream.mpg,dream,6,AV,Pink_Noise_6_1.wav,Pink_Noise_6_2.wav,,,,,,,,,,,,,,,0,21,21,96,,,,,,,,,,,,,,,,,,,,,,,279.3666534079239,None,280.86642335774377,None,282.25163625972345,None,dream,282.25163625972345,None,return,0.9746591039001942,282.3332002107054,None,,,,,,,,,,,,,,,,,,,,,,,,,,,,,,,,,,,,,,,159,001,2024_Jan_30_1548,SpeechDraft1Carolyn_lessNoise_PlusLocalization,2021.2.3,60.036862830597734,
batch.wav,batch.mpg,batch,5,A,Pink_Noise_5_1.wav,Pink_Noise_5_2.wav,,,,,,,,,,,,,,,0,22,22,51,,,,,,,,,,,,,,,,,,,,,,,283.3332983297296,None,284.83263450302184,None,286.2165663978085,None,"ash
",286.2165663978085,None,return,0.9199932389892638,286.29988468578085,None,,,,,,,,,,,,,,,,,,,,,,,,,,,,,,,,,,,,,,,159,001,2024_Jan_30_1548,SpeechDraft1Carolyn_lessNoise_PlusLocalization,2021.2.3,60.036862830597734,
phase.wav,phase.mpg,phase,1,A,Pink_Noise_1_1.wav,Pink_Noise_1_2.wav,,,,,,,,,,,,,,,0,23,23,8,,,,,,,,,,,,,,,,,,,,,,,287.2498642290011,None,288.74938818998635,None,290.1331903450191,None,face,290.1331903450191,None,return,0.6912799938581884,290.2165812589228,None,,,,,,,,,,,,,,,,,,,,,,,,,,,,,,,,,,,,,,,159,001,2024_Jan_30_1548,SpeechDraft1Carolyn_lessNoise_PlusLocalization,2021.2.3,60.036862830597734,
brake.wav,brake.mpg,brake,2,A,Pink_Noise_2_1.wav,Pink_Noise_2_2.wav,,,,,,,,,,,,,,,0,24,24,5,,,,,,,,,,,,,,,,,,,,,,,290.93324975669384,None,292.43285298673436,None,293.8165403259918,None,break,293.8165403259918,None,return,1.328276249114424,293.8995947558433,None,,,,,,,,,,,,,,,,,,,,,,,,,,,,,,,,,,,,,,,159,001,2024_Jan_30_1548,SpeechDraft1Carolyn_lessNoise_PlusLocalization,2021.2.3,60.036862830597734,
fruit.wav,fruit.mpg,fruit,3,AV,Pink_Noise_3_1.wav,Pink_Noise_3_2.wav,,,,,,,,,,,,,,,0,25,25,61,,,,,,,,,,,,,,,,,,,,,,,295.25003701867536,None,296.7497115326114,None,298.13304283702746,None,"flute
",298.13304283702746,None,return,1.4512560931034386,298.21662559872493,None,,,,,,,,,,,,,,,,,,,,,,,,,,,,,,,,,,,,,,,159,001,2024_Jan_30_1548,SpeechDraft1Carolyn_lessNoise_PlusLocalization,2021.2.3,60.036862830597734,
bite.wav,bite.mpg,bite,6,AV,Pink_Noise_6_1.wav,Pink_Noise_6_2.wav,,,,,,,,,,,,,,,0,26,26,99,,,,,,,,,,,,,,,,,,,,,,,299.69972174288705,None,301.19961298489943,None,302.5831722789444,None,mice,302.5831722789444,None,return,1.7775550493970513,302.666326477658,None,,,,,,,,,,,,,,,,,,,,,,,,,,,,,,,,,,,,,,,159,001,2024_Jan_30_1548,SpeechDraft1Carolyn_lessNoise_PlusLocalization,2021.2.3,60.036862830597734,
blank.wav,blank.mpg,blank,6,AV,Pink_Noise_6_1.wav,Pink_Noise_6_2.wav,,,,,,,,,,,,,,,0,27,27,95,,,,,,,,,,,,,,,,,,,,,,,304.46666929963976,None,305.9663250837475,None,307.34979949565604,None,"blank
",307.34979949565604,None,return,2.234804776031524,307.43307493487373,None,,,,,,,,,,,,,,,,,,,,,,,,,,,,,,,,,,,,,,,159,001,2024_Jan_30_1548,SpeechDraft1Carolyn_lessNoise_PlusLocalization,2021.2.3,60.036862830597734,
faith.wav,faith.mpg,faith,2,AV,Pink_Noise_2_1.wav,Pink_Noise_2_2.wav,,,,,,,,,,,,,,,0,28,28,111,,,,,,,,,,,,,,,,,,,,,,,309.69974821573123,None,311.1997302286327,None,312.5830820957199,None,faith,312.5830820957199,None,return,1.257535243872553,312.6663670409471,None,,,,,,,,,,,,,,,,,,,,,,,,,,,,,,,,,,,,,,,159,001,2024_Jan_30_1548,SpeechDraft1Carolyn_lessNoise_PlusLocalization,2021.2.3,60.036862830597734,
cold.wav,cold.mpg,cold,4,AV,Pink_Noise_4_1.wav,Pink_Noise_4_2.wav,,,,,,,,,,,,,,,0,29,29,66,,,,,,,,,,,,,,,,,,,,,,,313.94998068967834,None,315.44984237197787,None,316.8332133926451,None,chords,316.8332133926451,None,return,4.239467991050333,316.91651041293517,None,,,,,,,,,,,,,,,,,,,,,,,,,,,,,,,,,,,,,,,159,001,2024_Jan_30_1548,SpeechDraft1Carolyn_lessNoise_PlusLocalization,2021.2.3,60.036862830597734,
greed.wav,greed.mpg,greed,3,A,Pink_Noise_3_1.wav,Pink_Noise_3_2.wav,,,,,,,,,,,,,,,0,30,30,30,,,,,,,,,,,,,,,,,,,,,,,321.1830880176276,None,322.6828931570053,None,324.0667383479886,None,greed,324.0667383479886,None,return,0.6537553896196187,324.1501083197072,None,,,,,,,,,,,,,,,,,,,,,,,,,,,,,,,,,,,,,,,159,001,2024_Jan_30_1548,SpeechDraft1Carolyn_lessNoise_PlusLocalization,2021.2.3,60.036862830597734,
gram.wav,gram.mpg,gram,3,AV,Pink_Noise_3_1.wav,Pink_Noise_3_2.wav,,,,,,,,,,,,,,,0,31,31,105,,,,,,,,,,,,,,,,,,,,,,,324.83343316661194,None,326.33278587274253,None,327.7164988229051,None,gram,327.7164988229051,None,return,1.9641821701079607,327.7997729377821,None,,,,,,,,,,,,,,,,,,,,,,,,,,,,,,,,,,,,,,,159,001,2024_Jan_30_1548,SpeechDraft1Carolyn_lessNoise_PlusLocalization,2021.2.3,60.036862830597734,
blimp.wav,blimp.mpg,blimp,2,A,Pink_Noise_2_1.wav,Pink_Noise_2_2.wav,,,,,,,,,,,,,,,0,32,32,3,,,,,,,,,,,,,,,,,,,,,,,329.7831006408669,None,331.28275949461386,None,332.6665947008878,None,"blue
",332.6665947008878,None,return,4.253960539121181,332.74990664003417,None,,,,,,,,,,,,,,,,,,,,,,,,,,,,,,,,,,,,,,,159,001,2024_Jan_30_1548,SpeechDraft1Carolyn_lessNoise_PlusLocalization,2021.2.3,60.036862830597734,
chess.wav,chess.mpg,chess,4,AV,Pink_Noise_4_1.wav,Pink_Noise_4_2.wav,,,,,,,,,,,,,,,0,33,33,74,,,,,,,,,,,,,,,,,,,,,,,337.0330982860178,None,338.532852104865,None,339.9163821078837,None,chess,339.9163821078837,None,return,2.9240476726554334,339.99991432763636,None,,,,,,,,,,,,,,,,,,,,,,,,,,,,,,,,,,,,,,,159,001,2024_Jan_30_1548,SpeechDraft1Carolyn_lessNoise_PlusLocalization,2021.2.3,60.036862830597734,
shrimp.wav,shrimp.mpg,shrimp,2,AV,Pink_Noise_2_1.wav,Pink_Noise_2_2.wav,,,,,,,,,,,,,,,0,34,34,78,,,,,,,,,,,,,,,,,,,,,,,342.94979988690466,None,344.4498140467331,None,345.8331967750564,None,"shrimp
",345.8331967750564,None,return,1.1192490383982658,345.916626019869,None,,,,,,,,,,,,,,,,,,,,,,,,,,,,,,,,,,,,,,,159,001,2024_Jan_30_1548,SpeechDraft1Carolyn_lessNoise_PlusLocalization,2021.2.3,60.036862830597734,
dress.wav,dress.mpg,dress,5,AV,Pink_Noise_5_1.wav,Pink_Noise_5_2.wav,,,,,,,,,,,,,,,0,35,35,89,,,,,,,,,,,,,,,,,,,,,,,347.0666191736236,None,348.56610344490036,None,349.94993917364627,None,dress,349.94993917364627,None,return,1.738883274141699,350.0330591839738,None,,,,,,,,,,,,,,,,,,,,,,,,,,,,,,,,,,,,,,,159,001,2024_Jan_30_1548,SpeechDraft1Carolyn_lessNoise_PlusLocalization,2021.2.3,60.036862830597734,
hug.wav,hug.mpg,hug,6,AV,Pink_Noise_6_1.wav,Pink_Noise_6_2.wav,,,,,,,,,,,,,,,0,36,36,117,,,,,,,,,,,,,,,,,,,,,,,351.80001549469307,None,353.2996632838622,None,354.68347897706553,None,"hard
",354.68347897706553,None,return,5.685135854873806,354.7667507696897,None,,,,,,,,,,,,,,,,,,,,,,,,,,,,,,,,,,,,,,,159,001,2024_Jan_30_1548,SpeechDraft1Carolyn_lessNoise_PlusLocalization,2021.2.3,60.036862830597734,
crawl.wav,crawl.mpg,crawl,4,A,Pink_Noise_4_1.wav,Pink_Noise_4_2.wav,,,,,,,,,,,,,,,0,37,37,34,,,,,,,,,,,,,,,,,,,,,,,360.4995841886848,None,361.99988902779296,None,363.3834348889068,None,frog,363.3834348889068,None,return,3.489160150755197,363.4668388646096,None,,,,,,,,,,,,,,,,,,,,,,,,,,,,,,,,,,,,,,,159,001,2024_Jan_30_1548,SpeechDraft1Carolyn_lessNoise_PlusLocalization,2021.2.3,60.036862830597734,
greek.wav,greek.mpg,greek,2,A,Pink_Noise_2_1.wav,Pink_Noise_2_2.wav,,,,,,,,,,,,,,,0,38,38,17,,,,,,,,,,,,,,,,,,,,,,,366.98320937296376,None,368.4831119980663,None,369.86666483199224,None,greek,369.86666483199224,None,return,1.0940080620348454,369.9498563320376,None,,,,,,,,,,,,,,,,,,,,,,,,,,,,,,,,,,,,,,,159,001,2024_Jan_30_1548,SpeechDraft1Carolyn_lessNoise_PlusLocalization,2021.2.3,60.036862830597734,
cross.wav,cross.mpg,cross,1,AV,Pink_Noise_1_1.wav,Pink_Noise_1_2.wav,,,,,,,,,,,,,,,0,39,39,100,,,,,,,,,,,,,,,,,,,,,,,371.0665174690075,None,372.5662196907215,None,373.950017193798,None,cross,373.950017193798,None,return,0.7785626421682537,374.0332745988853,None,,,,,,,,,,,,,,,,,,,,,,,,,,,,,,,,,,,,,,,159,001,2024_Jan_30_1548,SpeechDraft1Carolyn_lessNoise_PlusLocalization,2021.2.3,60.036862830597734,
game.wav,game.mpg,game,3,AV,Pink_Noise_3_1.wav,Pink_Noise_3_2.wav,,,,,,,,,,,,,,,0,40,40,109,,,,,,,,,,,,,,,,,,,,,,,374.83332680305466,None,376.3495230348781,None,377.7333013578318,None,"game
",377.7333013578318,None,return,0.8191398410126567,377.81673697568476,None,,,,,,,,,,,,,,,,,,,,,,,,,,,,,,,,,,,,,,,159,001,2024_Jan_30_1548,SpeechDraft1Carolyn_lessNoise_PlusLocalization,2021.2.3,60.036862830597734,
dope.wav,dope.mpg,dope,4,AV,Pink_Noise_4_1.wav,Pink_Noise_4_2.wav,,,,,,,,,,,,,,,0,41,41,91,,,,,,,,,,,,,,,,,,,,,,,378.6667393967509,None,380.16817901004106,None,381.5498024546541,None,dope,381.5498024546541,None,return,2.3467623707838356,381.63321813568473,None,,,,,,,,,,,,,,,,,,,,,,,,,,,,,,,,,,,,,,,159,001,2024_Jan_30_1548,SpeechDraft1Carolyn_lessNoise_PlusLocalization,2021.2.3,60.036862830597734,
dim.wav,dim.mpg,dim,5,AV,Pink_Noise_5_1.wav,Pink_Noise_5_2.wav,,,,,,,,,,,,,,,0,42,42,103,,,,,,,,,,,,,,,,,,,,,,,384.0000695879571,None,385.49970896262676,None,386.8832976538688,None,gym,386.8832976538688,None,return,41.78106304537505,386.96680387482047,None,,,,,,,,,,,,,,,,,,,,,,,,,,,,,,,,,,,,,,,159,001,2024_Jan_30_1548,SpeechDraft1Carolyn_lessNoise_PlusLocalization,2021.2.3,60.036862830597734,
belch.wav,belch.mpg,belch,1,A,Pink_Noise_1_1.wav,Pink_Noise_1_2.wav,,,,,,,,,,,,,,,0,43,43,37,,,,,,,,,,,,,,,,,,,,,,,428.76676800567657,None,430.2664735428989,None,431.65005760872737,None,"belch
",431.65005760872737,None,return,1.5186491711065173,431.73322782479227,None,,,,,,,,,,,,,,,,,,,,,,,,,,,,,,,,,,,,,,,159,001,2024_Jan_30_1548,SpeechDraft1Carolyn_lessNoise_PlusLocalization,2021.2.3,60.036862830597734,
craft.wav,craft.mpg,craft,5,A,Pink_Noise_5_1.wav,Pink_Noise_5_2.wav,,,,,,,,,,,,,,,0,44,44,44,,,,,,,,,,,,,,,,,,,,,,,433.2832777928561,None,434.78295489260927,None,436.16666159499437,None,crack,436.16666159499437,None,return,5.065948216244578,436.25000261096284,None,,,,,,,,,,,,,,,,,,,,,,,,,,,,,,,,,,,,,,,159,001,2024_Jan_30_1548,SpeechDraft1Carolyn_lessNoise_PlusLocalization,2021.2.3,60.036862830597734,
freak.wav,freak.mpg,freak,1,AV,Pink_Noise_1_1.wav,Pink_Noise_1_2.wav,,,,,,,,,,,,,,,0,45,45,79,,,,,,,,,,,,,,,,,,,,,,,441.3336122110486,None,442.83285134797916,None,444.21645981585607,None,freak,444.21645981585607,None,return,2.35980316484347,444.30008875997737,None,,,,,,,,,,,,,,,,,,,,,,,,,,,,,,,,,,,,,,,159,001,2024_Jan_30_1548,SpeechDraft1Carolyn_lessNoise_PlusLocalization,2021.2.3,60.036862830597734,
birch.wav,birch.mpg,birch,5,AV,Pink_Noise_5_1.wav,Pink_Noise_5_2.wav,,,,,,,,,,,,,,,0,46,46,64,,,,,,,,,,,,,,,,,,,,,,,446.6832877928391,None,448.19966181367636,None,449.5832082927227,None,"bush
",449.5832082927227,None,return,1.3531090896576643,449.6667734528892,None,,,,,,,,,,,,,,,,,,,,,,,,,,,,,,,,,,,,,,,159,001,2024_Jan_30_1548,SpeechDraft1Carolyn_lessNoise_PlusLocalization,2021.2.3,60.036862830597734,
chop.wav,chop.mpg,chop,4,A,Pink_Noise_4_1.wav,Pink_Noise_4_2.wav,,,,,,,,,,,,,,,0,47,47,57,,,,,,,,,,,,,,,,,,,,,,,451.0500430678949,None,452.54963917378336,None,453.933423446957,None,chai,453.933423446957,None,return,1.1153050330467522,454.01664950465783,None,,,,,,,,,,,,,,,,,,,,,,,,,,,,,,,,,,,,,,,159,001,2024_Jan_30_1548,SpeechDraft1Carolyn_lessNoise_PlusLocalization,2021.2.3,60.036862830597734,
forth.wav,forth.mpg,forth,2,A,Pink_Noise_2_1.wav,Pink_Noise_2_2.wav,,,,,,,,,,,,,,,0,48,48,15,,,,,,,,,,,,,,,,,,,,,,,455.15005188062787,None,456.66632324876264,None,458.0501490146853,None,"fork
",458.0501490146853,None,return,1.5183379761874676,458.1335372957401,None,,,,,,,,,,,,,,,,,,,,,,,,,,,,,,,,,,,,,,,159,001,2024_Jan_30_1548,SpeechDraft1Carolyn_lessNoise_PlusLocalization,2021.2.3,60.036862830597734,
ease.wav,ease.mpg,ease,1,A,Pink_Noise_1_1.wav,Pink_Noise_1_2.wav,,,,,,,,,,,,,,,0,49,49,26,,,,,,,,,,,,,,,,,,,,,,,459.68425566796213,None,461.19981167605147,None,462.5833913460374,None,ease,462.5833913460374,None,return,0.9051589001901448,462.6667934008874,None,,,,,,,,,,,,,,,,,,,,,,,,,,,,,,,,,,,,,,,159,001,2024_Jan_30_1548,SpeechDraft1Carolyn_lessNoise_PlusLocalization,2021.2.3,60.036862830597734,
boost.wav,boost.mpg,boost,2,A,Pink_Noise_2_1.wav,Pink_Noise_2_2.wav,,,,,,,,,,,,,,,0,50,50,50,,,,,,,,,,,,,,,,,,,,,,,463.5999568006955,None,465.1164663550444,None,466.50000986270607,None,boost,466.50000986270607,None,return,1.0283624739386141,466.58351568179205,None,,,,,,,,,,,,,,,,,,,,,,,,,,,,,,,,,,,,,,,159,001,2024_Jan_30_1548,SpeechDraft1Carolyn_lessNoise_PlusLocalization,2021.2.3,60.036862830597734,
cope.wav,cope.mpg,cope,4,AV,Pink_Noise_4_1.wav,Pink_Noise_4_2.wav,,,,,,,,,,,,,,,0,51,51,83,,,,,,,,,,,,,,,,,,,,,,,467.6335104247555,None,469.1331251319498,None,470.51667355094105,None,cope,470.51667355094105,None,return,0.5959765389561653,470.5999166248366,None,,,,,,,,,,,,,,,,,,,,,,,,,,,,,,,,,,,,,,,159,001,2024_Jan_30_1548,SpeechDraft1Carolyn_lessNoise_PlusLocalization,2021.2.3,60.036862830597734,
groom.wav,groom.mpg,groom,6,A,Pink_Noise_6_1.wav,Pink_Noise_6_2.wav,,,,,,,,,,,,,,,0,52,52,45,,,,,,,,,,,,,,,,,,,,,,,471.21686029806733,None,472.7185241440311,None,474.1001973198727,None,dress,474.1001973198727,None,return,2.788373304065317,474.1835707980208,None,,,,,,,,,,,,,,,,,,,,,,,,,,,,,,,,,,,,,,,159,001,2024_Jan_30_1548,SpeechDraft1Carolyn_lessNoise_PlusLocalization,2021.2.3,60.036862830597734,
vest.wav,vest.mpg,vest,1,A,Pink_Noise_1_1.wav,Pink_Noise_1_2.wav,,,,,,,,,,,,,,,0,53,53,16,,,,,,,,,,,,,,,,,,,,,,,477.0001752260141,None,478.5014647808857,None,479.8836063076742,None,best,479.8836063076742,None,return,2.565213958732784,479.9667210909538,None,,,,,,,,,,,,,,,,,,,,,,,,,,,,,,,,,,,,,,,159,001,2024_Jan_30_1548,SpeechDraft1Carolyn_lessNoise_PlusLocalization,2021.2.3,60.036862830597734,
buy.wav,buy.mpg,buy,3,AV,Pink_Noise_3_1.wav,Pink_Noise_3_2.wav,,,,,,,,,,,,,,,0,54,54,119,,,,,,,,,,,,,,,,,,,,,,,482.5500375209376,None,484.05005447380245,None,485.4334099297412,None,buy,485.4334099297412,None,return,1.8473651725798845,485.51657192083076,None,,,,,,,,,,,,,,,,,,,,,,,,,,,,,,,,,,,,,,,159,001,2024_Jan_30_1548,SpeechDraft1Carolyn_lessNoise_PlusLocalization,2021.2.3,60.036862830597734,
chase.wav,chase.mpg,chase,3,A,Pink_Noise_3_1.wav,Pink_Noise_3_2.wav,,,,,,,,,,,,,,,0,55,55,18,,,,,,,,,,,,,,,,,,,,,,,487.3834064947441,None,488.88356223283336,None,490.2668836810626,None,"chase
",490.2668836810626,None,return,0.853691877797246,490.35017473995686,None,,,,,,,,,,,,,,,,,,,,,,,,,,,,,,,,,,,,,,,159,001,2024_Jan_30_1548,SpeechDraft1Carolyn_lessNoise_PlusLocalization,2021.2.3,60.036862830597734,
flock.wav,flock.mpg,flock,2,A,Pink_Noise_2_1.wav,Pink_Noise_2_2.wav,,,,,,,,,,,,,,,0,56,56,49,,,,,,,,,,,,,,,,,,,,,,,491.2335258247331,None,492.7497788388282,None,494.13361481996253,None,flock,494.13361481996253,None,return,1.2991103050298989,494.2168919397518,None,,,,,,,,,,,,,,,,,,,,,,,,,,,,,,,,,,,,,,,159,001,2024_Jan_30_1548,SpeechDraft1Carolyn_lessNoise_PlusLocalization,2021.2.3,60.036862830597734,
bun.wav,bun.mpg,bun,5,AV,Pink_Noise_5_1.wav,Pink_Noise_5_2.wav,,,,,,,,,,,,,,,0,57,57,93,,,,,,,,,,,,,,,,,,,,,,,495.5333452196792,None,497.03295395802706,None,498.41687538288534,None,pine,498.41687538288534,None,return,8.655986306257546,498.4999785157852,None,,,,,,,,,,,,,,,,,,,,,,,,,,,,,,,,,,,,,,,159,001,2024_Jan_30_1548,SpeechDraft1Carolyn_lessNoise_PlusLocalization,2021.2.3,60.036862830597734,
barn.wav,barn.mpg,barn,6,A,Pink_Noise_6_1.wav,Pink_Noise_6_2.wav,,,,,,,,,,,,,,,0,58,58,47,,,,,,,,,,,,,,,,,,,,,,,507.1833419869654,None,508.6996808806434,None,510.0833959877491,None,park,510.0833959877491,None,return,1.7889937800355256,510.16691768169403,None,,,,,,,,,,,,,,,,,,,,,,,,,,,,,,,,,,,,,,,159,001,2024_Jan_30_1548,SpeechDraft1Carolyn_lessNoise_PlusLocalization,2021.2.3,60.036862830597734,
pride.wav,pride.mpg,pride,6,A,Pink_Noise_6_1.wav,Pink_Noise_6_2.wav,,,,,,,,,,,,,,,0,59,59,7,,,,,,,,,,,,,,,,,,,,,,,511.9834959800355,None,513.4830854889005,None,514.8669857010245,None,"fly
",514.8669857010245,None,return,1.7176531967706978,514.9502125298604,None,,,,,,,,,,,,,,,,,,,,,,,,,,,,,,,,,,,,,,,159,001,2024_Jan_30_1548,SpeechDraft1Carolyn_lessNoise_PlusLocalization,2021.2.3,60.036862830597734,
leapt.wav,leapt.mpg,leapt,1,AV,Pink_Noise_1_1.wav,Pink_Noise_1_2.wav,,,,,,,,,,,,,,,0,60,60,73,,,,,,,,,,,,,,,,,,,,,,,516.7000738070346,None,518.1999379526824,None,519.5834431536496,None,lept,519.5834431536496,None,return,1.7451594360172749,519.6667144009843,None,,,,,,,,,,,,,,,,,,,,,,,,,,,,,,,,,,,,,,,159,001,2024_Jan_30_1548,SpeechDraft1Carolyn_lessNoise_PlusLocalization,2021.2.3,60.036862830597734,
germ.wav,germ.mpg,germ,4,A,Pink_Noise_4_1.wav,Pink_Noise_4_2.wav,,,,,,,,,,,,,,,0,61,61,42,,,,,,,,,,,,,,,,,,,,,,,521.4334982349537,None,522.9331792560406,None,524.3167867446318,None,"jay
",524.3167867446318,None,return,2.819691208191216,524.4001841587014,None,,,,,,,,,,,,,,,,,,,,,,,,,,,,,,,,,,,,,,,159,001,2024_Jan_30_1548,SpeechDraft1Carolyn_lessNoise_PlusLocalization,2021.2.3,60.036862830597734,
beef.wav,beef.mpg,beef,5,AV,Pink_Noise_5_1.wav,Pink_Noise_5_2.wav,,,,,,,,,,,,,,,0,62,62,112,,,,,,,,,,,,,,,,,,,,,,,527.2500499207526,None,528.7667395006865,None,530.1501055900007,None,beef,530.1501055900007,None,return,9.194192454218864,530.2336782147177,None,,,,,,,,,,,,,,,,,,,,,,,,,,,,,,,,,,,,,,,159,001,2024_Jan_30_1548,SpeechDraft1Carolyn_lessNoise_PlusLocalization,2021.2.3,60.036862830597734,
toast.wav,toast.mpg,toast,3,A,Pink_Noise_3_1.wav,Pink_Noise_3_2.wav,,,,,,,,,,,,,,,0,63,63,2,,,,,,,,,,,,,,,,,,,,,,,539.4502652329393,None,540.9512573438697,None,542.3333375840448,None,"toast
",542.3333375840448,None,return,0.8028899021446705,542.4169854838401,None,,,,,,,,,,,,,,,,,,,,,,,,,,,,,,,,,,,,,,,159,001,2024_Jan_30_1548,SpeechDraft1Carolyn_lessNoise_PlusLocalization,2021.2.3,60.036862830597734,
foil.wav,foil.mpg,foil,2,AV,Pink_Noise_2_1.wav,Pink_Noise_2_2.wav,,,,,,,,,,,,,,,0,64,64,71,,,,,,,,,,,,,,,,,,,,,,,543.2501288079657,None,544.7662897417322,None,546.1501363599673,None,foil,546.1501363599673,None,return,1.5063998438417912,546.2335885446519,None,,,,,,,,,,,,,,,,,,,,,,,,,,,,,,,,,,,,,,,159,001,2024_Jan_30_1548,SpeechDraft1Carolyn_lessNoise_PlusLocalization,2021.2.3,60.036862830597734,
crank.wav,crank.mpg,crank,5,A,Pink_Noise_5_1.wav,Pink_Noise_5_2.wav,,,,,,,,,,,,,,,0,65,65,27,,,,,,,,,,,,,,,,,,,,,,,547.7670296779834,None,549.2664503767155,None,550.6500313919969,None,"toast
",550.6500313919969,None,return,4.318339878227562,550.7335352646187,None,,,,,,,,,,,,,,,,,,,,,,,,,,,,,,,,,,,,,,,159,001,2024_Jan_30_1548,SpeechDraft1Carolyn_lessNoise_PlusLocalization,2021.2.3,60.036862830597734,
coach.wav,coach.mpg,coach,4,AV,Pink_Noise_4_1.wav,Pink_Noise_4_2.wav,,,,,,,,,,,,,,,0,66,66,77,,,,,,,,,,,,,,,,,,,,,,,555.0834110509604,None,556.5831982828677,None,557.9667679858394,None,coach,557.9667679858394,None,return,1.0979507509618998,558.0499731837772,None,,,,,,,,,,,,,,,,,,,,,,,,,,,,,,,,,,,,,,,159,001,2024_Jan_30_1548,SpeechDraft1Carolyn_lessNoise_PlusLocalization,2021.2.3,60.036862830597734,
eat.wav,eat.mpg,eat,5,AV,Pink_Noise_5_1.wav,Pink_Noise_5_2.wav,,,,,,,,,,,,,,,0,67,67,118,,,,,,,,,,,,,,,,,,,,,,,559.1670906948857,None,560.6831836476922,None,562.0670233480632,None,eat,562.0670233480632,None,return,0.5816180161200464,562.1503558126278,None,,,,,,,,,,,,,,,,,,,,,,,,,,,,,,,,,,,,,,,159,001,2024_Jan_30_1548,SpeechDraft1Carolyn_lessNoise_PlusLocalization,2021.2.3,60.036862830597734,
drive.wav,drive.mpg,drive,3,A,Pink_Noise_3_1.wav,Pink_Noise_3_2.wav,,,,,,,,,,,,,,,0,68,68,33,,,,,,,,,,,,,,,,,,,,,,,562.7501275599934,None,564.2665482549928,None,565.6502790036611,None,dry,565.6502790036611,None,return,1.174451765138656,565.7334123798646,None,,,,,,,,,,,,,,,,,,,,,,,,,,,,,,,,,,,,,,,159,001,2024_Jan_30_1548,SpeechDraft1Carolyn_lessNoise_PlusLocalization,2021.2.3,60.036862830597734,
coup.wav,coup.mpg,coup,3,AV,Pink_Noise_3_1.wav,Pink_Noise_3_2.wav,,,,,,,,,,,,,,,0,69,69,68,,,,,,,,,,,,,,,,,,,,,,,566.933644992765,None,568.4341223798692,None,569.8168811788782,None,"coup
",569.8168811788782,None,return,7.93564717983827,569.9002298228443,None,,,,,,,,,,,,,,,,,,,,,,,,,,,,,,,,,,,,,,,159,001,2024_Jan_30_1548,SpeechDraft1Carolyn_lessNoise_PlusLocalization,2021.2.3,60.036862830597734,
feed.wav,feed.mpg,feed,1,AV,Pink_Noise_1_1.wav,Pink_Noise_1_2.wav,,,,,,,,,,,,,,,0,70,70,102,,,,,,,,,,,,,,,,,,,,,,,577.8668056828901,None,579.3830848908983,None,580.7668362408876,None,feed,580.7668362408876,None,return,0.9376470251008868,580.8502632207237,None,,,,,,,,,,,,,,,,,,,,,,,,,,,,,,,,,,,,,,,159,001,2024_Jan_30_1548,SpeechDraft1Carolyn_lessNoise_PlusLocalization,2021.2.3,60.036862830597734,
bread.wav,bread.mpg,bread,3,A,Pink_Noise_3_1.wav,Pink_Noise_3_2.wav,,,,,,,,,,,,,,,0,71,71,55,,,,,,,,,,,,,,,,,,,,,,,581.8168148989789,None,583.3334799436852,None,584.7169258799404,None,bread,584.7169258799404,None,return,1.315667768009007,584.8003179356456,None,,,,,,,,,,,,,,,,,,,,,,,,,,,,,,,,,,,,,,,159,001,2024_Jan_30_1548,SpeechDraft1Carolyn_lessNoise_PlusLocalization,2021.2.3,60.036862830597734,
frog.wav,frog.mpg,frog,1,AV,Pink_Noise_1_1.wav,Pink_Noise_1_2.wav,,,,,,,,,,,,,,,0,72,72,113,,,,,,,,,,,,,,,,,,,,,,,586.1337401010096,None,587.6331657147966,None,589.0166463488713,None,frog,589.0166463488713,None,return,1.5275592748075724,589.1003406168893,None,,,,,,,,,,,,,,,,,,,,,,,,,,,,,,,,,,,,,,,159,001,2024_Jan_30_1548,SpeechDraft1Carolyn_lessNoise_PlusLocalization,2021.2.3,60.036862830597734,
foot.wav,foot.mpg,foot,4,A,Pink_Noise_4_1.wav,Pink_Noise_4_2.wav,,,,,,,,,,,,,,,0,73,73,29,,,,,,,,,,,,,,,,,,,,,,,590.6503736246377,None,592.1513370717876,None,593.5498149679042,None,fork,593.5498149679042,None,return,7.69912427989766,593.6168216047809,None,,,,,,,,,,,,,,,,,,,,,,,,,,,,,,,,,,,,,,,159,001,2024_Jan_30_1548,SpeechDraft1Carolyn_lessNoise_PlusLocalization,2021.2.3,60.036862830597734,
bass.wav,bass.mpg,bass,2,A,Pink_Noise_2_1.wav,Pink_Noise_2_2.wav,,,,,,,,,,,,,,,0,74,74,0,,,,,,,,,,,,,,,,,,,,,,,601.3338552326895,None,602.8499427149072,None,604.2334268996492,None,base,604.2334268996492,None,return,1.0386858913116157,604.317236687988,None,,,,,,,,,,,,,,,,,,,,,,,,,,,,,,,,,,,,,,,159,001,2024_Jan_30_1548,SpeechDraft1Carolyn_lessNoise_PlusLocalization,2021.2.3,60.036862830597734,
slush.wav,slush.mpg,slush,5,AV,Pink_Noise_5_1.wav,Pink_Noise_5_2.wav,,,,,,,,,,,,,,,0,75,75,85,,,,,,,,,,,,,,,,,,,,,,,605.3836345337331,None,606.9001985648647,None,608.2836571088992,None,"steps
",608.2836571088992,None,return,25.28511173138395,608.3667634609155,None,,,,,,,,,,,,,,,,,,,,,,,,,,,,,,,,,,,,,,,159,001,2024_Jan_30_1548,SpeechDraft1Carolyn_lessNoise_PlusLocalization,2021.2.3,60.036862830597734,
cart.wav,cart.mpg,cart,2,AV,Pink_Noise_2_1.wav,Pink_Noise_2_2.wav,,,,,,,,,,,,,,,0,76,76,92,,,,,,,,,,,,,,,,,,,,,,,633.6835405118763,None,635.216839900706,None,636.6002792906947,None,"cart
",636.6002792906947,None,return,0.8001526230946183,636.6837124619633,None,,,,,,,,,,,,,,,,,,,,,,,,,,,,,,,,,,,,,,,159,001,2024_Jan_30_1548,SpeechDraft1Carolyn_lessNoise_PlusLocalization,2021.2.3,60.036862830597734,
cloud.wav,cloud.mpg,cloud,6,A,Pink_Noise_6_1.wav,Pink_Noise_6_2.wav,,,,,,,,,,,,,,,0,77,77,46,,,,,,,,,,,,,,,,,,,,,,,637.5170031939633,None,639.0182009306736,None,640.4005142897367,None,drive,640.4005142897367,None,return,1.1759935598820448,640.4838260486722,None,,,,,,,,,,,,,,,,,,,,,,,,,,,,,,,,,,,,,,,159,001,2024_Jan_30_1548,SpeechDraft1Carolyn_lessNoise_PlusLocalization,2021.2.3,60.036862830597734,
dead.wav,dead.mpg,dead,2,AV,Pink_Noise_2_1.wav,Pink_Noise_2_2.wav,,,,,,,,,,,,,,,0,78,78,107,,,,,,,,,,,,,,,,,,,,,,,641.6835644198582,None,643.2167733740062,None,644.6001765546389,None,dead,644.6001765546389,None,return,2.176275469828397,644.6835884936154,None,,,,,,,,,,,,,,,,,,,,,,,,,,,,,,,,,,,,,,,159,001,2024_Jan_30_1548,SpeechDraft1Carolyn_lessNoise_PlusLocalization,2021.2.3,60.036862830597734,
club.wav,club.mpg,club,6,A,Pink_Noise_6_1.wav,Pink_Noise_6_2.wav,,,,,,,,,,,,,,,0,79,79,32,,,,,,,,,,,,,,,,,,,,,,,646.8835717309266,None,648.4166427976452,None,649.8002720968798,None,crush,649.8002720968798,None,return,1.176075394731015,649.8837890438735,None,,,,,,,,,,,,,,,,,,,,,,,,,,,,,,,,,,,,,,,159,001,2024_Jan_30_1548,SpeechDraft1Carolyn_lessNoise_PlusLocalization,2021.2.3,60.036862830597734,
chick.wav,chick.mpg,chick,2,AV,Pink_Noise_2_1.wav,Pink_Noise_2_2.wav,,,,,,,,,,,,,,,0,80,80,104,,,,,,,,,,,,,,,,,,,,,,,651.0837053279392,None,652.6001638090238,None,653.9836355689913,None,chick,653.9836355689913,None,return,0.889127619098872,654.0668913456611,None,,,,,,,,,,,,,,,,,,,,,,,,,,,,,,,,,,,,,,,159,001,2024_Jan_30_1548,SpeechDraft1Carolyn_lessNoise_PlusLocalization,2021.2.3,60.036862830597734,
grip.wav,grip.mpg,grip,1,AV,Pink_Noise_1_1.wav,Pink_Noise_1_2.wav,,,,,,,,,,,,,,,0,81,81,70,,,,,,,,,,,,,,,,,,,,,,,654.9837137418799,None,656.5168181927875,None,657.9012262327597,None,grip,657.9012262327597,None,return,1.396174336783588,657.9837355888449,None,,,,,,,,,,,,,,,,,,,,,,,,,,,,,,,,,,,,,,,159,001,2024_Jan_30_1548,SpeechDraft1Carolyn_lessNoise_PlusLocalization,2021.2.3,60.036862830597734,
dust.wav,dust.mpg,dust,2,A,Pink_Noise_2_1.wav,Pink_Noise_2_2.wav,,,,,,,,,,,,,,,0,82,82,19,,,,,,,,,,,,,,,,,,,,,,,659.4002450350672,None,660.9167960649356,None,662.2837855760008,None,"dust
",662.2837855760008,None,return,1.9008312299847603,662.3670518966392,None,,,,,,,,,,,,,,,,,,,,,,,,,,,,,,,,,,,,,,,159,001,2024_Jan_30_1548,SpeechDraft1Carolyn_lessNoise_PlusLocalization,2021.2.3,60.036862830597734,
sun.wav,sun.mpg,sun,1,AV,Pink_Noise_1_1.wav,Pink_Noise_1_2.wav,,,,,,,,,,,,,,,0,83,83,114,,,,,,,,,,,,,,,,,,,,,,,664.3004778889008,None,665.816732483916,None,667.2001260300167,None,"sun
",667.2001260300167,None,return,0.7201901441439986,667.2836826518178,None,,,,,,,,,,,,,,,,,,,,,,,,,,,,,,,,,,,,,,,159,001,2024_Jan_30_1548,SpeechDraft1Carolyn_lessNoise_PlusLocalization,2021.2.3,60.036862830597734,
chow.wav,chow.mpg,chow,3,A,Pink_Noise_3_1.wav,Pink_Noise_3_2.wav,,,,,,,,,,,,,,,0,84,84,31,,,,,,,,,,,,,,,,,,,,,,,668.0338964057155,None,669.5499220229685,None,670.933615045622,None,child,670.933615045622,None,return,0.9149340721778572,671.0170702519827,None,,,,,,,,,,,,,,,,,,,,,,,,,,,,,,,,,,,,,,,159,001,2024_Jan_30_1548,SpeechDraft1Carolyn_lessNoise_PlusLocalization,2021.2.3,60.036862830597734,
click.wav,click.mpg,click,1,A,Pink_Noise_1_1.wav,Pink_Noise_1_2.wav,,,,,,,,,,,,,,,0,85,85,58,,,,,,,,,,,,,,,,,,,,,,,671.9503936748952,None,673.4668380999938,None,674.8504064138979,None,"click
",674.8504064138979,None,return,1.6859770938754082,674.9338974826969,None,,,,,,,,,,,,,,,,,,,,,,,,,,,,,,,,,,,,,,,159,001,2024_Jan_30_1548,SpeechDraft1Carolyn_lessNoise_PlusLocalization,2021.2.3,60.036862830597734,
frame.wav,frame.mpg,frame,6,AV,Pink_Noise_6_1.wav,Pink_Noise_6_2.wav,,,,,,,,,,,,,,,0,86,86,63,,,,,,,,,,,,,,,,,,,,,,,676.650356343016,None,678.1502923928201,None,679.5334951598197,None,frame,679.5334951598197,None,return,1.9547540890052915,679.6171127506532,None,,,,,,,,,,,,,,,,,,,,,,,,,,,,,,,,,,,,,,,159,001,2024_Jan_30_1548,SpeechDraft1Carolyn_lessNoise_PlusLocalization,2021.2.3,60.036862830597734,
gate.wav,gate.mpg,gate,3,A,Pink_Noise_3_1.wav,Pink_Noise_3_2.wav,,,,,,,,,,,,,,,0,87,87,28,,,,,,,,,,,,,,,,,,,,,,,681.600189757999,None,683.1164973867126,None,684.5003770790063,None,gate,684.5003770790063,None,return,2.0439101038500667,684.5839517009445,None,,,,,,,,,,,,,,,,,,,,,,,,,,,,,,,,,,,,,,,159,001,2024_Jan_30_1548,SpeechDraft1Carolyn_lessNoise_PlusLocalization,2021.2.3,60.036862830597734,
cape.wav,cape.mpg,cape,4,A,Pink_Noise_4_1.wav,Pink_Noise_4_2.wav,,,,,,,,,,,,,,,0,88,88,11,,,,,,,,,,,,,,,,,,,,,,,686.6504597519524,None,688.2000066367909,None,689.5836075199768,None,cake,689.5836075199768,None,return,1.0728299389593303,689.6671602707356,None,,,,,,,,,,,,,,,,,,,,,,,,,,,,,,,,,,,,,,,159,001,2024_Jan_30_1548,SpeechDraft1Carolyn_lessNoise_PlusLocalization,2021.2.3,60.036862830597734,
bible.wav,bible.mpg,bible,2,AV,Pink_Noise_2_1.wav,Pink_Noise_2_2.wav,,,,,,,,,,,,,,,0,89,89,94,,,,,,,,,,,,,,,,,,,,,,,690.7671245490201,None,692.3169407858513,None,693.7003603298217,None,bidem,693.7003603298217,None,return,8.660065952222794,693.7838313388638,None,,,,,,,,,,,,,,,,,,,,,,,,,,,,,,,,,,,,,,,159,001,2024_Jan_30_1548,SpeechDraft1Carolyn_lessNoise_PlusLocalization,2021.2.3,60.036862830597734,
blaze.wav,blaze.mpg,blaze,5,AV,Pink_Noise_5_1.wav,Pink_Noise_5_2.wav,,,,,,,,,,,,,,,0,90,90,84,,,,,,,,,,,,,,,,,,,,,,,702.4671298176982,None,703.9834969639778,None,705.3673297208734,None,place,705.3673297208734,None,return,1.4973558001220226,705.450522204861,None,,,,,,,,,,,,,,,,,,,,,,,,,,,,,,,,,,,,,,,159,001,2024_Jan_30_1548,SpeechDraft1Carolyn_lessNoise_PlusLocalization,2021.2.3,60.036862830597734,
gush.wav,gush.mpg,gush,4,AV,Pink_Noise_4_1.wav,Pink_Noise_4_2.wav,,,,,,,,,,,,,,,0,91,91,108,,,,,,,,,,,,,,,,,,,,,,,706.9670274918899,None,708.4835211448371,None,709.8670714497566,None,gush,709.8670714497566,None,return,0.8215282713063061,709.9504283140413,None,,,,,,,,,,,,,,,,,,,,,,,,,,,,,,,,,,,,,,,159,001,2024_Jan_30_1548,SpeechDraft1Carolyn_lessNoise_PlusLocalization,2021.2.3,60.036862830597734,
cause.wav,cause.mpg,cause,1,AV,Pink_Noise_1_1.wav,Pink_Noise_1_2.wav,,,,,,,,,,,,,,,0,92,92,101,,,,,,,,,,,,,,,,,,,,,,,710.8003128576092,None,712.3000222686678,None,713.6837554397061,None,cause,713.6837554397061,None,return,1.5248009762726724,713.7670620377176,None,,,,,,,,,,,,,,,,,,,,,,,,,,,,,,,,,,,,,,,159,001,2024_Jan_30_1548,SpeechDraft1Carolyn_lessNoise_PlusLocalization,2021.2.3,60.036862830597734,
clot.wav,clot.mpg,clot,4,A,Pink_Noise_4_1.wav,Pink_Noise_4_2.wav,,,,,,,,,,,,,,,0,93,93,25,,,,,,,,,,,,,,,,,,,,,,,715.317025851924,None,716.8501120018773,None,718.2338677230291,None,frat,718.2338677230291,None,return,4.222873403225094,718.3171197217889,None,,,,,,,,,,,,,,,,,,,,,,,,,,,,,,,,,,,,,,,159,001,2024_Jan_30_1548,SpeechDraft1Carolyn_lessNoise_PlusLocalization,2021.2.3,60.036862830597734,
thief.wav,thief.mpg,thief,6,AV,Pink_Noise_6_1.wav,Pink_Noise_6_2.wav,,,,,,,,,,,,,,,0,94,94,97,,,,,,,,,,,,,,,,,,,,,,,722.5672052130103,None,724.0835933736525,None,725.4671046547592,None,"thief
",725.4671046547592,None,return,1.3015331788919866,725.5503525906242,None,,,,,,,,,,,,,,,,,,,,,,,,,,,,,,,,,,,,,,,159,001,2024_Jan_30_1548,SpeechDraft1Carolyn_lessNoise_PlusLocalization,2021.2.3,60.036862830597734,
jeep.wav,jeep.mpg,jeep,1,A,Pink_Noise_1_1.wav,Pink_Noise_1_2.wav,,,,,,,,,,,,,,,0,95,95,38,,,,,,,,,,,,,,,,,,,,,,,726.8837396916933,None,728.4166816878133,None,729.8005962637253,None,jeep,729.8005962637253,None,return,1.3762545422650874,729.8836406329647,None,,,,,,,,,,,,,,,,,,,,,,,,,,,,,,,,,,,,,,,159,001,2024_Jan_30_1548,SpeechDraft1Carolyn_lessNoise_PlusLocalization,2021.2.3,60.036862830597734,
clumps.wav,clumps.mpg,clumps,6,AV,Pink_Noise_6_1.wav,Pink_Noise_6_2.wav,,,,,,,,,,,,,,,0,96,96,62,,,,,,,,,,,,,,,,,,,,,,,731.2838147548027,None,732.8337594270706,None,734.2169721568935,None,"clubs
",734.2169721568935,None,return,2.1194612188264728,734.3004145966843,None,,,,,,,,,,,,,,,,,,,,,,,,,,,,,,,,,,,,,,,159,001,2024_Jan_30_1548,SpeechDraft1Carolyn_lessNoise_PlusLocalization,2021.2.3,60.036862830597734,
please.wav,please.mpg,please,4,A,Pink_Noise_4_1.wav,Pink_Noise_4_2.wav,,,,,,,,,,,,,,,0,97,97,10,,,,,,,,,,,,,,,,,,,,,,,736.4506142116152,None,737.9667357546277,None,739.3503623879515,None,face,739.3503623879515,None,return,1.3060741778463125,739.433875687886,None,,,,,,,,,,,,,,,,,,,,,,,,,,,,,,,,,,,,,,,159,001,2024_Jan_30_1548,SpeechDraft1Carolyn_lessNoise_PlusLocalization,2021.2.3,60.036862830597734,
fill.wav,fill.mpg,fill,4,A,Pink_Noise_4_1.wav,Pink_Noise_4_2.wav,,,,,,,,,,,,,,,0,98,98,59,,,,,,,,,,,,,,,,,,,,,,,740.7671032208018,None,742.2835693429224,None,743.6671415939927,None,bill,743.6671415939927,None,return,1.1816316787153482,743.7503025126643,None,,,,,,,,,,,,,,,,,,,,,,,,,,,,,,,,,,,,,,,159,001,2024_Jan_30_1548,SpeechDraft1Carolyn_lessNoise_PlusLocalization,2021.2.3,60.036862830597734,
cream.wav,cream.mpg,cream,4,A,Pink_Noise_4_1.wav,Pink_Noise_4_2.wav,,,,,,,,,,,,,,,0,99,99,43,,,,,,,,,,,,,,,,,,,,,,,744.9503377596848,None,746.4670729716308,None,747.8503544428386,None,"aim
",747.8503544428386,None,return,8.4539680541493,747.9339194726199,None,,,,,,,,,,,,,,,,,,,,,,,,,,,,,,,,,,,,,,,159,001,2024_Jan_30_1548,SpeechDraft1Carolyn_lessNoise_PlusLocalization,2021.2.3,60.036862830597734,
globe.wav,globe.mpg,globe,2,AV,Pink_Noise_2_1.wav,Pink_Noise_2_2.wav,,,,,,,,,,,,,,,0,100,100,80,,,,,,,,,,,,,,,,,,,,,,,756.4172416469082,None,757.9336571367458,None,759.3171232687309,None,"globe
",759.3171232687309,None,return,1.435273754876107,759.4006013968028,None,,,,,,,,,,,,,,,,,,,,,,,,,,,,,,,,,,,,,,,159,001,2024_Jan_30_1548,SpeechDraft1Carolyn_lessNoise_PlusLocalization,2021.2.3,60.036862830597734,
dual.wav,dual.mpg,dual,1,A,Pink_Noise_1_1.wav,Pink_Noise_1_2.wav,,,,,,,,,,,,,,,0,101,101,53,,,,,,,,,,,,,,,,,,,,,,,760.8672484057024,None,762.3834715648554,None,763.767426583916,None,duo,763.767426583916,None,return,1.0654425229877234,763.8505182079971,None,,,,,,,,,,,,,,,,,,,,,,,,,,,,,,,,,,,,,,,159,001,2024_Jan_30_1548,SpeechDraft1Carolyn_lessNoise_PlusLocalization,2021.2.3,60.036862830597734,
bleak.wav,bleak.mpg,bleak,4,AV,Pink_Noise_4_1.wav,Pink_Noise_4_2.wav,,,,,,,,,,,,,,,0,102,102,60,,,,,,,,,,,,,,,,,,,,,,,764.9338761446998,None,766.468393126037,None,767.8506652899086,None,"meel
",767.8506652899086,None,return,1.9339360198937356,767.9339142818935,None,,,,,,,,,,,,,,,,,,,,,,,,,,,,,,,,,,,,,,,159,001,2024_Jan_30_1548,SpeechDraft1Carolyn_lessNoise_PlusLocalization,2021.2.3,60.036862830597734,
dig.wav,dig.mpg,dig,1,A,Pink_Noise_1_1.wav,Pink_Noise_1_2.wav,,,,,,,,,,,,,,,0,103,103,36,,,,,,,,,,,,,,,,,,,,,,,769.9003422558308,None,771.4167315289378,None,772.8005769196898,None,dig,772.8005769196898,None,return,2.775860517285764,772.8839869829826,None,,,,,,,,,,,,,,,,,,,,,,,,,,,,,,,,,,,,,,,159,001,2024_Jan_30_1548,SpeechDraft1Carolyn_lessNoise_PlusLocalization,2021.2.3,60.036862830597734,
flair.wav,flair.mpg,flair,6,AV,Pink_Noise_6_1.wav,Pink_Noise_6_2.wav,,,,,,,,,,,,,,,0,104,104,98,,,,,,,,,,,,,,,,,,,,,,,775.6837931880727,None,777.2170716486871,None,778.6003174907528,None,"flame
",778.6003174907528,None,return,2.1840198570862412,778.683856620919,None,,,,,,,,,,,,,,,,,,,,,,,,,,,,,,,,,,,,,,,159,001,2024_Jan_30_1548,SpeechDraft1Carolyn_lessNoise_PlusLocalization,2021.2.3,60.036862830597734,
bold.wav,bold.mpg,bold,1,A,Pink_Noise_1_1.wav,Pink_Noise_1_2.wav,,,,,,,,,,,,,,,0,105,105,56,,,,,,,,,,,,,,,,,,,,,,,780.9004930937663,None,782.4181548389606,None,783.8004376548342,None,"bold
",783.8004376548342,None,return,0.9520599846728146,783.8838451229967,None,,,,,,,,,,,,,,,,,,,,,,,,,,,,,,,,,,,,,,,159,001,2024_Jan_30_1548,SpeechDraft1Carolyn_lessNoise_PlusLocalization,2021.2.3,60.036862830597734,
doll.wav,doll.mpg,doll,2,AV,Pink_Noise_2_1.wav,Pink_Noise_2_2.wav,,,,,,,,,,,,,,,0,106,106,90,,,,,,,,,,,,,,,,,,,,,,,784.8672279459424,None,786.3836256978102,None,787.767305994872,None,dull,787.767305994872,None,return,1.9615422147326171,787.8503352389671,None,,,,,,,,,,,,,,,,,,,,,,,,,,,,,,,,,,,,,,,159,001,2024_Jan_30_1548,SpeechDraft1Carolyn_lessNoise_PlusLocalization,2021.2.3,60.036862830597734,
claw.wav,claw.mpg,claw,4,AV,Pink_Noise_4_1.wav,Pink_Noise_4_2.wav,,,,,,,,,,,,,,,0,107,107,86,,,,,,,,,,,,,,,,,,,,,,,789.8338749948889,None,791.3501245016232,None,792.73372680787,None,law,792.73372680787,None,return,1.3227011850103736,792.8173032957129,None,,,,,,,,,,,,,,,,,,,,,,,,,,,,,,,,,,,,,,,159,001,2024_Jan_30_1548,SpeechDraft1Carolyn_lessNoise_PlusLocalization,2021.2.3,60.036862830597734,
fear.wav,fear.mpg,fear,3,AV,Pink_Noise_3_1.wav,Pink_Noise_3_2.wav,,,,,,,,,,,,,,,0,108,108,110,,,,,,,,,,,,,,,,,,,,,,,794.1672768867575,None,795.683404522948,None,797.0673196869902,None,"fear
",797.0673196869902,None,return,0.7175172190181911,797.1503583658487,None,,,,,,,,,,,,,,,,,,,,,,,,,,,,,,,,,,,,,,,159,001,2024_Jan_30_1548,SpeechDraft1Carolyn_lessNoise_PlusLocalization,2021.2.3,60.036862830597734,
bet.wav,bet.mpg,bet,4,A,Pink_Noise_4_1.wav,Pink_Noise_4_2.wav,,,,,,,,,,,,,,,0,109,109,40,,,,,,,,,,,,,,,,,,,,,,,797.9005670757033,None,799.4169867648743,None,800.8005750519224,None,bet,800.8005750519224,None,return,0.6001346250995994,800.8837486598641,None,,,,,,,,,,,,,,,,,,,,,,,,,,,,,,,,,,,,,,,159,001,2024_Jan_30_1548,SpeechDraft1Carolyn_lessNoise_PlusLocalization,2021.2.3,60.036862830597734,
fox.wav,fox.mpg,fox,2,AV,Pink_Noise_2_1.wav,Pink_Noise_2_2.wav,,,,,,,,,,,,,,,0,110,110,88,,,,,,,,,,,,,,,,,,,,,,,801.5004476457834,None,803.016802852042,None,804.4006858756766,None,fox,804.4006858756766,None,return,1.2562928930856287,804.4837229298428,None,,,,,,,,,,,,,,,,,,,,,,,,,,,,,,,,,,,,,,,159,001,2024_Jan_30_1548,SpeechDraft1Carolyn_lessNoise_PlusLocalization,2021.2.3,60.036862830597734,
ear.wav,ear.mpg,ear,1,AV,Pink_Noise_1_1.wav,Pink_Noise_1_2.wav,,,,,,,,,,,,,,,0,111,111,67,,,,,,,,,,,,,,,,,,,,,,,805.7671325746924,None,807.3169469670393,None,808.7005960117094,None,ear,808.7005960117094,None,return,0.8600226831622422,808.783846099861,None,,,,,,,,,,,,,,,,,,,,,,,,,,,,,,,,,,,,,,,159,001,2024_Jan_30_1548,SpeechDraft1Carolyn_lessNoise_PlusLocalization,2021.2.3,60.036862830597734,
oats.wav,oats.mpg,oats,5,A,Pink_Noise_5_1.wav,Pink_Noise_5_2.wav,,,,,,,,,,,,,,,0,112,112,6,,,,,,,,,,,,,,,,,,,,,,,809.6671800846234,None,811.2001752639189,None,812.5838148728944,None,chase,812.5838148728944,None,return,2.9047933449037373,812.6671095006168,None,,,,,,,,,,,,,,,,,,,,,,,,,,,,,,,,,,,,,,,159,001,2024_Jan_30_1548,SpeechDraft1Carolyn_lessNoise_PlusLocalization,2021.2.3,60.036862830597734,
curse.wav,curse.mpg,curse,5,A,Pink_Noise_5_1.wav,Pink_Noise_5_2.wav,,,,,,,,,,,,,,,0,113,113,23,,,,,,,,,,,,,,,,,,,,,,,815.6007438409142,None,817.1337230480276,None,818.5175413987599,None,curse,818.5175413987599,None,return,1.5553736411966383,818.6006017918698,None,,,,,,,,,,,,,,,,,,,,,,,,,,,,,,,,,,,,,,,159,001,2024_Jan_30_1548,SpeechDraft1Carolyn_lessNoise_PlusLocalization,2021.2.3,60.036862830597734,
cult.wav,cult.mpg,cult,3,A,Pink_Noise_3_1.wav,Pink_Noise_3_2.wav,,,,,,,,,,,,,,,0,114,114,35,,,,,,,,,,,,,,,,,,,,,,,820.1840977398679,None,821.7003639200702,None,823.0839610430412,None,coat,823.0839610430412,None,return,2.428484459873289,823.1673848126084,None,,,,,,,,,,,,,,,,,,,,,,,,,,,,,,,,,,,,,,,159,001,2024_Jan_30_1548,SpeechDraft1Carolyn_lessNoise_PlusLocalization,2021.2.3,60.036862830597734,
chew.wav,chew.mpg,chew,1,A,Pink_Noise_1_1.wav,Pink_Noise_1_2.wav,,,,,,,,,,,,,,,0,115,115,22,,,,,,,,,,,,,,,,,,,,,,,825.6174471466802,None,827.1502326880582,None,828.5339322099462,None,"chew
",828.5339322099462,None,return,0.8344191140495241,828.6174575597979,None,,,,,,,,,,,,,,,,,,,,,,,,,,,,,,,,,,,,,,,159,001,2024_Jan_30_1548,SpeechDraft1Carolyn_lessNoise_PlusLocalization,2021.2.3,60.036862830597734,
fowl.wav,fowl.mpg,fowl,5,A,Pink_Noise_5_1.wav,Pink_Noise_5_2.wav,,,,,,,,,,,,,,,0,116,116,13,,,,,,,,,,,,,,,,,,,,,,,829.4841031539254,None,831.0003461618908,None,832.3838994819671,None,"tired
",832.3838994819671,None,return,1.9045416642911732,832.4673409098759,None,,,,,,,,,,,,,,,,,,,,,,,,,,,,,,,,,,,,,,,159,001,2024_Jan_30_1548,SpeechDraft1Carolyn_lessNoise_PlusLocalization,2021.2.3,60.036862830597734,
grill.wav,grill.mpg,grill,2,A,Pink_Noise_2_1.wav,Pink_Noise_2_2.wav,,,,,,,,,,,,,,,0,117,117,12,,,,,,,,,,,,,,,,,,,,,,,834.400672884658,None,835.9172311387956,None,837.3007002286613,None,"grill
",837.3007002286613,None,return,1.0360393919982016,837.3838369539008,None,,,,,,,,,,,,,,,,,,,,,,,,,,,,,,,,,,,,,,,159,001,2024_Jan_30_1548,SpeechDraft1Carolyn_lessNoise_PlusLocalization,2021.2.3,60.036862830597734,
earn.wav,earn.mpg,earn,4,AV,Pink_Noise_4_1.wav,Pink_Noise_4_2.wav,,,,,,,,,,,,,,,0,118,118,75,,,,,,,,,,,,,,,,,,,,,,,838.4507165239193,None,839.9670113958418,None,841.3504705280066,None,earm,841.3504705280066,None,return,2.993899520020932,841.4340206738561,None,,,,,,,,,,,,,,,,,,,,,,,,,,,,,,,,,,,,,,,159,001,2024_Jan_30_1548,SpeechDraft1Carolyn_lessNoise_PlusLocalization,2021.2.3,60.036862830597734,
crisp.wav,crisp.mpg,crisp,6,AV,Pink_Noise_6_1.wav,Pink_Noise_6_2.wav,,,,,,,,,,,,,,,0,119,119,87,,,,,,,,,,,,,,,,,,,,,,,844.4504935718141,None,846.0001778970473,None,847.3837998639792,None,"crisp
",847.3837998639792,None,return,9.33643645234406,847.4674293808639,None,,,,,,,,,,,,,,,,,,,,,,,,,,,,,,,,,,,,,,,159,001,2024_Jan_30_1548,SpeechDraft1Carolyn_lessNoise_PlusLocalization,2021.2.3,60.036862830597734,
,,,,,,,,,,,,,,,,,,,,,,,,,,,,,,,,,,,,,,,,,,,,,,,,,,,,,,,,,,,,,,,,,,space,14.613800139632076,856.9341308828443,None,,,,,,,,,,,,,,,,,,,,,,,,,,,,,159,001,2024_Jan_30_1548,SpeechDraft1Carolyn_lessNoise_PlusLocalization,2021.2.3,60.036862830597734,
,,,,,,,,farLeft,-19.1,5,ch1Sound_localizationTask.wav,-19.1,"(667, 878)","(-293,-202)",-285,-338,,,,,,,,,0,0,0,0,,,,,,,,,,,,,,,,,,,,,,,,,,,,,,,,,,,,,,,,,,856.9341308828443,None,871.6002975548618,None,872.7002669400536,None,873.6169690620154,None,1.3904761904761904,2.268845554906875,873.6169690620154,None,,,,,,,,,,,,,,,,,159,001,2024_Jan_30_1548,SpeechDraft1Carolyn_lessNoise_PlusLocalization,2021.2.3,60.036862830597734,
,,,,,,,,nearRight,6.5,0,ch1Sound_localizationTask.wav,6.5,"(1047, 878)","(87, -202)",95,-338,,,,,,,,,0,1,1,4,,,,,,,,,,,,,,,,,,,,,,,,,,,,,,,,,,,,,,,,,,,,875.8851875178516,None,877.000494773034,None,877.9170658709481,None,1.5814814814814815,1.1677762549370527,877.9170658709481,None,,,,,,,,,,,,,,,,,159,001,2024_Jan_30_1548,SpeechDraft1Carolyn_lessNoise_PlusLocalization,2021.2.3,60.036862830597734,
,,,,,,,,farRight,19.1,4,ch1Sound_localizationTask.wav,19.1,"(1237, 878)","(277,-202)",285,-338,,,,,,,,,0,2,2,6,,,,,,,,,,,,,,,,,,,,,,,,,,,,,,,,,,,,,,,,,,,,879.1007794030011,None,880.2004252979532,None,881.1336625567637,None,1.7164021164021164,0.8500360818579793,881.1336625567637,None,,,,,,,,,,,,,,,,,159,001,2024_Jan_30_1548,SpeechDraft1Carolyn_lessNoise_PlusLocalization,2021.2.3,60.036862830597734,
,,,,,,,,nearLeft,-6.5,1,ch1Sound_localizationTask.wav,-6.5,"(857, 878)","(-103,-202)",-95,-338,,,,,,,,,0,3,3,2,,,,,,,,,,,,,,,,,,,,,,,,,,,,,,,,,,,,,,,,,,,,882.0005724728107,None,883.1002976116724,None,884.0335900220089,None,1.3984126984126983,0.8830589409917593,884.0335900220089,None,,,,,,,,,,,,,,,,,159,001,2024_Jan_30_1548,SpeechDraft1Carolyn_lessNoise_PlusLocalization,2021.2.3,60.036862830597734,
,,,,,,,,nearLeft,-6.5,1,ch1Sound_localizationTask.wav,-6.5,"(857, 878)","(-103,-202)",-95,-338,,,,,,,,,0,4,4,2,,,,,,,,,,,,,,,,,,,,,,,,,,,,,,,,,,,,,,,,,,,,884.917996710632,None,886.0172722428106,None,886.9502675407566,None,1.4343915343915343,0.9833102398552,886.9502675407566,None,,,,,,,,,,,,,,,,,159,001,2024_Jan_30_1548,SpeechDraft1Carolyn_lessNoise_PlusLocalization,2021.2.3,60.036862830597734,
,,,,,,,,midRight,13.0,3,ch1Sound_localizationTask.wav,13.0,"(1142, 878)","(182, -202)",190,-338,,,,,,,,,0,5,5,5,,,,,,,,,,,,,,,,,,,,,,,,,,,,,,,,,,,,,,,,,,,,887.9347232850268,None,889.0336715299636,None,889.9671335597523,None,1.9677248677248678,2.8332860181108117,889.9671335597523,None,,,,,,,,,,,,,,,,,159,001,2024_Jan_30_1548,SpeechDraft1Carolyn_lessNoise_PlusLocalization,2021.2.3,60.036862830597734,
,,,,,,,,nearRight,6.5,0,ch1Sound_localizationTask.wav,6.5,"(1047, 878)","(87, -202)",95,-338,,,,,,,,,0,6,6,4,,,,,,,,,,,,,,,,,,,,,,,,,,,,,,,,,,,,,,,,,,,,892.8021186208352,None,893.9171200776473,None,894.8336516716518,None,1.5629629629629629,0.848597189411521,894.8336516716518,None,,,,,,,,,,,,,,,,,159,001,2024_Jan_30_1548,SpeechDraft1Carolyn_lessNoise_PlusLocalization,2021.2.3,60.036862830597734,
,,,,,,,,center,0.0,6,ch1Sound_localizationTask.wav,0.0,"(952, 878)","(-8,-202)",0,-338,,,,,,,,,1,0,7,3,,,,,,,,,,,,,,,,,,,,,,,,,,,,,,,,,,,,,,,,,,,,895.6843049046583,None,896.7839078586549,None,897.7169575230218,None,1.4798941798941798,1.0838061040267348,897.7169575230218,None,,,,,,,,,,,,,,,,,159,001,2024_Jan_30_1548,SpeechDraft1Carolyn_lessNoise_PlusLocalization,2021.2.3,60.036862830597734,
,,,,,,,,nearLeft,-6.5,1,ch1Sound_localizationTask.wav,-6.5,"(857, 878)","(-103,-202)",-95,-338,,,,,,,,,1,1,8,2,,,,,,,,,,,,,,,,,,,,,,,,,,,,,,,,,,,,,,,,,,,,898.8175496417098,None,899.9169219057076,None,900.850223088637,None,1.3582010582010582,0.6667471188120544,900.850223088637,None,,,,,,,,,,,,,,,,,159,001,2024_Jan_30_1548,SpeechDraft1Carolyn_lessNoise_PlusLocalization,2021.2.3,60.036862830597734,
,,,,,,,,nearLeft,-6.5,1,ch1Sound_localizationTask.wav,-6.5,"(857, 878)","(-103,-202)",-95,-338,,,,,,,,,1,2,9,2,,,,,,,,,,,,,,,,,,,,,,,,,,,,,,,,,,,,,,,,,,,,901.5340322959237,None,902.6336786686443,None,903.5672445269302,None,1.5005291005291004,0.48356671491637826,903.5672445269302,None,,,,,,,,,,,,,,,,,159,001,2024_Jan_30_1548,SpeechDraft1Carolyn_lessNoise_PlusLocalization,2021.2.3,60.036862830597734,
,,,,,,,,farRight,19.1,4,ch1Sound_localizationTask.wav,19.1,"(1237, 878)","(277,-202)",285,-338,,,,,,,,,1,3,10,6,,,,,,,,,,,,,,,,,,,,,,,,,,,,,,,,,,,,,,,,,,,,904.0673570819199,None,905.1672944980673,None,906.1003280417062,None,1.783068783068783,0.8186552380211651,906.1003280417062,None,,,,,,,,,,,,,,,,,159,001,2024_Jan_30_1548,SpeechDraft1Carolyn_lessNoise_PlusLocalization,2021.2.3,60.036862830597734,
,,,,,,,,center,0.0,6,ch1Sound_localizationTask.wav,0.0,"(952, 878)","(-8,-202)",0,-338,,,,,,,,,1,4,11,3,,,,,,,,,,,,,,,,,,,,,,,,,,,,,,,,,,,,,,,,,,,,906.9341193409637,None,908.0335198170505,None,908.9673218228854,None,1.5164021164021164,0.7836852478794754,908.9673218228854,None,,,,,,,,,,,,,,,,,159,001,2024_Jan_30_1548,SpeechDraft1Carolyn_lessNoise_PlusLocalization,2021.2.3,60.036862830597734,
,,,,,,,,midRight,13.0,3,ch1Sound_localizationTask.wav,13.0,"(1142, 878)","(182, -202)",190,-338,,,,,,,,,1,5,12,5,,,,,,,,,,,,,,,,,,,,,,,,,,,,,,,,,,,,,,,,,,,,909.7675818866119,None,910.8671671249904,None,911.8002716596238,None,1.8015873015873016,0.8820986808277667,911.8002716596238,None,,,,,,,,,,,,,,,,,159,001,2024_Jan_30_1548,SpeechDraft1Carolyn_lessNoise_PlusLocalization,2021.2.3,60.036862830597734,
,,,,,,,,farLeft,-19.1,5,ch1Sound_localizationTask.wav,-19.1,"(667, 878)","(-293,-202)",-285,-338,,,,,,,,,1,6,13,0,,,,,,,,,,,,,,,,,,,,,,,,,,,,,,,,,,,,,,,,,,,,912.6842393646948,None,913.7838784018531,None,914.7170295869,None,1.2777777777777777,0.734215151052922,914.7170295869,None,,,,,,,,,,,,,,,,,159,001,2024_Jan_30_1548,SpeechDraft1Carolyn_lessNoise_PlusLocalization,2021.2.3,60.036862830597734,
,,,,,,,,nearRight,6.5,0,ch1Sound_localizationTask.wav,6.5,"(1047, 878)","(87, -202)",95,-338,,,,,,,,,2,0,14,4,,,,,,,,,,,,,,,,,,,,,,,,,,,,,,,,,,,,,,,,,,,,915.4674337757751,None,916.5671168346889,None,917.5004478888586,None,1.5941798941798941,0.700624309014529,917.5004478888586,None,,,,,,,,,,,,,,,,,159,001,2024_Jan_30_1548,SpeechDraft1Carolyn_lessNoise_PlusLocalization,2021.2.3,60.036862830597734,
,,,,,,,,nearLeft,-6.5,1,ch1Sound_localizationTask.wav,-6.5,"(857, 878)","(-103,-202)",-95,-338,,,,,,,,,2,1,15,2,,,,,,,,,,,,,,,,,,,,,,,,,,,,,,,,,,,,,,,,,,,,918.2175561157055,None,919.3172145159915,None,920.250138618052,None,1.4026455026455027,0.851317036896944,920.250138618052,None,,,,,,,,,,,,,,,,,159,001,2024_Jan_30_1548,SpeechDraft1Carolyn_lessNoise_PlusLocalization,2021.2.3,60.036862830597734,
,,,,,,,,midLeft,-13.0,2,ch1Sound_localizationTask.wav,-13.0,"(762, 878)","(-198,-202)",-190,-338,,,,,,,,,2,2,16,1,,,,,,,,,,,,,,,,,,,,,,,,,,,,,,,,,,,,,,,,,,,,921.1174734309316,None,922.2170397168957,None,923.1502271438949,None,1.3031746031746032,1.1153231039643288,923.1502271438949,None,,,,,,,,,,,,,,,,,159,001,2024_Jan_30_1548,SpeechDraft1Carolyn_lessNoise_PlusLocalization,2021.2.3,60.036862830597734,
,,,,,,,,farLeft,-19.1,5,ch1Sound_localizationTask.wav,-19.1,"(667, 878)","(-293,-202)",-285,-338,,,,,,,,,2,3,17,0,,,,,,,,,,,,,,,,,,,,,,,,,,,,,,,,,,,,,,,,,,,,924.2674768008292,None,925.3672837158665,None,926.3004754916765,None,1.3708994708994708,1.1854912689886987,926.3004754916765,None,,,,,,,,,,,,,,,,,159,001,2024_Jan_30_1548,SpeechDraft1Carolyn_lessNoise_PlusLocalization,2021.2.3,60.036862830597734,
,,,,,,,,midLeft,-13.0,2,ch1Sound_localizationTask.wav,-13.0,"(762, 878)","(-198,-202)",-190,-338,,,,,,,,,2,4,18,1,,,,,,,,,,,,,,,,,,,,,,,,,,,,,,,,,,,,,,,,,,,,927.5006561586633,None,928.6002598139457,None,929.5338934990577,None,1.408994708994709,0.9165114248171449,929.5338934990577,None,,,,,,,,,,,,,,,,,159,001,2024_Jan_30_1548,SpeechDraft1Carolyn_lessNoise_PlusLocalization,2021.2.3,60.036862830597734,
,,,,,,,,center,0.0,6,ch1Sound_localizationTask.wav,0.0,"(952, 878)","(-8,-202)",0,-338,,,,,,,,,2,5,19,3,,,,,,,,,,,,,,,,,,,,,,,,,,,,,,,,,,,,,,,,,,,,930.4674629578367,None,931.5671664508991,None,932.5003207777627,None,1.5227513227513227,0.7163603990338743,932.5003207777627,None,,,,,,,,,,,,,,,,,159,001,2024_Jan_30_1548,SpeechDraft1Carolyn_lessNoise_PlusLocalization,2021.2.3,60.036862830597734,
,,,,,,,,center,0.0,6,ch1Sound_localizationTask.wav,0.0,"(952, 878)","(-8,-202)",0,-338,,,,,,,,,2,6,20,3,,,,,,,,,,,,,,,,,,,,,,,,,,,,,,,,,,,,,,,,,,,,933.218017550651,None,934.3169670086354,None,935.2506135269068,None,1.482010582010582,0.8331819623708725,935.2506135269068,None,,,,,,,,,,,,,,,,,159,001,2024_Jan_30_1548,SpeechDraft1Carolyn_lessNoise_PlusLocalization,2021.2.3,60.036862830597734,
,,,,,,,,nearRight,6.5,0,ch1Sound_localizationTask.wav,6.5,"(1047, 878)","(87, -202)",95,-338,,,,,,,,,3,0,21,4,,,,,,,,,,,,,,,,,,,,,,,,,,,,,,,,,,,,,,,,,,,,936.0856504826806,None,937.2004172829911,None,938.1171667519957,None,1.6656084656084655,0.7346999729052186,938.1171667519957,None,,,,,,,,,,,,,,,,,159,001,2024_Jan_30_1548,SpeechDraft1Carolyn_lessNoise_PlusLocalization,2021.2.3,60.036862830597734,
,,,,,,,,farRight,19.1,4,ch1Sound_localizationTask.wav,19.1,"(1237, 878)","(277,-202)",285,-338,,,,,,,,,3,1,22,6,,,,,,,,,,,,,,,,,,,,,,,,,,,,,,,,,,,,,,,,,,,,938.8674518489279,None,939.9672991428524,None,940.9003126346506,None,1.6142857142857143,0.5323450742289424,940.9003126346506,None,,,,,,,,,,,,,,,,,159,001,2024_Jan_30_1548,SpeechDraft1Carolyn_lessNoise_PlusLocalization,2021.2.3,60.036862830597734,
,,,,,,,,nearLeft,-6.5,1,ch1Sound_localizationTask.wav,-6.5,"(857, 878)","(-103,-202)",-95,-338,,,,,,,,,3,2,23,2,,,,,,,,,,,,,,,,,,,,,,,,,,,,,,,,,,,,,,,,,,,,941.4343615239486,None,942.5337715558708,None,943.467082052026,None,1.3650793650793651,0.6507861199788749,943.467082052026,None,,,,,,,,,,,,,,,,,159,001,2024_Jan_30_1548,SpeechDraft1Carolyn_lessNoise_PlusLocalization,2021.2.3,60.036862830597734,
,,,,,,,,farLeft,-19.1,5,ch1Sound_localizationTask.wav,-19.1,"(667, 878)","(-293,-202)",-285,-338,,,,,,,,,3,3,24,0,,,,,,,,,,,,,,,,,,,,,,,,,,,,,,,,,,,,,,,,,,,,944.1341319489293,None,945.2336560897529,None,946.1670911358669,None,1.4386243386243387,0.76603639498353,946.1670911358669,None,,,,,,,,,,,,,,,,,159,001,2024_Jan_30_1548,SpeechDraft1Carolyn_lessNoise_PlusLocalization,2021.2.3,60.036862830597734,
,,,,,,,,farRight,19.1,4,ch1Sound_localizationTask.wav,19.1,"(1237, 878)","(277,-202)",285,-338,,,,,,,,,3,4,25,6,,,,,,,,,,,,,,,,,,,,,,,,,,,,,,,,,,,,,,,,,,,,946.9348233467899,None,948.0338497557677,None,948.9672617316246,None,1.6804232804232804,0.6988916271366179,948.9672617316246,None,,,,,,,,,,,,,,,,,159,001,2024_Jan_30_1548,SpeechDraft1Carolyn_lessNoise_PlusLocalization,2021.2.3,60.036862830597734,
,,,,,,,,nearRight,6.5,0,ch1Sound_localizationTask.wav,6.5,"(1047, 878)","(87, -202)",95,-338,,,,,,,,,3,5,26,4,,,,,,,,,,,,,,,,,,,,,,,,,,,,,,,,,,,,,,,,,,,,949.6675766217522,None,950.7670626179315,None,951.7005086666904,None,1.5629629629629629,0.6165067059919238,951.7005086666904,None,,,,,,,,,,,,,,,,,159,001,2024_Jan_30_1548,SpeechDraft1Carolyn_lessNoise_PlusLocalization,2021.2.3,60.036862830597734,
,,,,,,,,farLeft,-19.1,5,ch1Sound_localizationTask.wav,-19.1,"(667, 878)","(-293,-202)",-285,-338,,,,,,,,,3,6,27,0,,,,,,,,,,,,,,,,,,,,,,,,,,,,,,,,,,,,,,,,,,,,952.3179436279461,None,953.4171288660727,None,954.3502863296308,None,1.3126984126984127,0.5333202830515802,954.3502863296308,None,,,,,,,,,,,,,,,,,159,001,2024_Jan_30_1548,SpeechDraft1Carolyn_lessNoise_PlusLocalization,2021.2.3,60.036862830597734,
,,,,,,,,midRight,13.0,3,ch1Sound_localizationTask.wav,13.0,"(1142, 878)","(182, -202)",190,-338,,,,,,,,,4,0,28,5,,,,,,,,,,,,,,,,,,,,,,,,,,,,,,,,,,,,,,,,,,,,954.8847500849515,None,955.9840367739089,None,956.9170425110497,None,1.737037037037037,0.6672097463160753,956.9170425110497,None,,,,,,,,,,,,,,,,,159,001,2024_Jan_30_1548,SpeechDraft1Carolyn_lessNoise_PlusLocalization,2021.2.3,60.036862830597734,
,,,,,,,,midRight,13.0,3,ch1Sound_localizationTask.wav,13.0,"(1142, 878)","(182, -202)",190,-338,,,,,,,,,4,1,29,5,,,,,,,,,,,,,,,,,,,,,,,,,,,,,,,,,,,,,,,,,,,,957.6008396279067,None,958.700730196666,None,959.6337811648846,None,1.8396825396825398,0.5169457383453846,959.6337811648846,None,,,,,,,,,,,,,,,,,159,001,2024_Jan_30_1548,SpeechDraft1Carolyn_lessNoise_PlusLocalization,2021.2.3,60.036862830597734,
,,,,,,,,midLeft,-13.0,2,ch1Sound_localizationTask.wav,-13.0,"(762, 878)","(-198,-202)",-190,-338,,,,,,,,,4,2,30,1,,,,,,,,,,,,,,,,,,,,,,,,,,,,,,,,,,,,,,,,,,,,960.1672415668145,None,961.2669925927185,None,962.1838496290147,None,1.3878306878306879,0.6828475059010088,962.1838496290147,None,,,,,,,,,,,,,,,,,159,001,2024_Jan_30_1548,SpeechDraft1Carolyn_lessNoise_PlusLocalization,2021.2.3,60.036862830597734,
,,,,,,,,nearLeft,-6.5,1,ch1Sound_localizationTask.wav,-6.5,"(857, 878)","(-103,-202)",-95,-338,,,,,,,,,4,3,31,2,,,,,,,,,,,,,,,,,,,,,,,,,,,,,,,,,,,,,,,,,,,,962.8693110300228,None,963.9835940380581,None,964.9006022908725,None,1.491005291005291,0.49928599409759045,964.9006022908725,None,,,,,,,,,,,,,,,,,159,001,2024_Jan_30_1548,SpeechDraft1Carolyn_lessNoise_PlusLocalization,2021.2.3,60.036862830597734,
,,,,,,,,farLeft,-19.1,5,ch1Sound_localizationTask.wav,-19.1,"(667, 878)","(-293,-202)",-285,-338,,,,,,,,,4,4,32,0,,,,,,,,,,,,,,,,,,,,,,,,,,,,,,,,,,,,,,,,,,,,965.4011428309605,None,966.5004754108377,None,967.4335754867643,None,1.3243386243386244,0.4327366119250655,967.4335754867643,None,,,,,,,,,,,,,,,,,159,001,2024_Jan_30_1548,SpeechDraft1Carolyn_lessNoise_PlusLocalization,2021.2.3,60.036862830597734,
,,,,,,,,midLeft,-13.0,2,ch1Sound_localizationTask.wav,-13.0,"(762, 878)","(-198,-202)",-190,-338,,,,,,,,,4,5,33,1,,,,,,,,,,,,,,,,,,,,,,,,,,,,,,,,,,,,,,,,,,,,967.8675629189238,None,968.9673041780479,None,969.9004001459107,None,1.4174603174603175,0.39987116772681475,969.9004001459107,None,,,,,,,,,,,,,,,,,159,001,2024_Jan_30_1548,SpeechDraft1Carolyn_lessNoise_PlusLocalization,2021.2.3,60.036862830597734,
,,,,,,,,farRight,19.1,4,ch1Sound_localizationTask.wav,19.1,"(1237, 878)","(277,-202)",285,-338,,,,,,,,,4,6,34,6,,,,,,,,,,,,,,,,,,,,,,,,,,,,,,,,,,,,,,,,,,,,970.3015779000707,None,971.4004353927448,None,972.3337562256493,None,1.7386243386243385,0.6510754800401628,972.3337562256493,None,,,,,,,,,,,,,,,,,159,001,2024_Jan_30_1548,SpeechDraft1Carolyn_lessNoise_PlusLocalization,2021.2.3,60.036862830597734,
,,,,,,,,nearLeft,-6.5,1,ch1Sound_localizationTask.wav,-6.5,"(857, 878)","(-103,-202)",-95,-338,,,,,,,,,5,0,35,2,,,,,,,,,,,,,,,,,,,,,,,,,,,,,,,,,,,,,,,,,,,,973.0008756699972,None,974.1005595237948,None,975.03381952364,None,1.470899470899471,0.666100291069597,975.03381952364,None,,,,,,,,,,,,,,,,,159,001,2024_Jan_30_1548,SpeechDraft1Carolyn_lessNoise_PlusLocalization,2021.2.3,60.036862830597734,
,,,,,,,,center,0.0,6,ch1Sound_localizationTask.wav,0.0,"(952, 878)","(-8,-202)",0,-338,,,,,,,,,5,1,36,3,,,,,,,,,,,,,,,,,,,,,,,,,,,,,,,,,,,,,,,,,,,,975.70130916778,None,976.8004726157524,None,977.7339047538117,None,1.4582010582010583,0.9344905870966613,977.7339047538117,None,,,,,,,,,,,,,,,,,159,001,2024_Jan_30_1548,SpeechDraft1Carolyn_lessNoise_PlusLocalization,2021.2.3,60.036862830597734,
,,,,,,,,farRight,19.1,4,ch1Sound_localizationTask.wav,19.1,"(1237, 878)","(277,-202)",285,-338,,,,,,,,,5,2,37,6,,,,,,,,,,,,,,,,,,,,,,,,,,,,,,,,,,,,,,,,,,,,978.6840496677905,None,979.7837848779745,None,980.7171985269524,None,1.6677248677248677,0.5831447909586132,980.7171985269524,None,,,,,,,,,,,,,,,,,159,001,2024_Jan_30_1548,SpeechDraft1Carolyn_lessNoise_PlusLocalization,2021.2.3,60.036862830597734,
,,,,,,,,farLeft,-19.1,5,ch1Sound_localizationTask.wav,-19.1,"(667, 878)","(-293,-202)",-285,-338,,,,,,,,,5,3,38,0,,,,,,,,,,,,,,,,,,,,,,,,,,,,,,,,,,,,,,,,,,,,981.3010093290359,None,982.4004128226079,None,983.3337892959826,None,1.2301587301587302,0.6168824932537973,983.3337892959826,None,,,,,,,,,,,,,,,,,159,001,2024_Jan_30_1548,SpeechDraft1Carolyn_lessNoise_PlusLocalization,2021.2.3,60.036862830597734,
,,,,,,,,midLeft,-13.0,2,ch1Sound_localizationTask.wav,-13.0,"(762, 878)","(-198,-202)",-190,-338,,,,,,,,,5,4,39,1,,,,,,,,,,,,,,,,,,,,,,,,,,,,,,,,,,,,,,,,,,,,983.967571455054,None,985.0671819038689,None,986.0006202887744,None,1.4322751322751324,0.6319318120367825,986.0006202887744,None,,,,,,,,,,,,,,,,,159,001,2024_Jan_30_1548,SpeechDraft1Carolyn_lessNoise_PlusLocalization,2021.2.3,60.036862830597734,
,,,,,,,,farLeft,-19.1,5,ch1Sound_localizationTask.wav,-19.1,"(667, 878)","(-293,-202)",-285,-338,,,,,,,,,5,5,40,0,,,,,,,,,,,,,,,,,,,,,,,,,,,,,,,,,,,,,,,,,,,,986.6342312670313,None,987.7336225337349,None,988.6670202170499,None,1.3047619047619048,0.39977644803002477,988.6670202170499,None,,,,,,,,,,,,,,,,,159,001,2024_Jan_30_1548,SpeechDraft1Carolyn_lessNoise_PlusLocalization,2021.2.3,60.036862830597734,
,,,,,,,,midRight,13.0,3,ch1Sound_localizationTask.wav,13.0,"(1142, 878)","(182, -202)",190,-338,,,,,,,,,5,6,41,5,,,,,,,,,,,,,,,,,,,,,,,,,,,,,,,,,,,,,,,,,,,,989.0683542839251,None,990.1670407718047,None,991.1005270117894,None,1.7201058201058201,0.6511251321062446,991.1005270117894,None,,,,,,,,,,,,,,,,,159,001,2024_Jan_30_1548,SpeechDraft1Carolyn_lessNoise_PlusLocalization,2021.2.3,60.036862830597734,
,,,,,,,,midLeft,-13.0,2,ch1Sound_localizationTask.wav,-13.0,"(762, 878)","(-198,-202)",-190,-338,,,,,,,,,6,0,42,1,,,,,,,,,,,,,,,,,,,,,,,,,,,,,,,,,,,,,,,,,,,,991.7675256687216,None,992.8670437559485,None,993.8003949769773,None,1.402116402116402,0.5671988017857075,993.8003949769773,None,,,,,,,,,,,,,,,,,159,001,2024_Jan_30_1548,SpeechDraft1Carolyn_lessNoise_PlusLocalization,2021.2.3,60.036862830597734,
,,,,,,,,midRight,13.0,3,ch1Sound_localizationTask.wav,13.0,"(1142, 878)","(182, -202)",190,-338,,,,,,,,,6,1,43,5,,,,,,,,,,,,,,,,,,,,,,,,,,,,,,,,,,,,,,,,,,,,994.3841808340512,None,995.4838396557607,None,996.4175442266278,None,1.826984126984127,0.5666680387221277,996.4175442266278,None,,,,,,,,,,,,,,,,,159,001,2024_Jan_30_1548,SpeechDraft1Carolyn_lessNoise_PlusLocalization,2021.2.3,60.036862830597734,
,,,,,,,,nearRight,6.5,0,ch1Sound_localizationTask.wav,6.5,"(1047, 878)","(87, -202)",95,-338,,,,,,,,,6,2,44,4,,,,,,,,,,,,,,,,,,,,,,,,,,,,,,,,,,,,,,,,,,,,997.0008741137572,None,998.1003548828885,None,999.0339080160484,None,1.4306878306878308,0.5834313458763063,999.0339080160484,None,,,,,,,,,,,,,,,,,159,001,2024_Jan_30_1548,SpeechDraft1Carolyn_lessNoise_PlusLocalization,2021.2.3,60.036862830597734,
,,,,,,,,center,0.0,6,ch1Sound_localizationTask.wav,0.0,"(952, 878)","(-8,-202)",0,-338,,,,,,,,,6,3,45,3,,,,,,,,,,,,,,,,,,,,,,,,,,,,,,,,,,,,,,,,,,,,999.6342035438865,None,1000.7337783086114,None,1001.6670291298069,None,1.5132275132275133,0.6325834169983864,1001.6670291298069,None,,,,,,,,,,,,,,,,,159,001,2024_Jan_30_1548,SpeechDraft1Carolyn_lessNoise_PlusLocalization,2021.2.3,60.036862830597734,
,,,,,,,,center,0.0,6,ch1Sound_localizationTask.wav,0.0,"(952, 878)","(-8,-202)",0,-338,,,,,,,,,6,4,46,3,,,,,,,,,,,,,,,,,,,,,,,,,,,,,,,,,,,,,,,,,,,,1002.3014673707075,None,1003.4002148476429,None,1004.3338013566099,None,1.4798941798941798,0.5184648530557752,1004.3338013566099,None,,,,,,,,,,,,,,,,,159,001,2024_Jan_30_1548,SpeechDraft1Carolyn_lessNoise_PlusLocalization,2021.2.3,60.036862830597734,
,,,,,,,,nearRight,6.5,0,ch1Sound_localizationTask.wav,6.5,"(1047, 878)","(87, -202)",95,-338,,,,,,,,,6,5,47,4,,,,,,,,,,,,,,,,,,,,,,,,,,,,,,,,,,,,,,,,,,,,1004.867539937608,None,1005.9671438219957,None,1006.9004434659146,None,1.4798941798941798,0.29940678970888257,1006.9004434659146,None,,,,,,,,,,,,,,,,,159,001,2024_Jan_30_1548,SpeechDraft1Carolyn_lessNoise_PlusLocalization,2021.2.3,60.036862830597734,
,,,,,,,,midLeft,-13.0,2,ch1Sound_localizationTask.wav,-13.0,"(762, 878)","(-198,-202)",-190,-338,,,,,,,,,6,6,48,1,,,,,,,,,,,,,,,,,,,,,,,,,,,,,,,,,,,,,,,,,,,,1007.2013554619625,None,1008.3003551806323,None,1009.233838787768,None,1.4074074074074074,0.3498042463324964,1009.233838787768,None,,,,,,,,,,,,,,,,,159,001,2024_Jan_30_1548,SpeechDraft1Carolyn_lessNoise_PlusLocalization,2021.2.3,60.036862830597734,
,,,,,,,,midLeft,-13.0,2,ch1Sound_localizationTask.wav,-13.0,"(762, 878)","(-198,-202)",-190,-338,,,,,,,,,7,0,49,1,,,,,,,,,,,,,,,,,,,,,,,,,,,,,,,,,,,,,,,,,,,,1009.5848914119415,None,1010.6838713386096,None,1011.6170332869515,None,1.367195767195767,0.5836243079975247,1011.6170332869515,None,,,,,,,,,,,,,,,,,159,001,2024_Jan_30_1548,SpeechDraft1Carolyn_lessNoise_PlusLocalization,2021.2.3,60.036862830597734,
,,,,,,,,midRight,13.0,3,ch1Sound_localizationTask.wav,13.0,"(1142, 878)","(182, -202)",190,-338,,,,,,,,,7,1,50,5,,,,,,,,,,,,,,,,,,,,,,,,,,,,,,,,,,,,,,,,,,,,1012.2015209007077,None,1013.3004240319133,None,1014.2337075448595,None,1.6634920634920634,0.6826493549160659,1014.2337075448595,None,,,,,,,,,,,,,,,,,159,001,2024_Jan_30_1548,SpeechDraft1Carolyn_lessNoise_PlusLocalization,2021.2.3,60.036862830597734,
,,,,,,,,farRight,19.1,4,ch1Sound_localizationTask.wav,19.1,"(1237, 878)","(277,-202)",285,-338,,,,,,,,,7,2,51,6,,,,,,,,,,,,,,,,,,,,,,,,,,,,,,,,,,,,,,,,,,,,1014.9178007058799,None,1016.0170694519766,None,1016.950493501965,None,1.693121693121693,0.383759219199419,1016.950493501965,None,,,,,,,,,,,,,,,,,159,001,2024_Jan_30_1548,SpeechDraft1Carolyn_lessNoise_PlusLocalization,2021.2.3,60.036862830597734,
,,,,,,,,nearRight,6.5,0,ch1Sound_localizationTask.wav,6.5,"(1047, 878)","(87, -202)",95,-338,,,,,,,,,7,3,52,4,,,,,,,,,,,,,,,,,,,,,,,,,,,,,,,,,,,,,,,,,,,,1017.3358935397118,None,1018.4505818788894,None,1019.3673741137609,None,1.5931216931216932,1.3997211181558669,1019.3673741137609,None,,,,,,,,,,,,,,,,,159,001,2024_Jan_30_1548,SpeechDraft1Carolyn_lessNoise_PlusLocalization,2021.2.3,60.036862830597734,
,,,,,,,,midRight,13.0,3,ch1Sound_localizationTask.wav,13.0,"(1142, 878)","(182, -202)",190,-338,,,,,,,,,7,4,53,5,,,,,,,,,,,,,,,,,,,,,,,,,,,,,,,,,,,,,,,,,,,,1020.7682018880732,None,1021.8671222450212,None,1022.8005598117597,None,1.7687830687830688,0.599882225971669,1022.8005598117597,None,,,,,,,,,,,,,,,,,159,001,2024_Jan_30_1548,SpeechDraft1Carolyn_lessNoise_PlusLocalization,2021.2.3,60.036862830597734,
,,,,,,,,center,0.0,6,ch1Sound_localizationTask.wav,0.0,"(952, 878)","(-8,-202)",0,-338,,,,,,,,,7,5,54,3,,,,,,,,,,,,,,,,,,,,,,,,,,,,,,,,,,,,,,,,,,,,1023.4008204219863,None,1024.500629751943,None,1025.433663138654,None,1.3952380952380952,0.5487839980050921,1025.433663138654,None,,,,,,,,,,,,,,,,,159,001,2024_Jan_30_1548,SpeechDraft1Carolyn_lessNoise_PlusLocalization,2021.2.3,60.036862830597734,
,,,,,,,,farRight,19.1,4,ch1Sound_localizationTask.wav,19.1,"(1237, 878)","(277,-202)",285,-338,,,,,,,,,7,6,55,6,,,,,,,,,,,,,,,,,,,,,,,,,,,,,,,,,,,,,,,,,,,,1025.9841263038106,None,1027.083926689811,None,1028.0173283098266,None,1.6481481481481481,0.6687526982277632,1028.0173283098266,None,,,,,,,,,,,,,,,,,159,001,2024_Jan_30_1548,SpeechDraft1Carolyn_lessNoise_PlusLocalization,2021.2.3,60.036862830597734,
,,,,,,,,,,,,,,,,,,,,,,,,,,,,,,,,,,,,,,,,,,,,,,,,,,,,,,,,,,,,,,,,,,,,,,,,,,,,,,,,,,space,16.307475514244288,1028.7844075937755,None,,,,,,,,,,,,,159,001,2024_Jan_30_1548,SpeechDraft1Carolyn_lessNoise_PlusLocalization,2021.2.3,60.036862830597734,
,,,,,,,,midLeft,-13.0,2,ch1Sound_localizationTask.wav,-13.0,"(762, 878)","(-198,-202)",-190,-338,,,,,,,,,,,,,0,0,0,1,,,,,,,,,,,,,,,,,,,,,,,,,,,,,,,,,,,,,,,,1045.1338821998797,None,,,1048.152038932778,None,1.37989417989418,1.5548176052980125,1048.152038932778,None,,,,,1028.7844075937755,None,1046.1342497747391,None,1046.3175995009951,1046.334237291012,,,,,,,159,001,2024_Jan_30_1548,SpeechDraft1Carolyn_lessNoise_PlusLocalization,2021.2.3,60.036862830597734,
,,,,,,,,farLeft,-19.1,5,ch1Sound_localizationTask.wav,-19.1,"(667, 878)","(-293,-202)",-285,-338,,,,,,,,,,,,,0,1,1,0,,,,,,,,,,,,,,,,,,,,,,,,,,,,,,,,,,,,,,,,1049.7183349216357,None,,,1052.7341132229194,None,1.3306878306878307,0.649238757789135,1052.7341132229194,None,,,,,,,1050.717628298793,None,1050.9009172390215,1050.9176948978566,,,,,,,159,001,2024_Jan_30_1548,SpeechDraft1Carolyn_lessNoise_PlusLocalization,2021.2.3,60.036862830597734,
,,,,,,,,farRight,19.1,4,ch1Sound_localizationTask.wav,19.1,"(1237, 878)","(277,-202)",285,-338,,,,,,,,,,,,,0,2,2,6,,,,,,,,,,,,,,,,,,,,,,,,,,,,,,,,,,,,,,,,1053.3851661197841,None,,,1056.4004014148377,None,1.615873015873016,0.8157558860257268,1056.4004014148377,None,,,,,,,1054.384314700961,None,1054.5674512446858,1054.5842210156843,,,,,,,159,001,2024_Jan_30_1548,SpeechDraft1Carolyn_lessNoise_PlusLocalization,2021.2.3,60.036862830597734,
,,,,,,,,nearRight,6.5,0,ch1Sound_localizationTask.wav,6.5,"(1047, 878)","(87, -202)",95,-338,,,,,,,,,,,,,0,3,3,4,,,,,,,,,,,,,,,,,,,,,,,,,,,,,,,,,,,,,,,,1057.2187181427144,None,,,1060.2504247026518,None,1.5613756613756613,0.6992237619124353,1060.2504247026518,None,,,,,,,1058.2342822640203,None,1058.4173730029725,1058.434337402694,,,,,,,159,001,2024_Jan_30_1548,SpeechDraft1Carolyn_lessNoise_PlusLocalization,2021.2.3,60.036862830597734,
,,,,,,,,center,0.0,6,ch1Sound_localizationTask.wav,0.0,"(952, 878)","(-8,-202)",0,-338,,,,,,,,,,,,,0,4,4,3,,,,,,,,,,,,,,,,,,,,,,,,,,,,,,,,,,,,,,,,1060.9518997636624,None,,,1063.9841871568933,None,1.5116402116402117,0.6351144928485155,1063.9841871568933,None,,,,,,,1061.967750985641,None,1062.1510625039227,1062.1676919558086,,,,,,,159,001,2024_Jan_30_1548,SpeechDraft1Carolyn_lessNoise_PlusLocalization,2021.2.3,60.036862830597734,
,,,,,,,,nearLeft,-6.5,1,ch1Sound_localizationTask.wav,-6.5,"(857, 878)","(-103,-202)",-95,-338,,,,,,,,,,,,,0,5,5,2,,,,,,,,,,,,,,,,,,,,,,,,,,,,,,,,,,,,,,,,1064.6342934877612,None,,,1067.6506791240536,None,1.446031746031746,0.5655071781948209,1067.6506791240536,None,,,,,,,1065.6342410016805,None,1065.8174771438353,1065.8341733706184,,,,,,,159,001,2024_Jan_30_1548,SpeechDraft1Carolyn_lessNoise_PlusLocalization,2021.2.3,60.036862830597734,
,,,,,,,,midLeft,-13.0,2,ch1Sound_localizationTask.wav,-13.0,"(762, 878)","(-198,-202)",-190,-338,,,,,,,,,,,,,0,6,6,1,,,,,,,,,,,,,,,,,,,,,,,,,,,,,,,,,,,,,,,,1068.2176753357053,None,,,1071.2340025557205,None,1.4037037037037037,0.8829894480295479,1071.2340025557205,None,,,,,,,1069.2175494437106,None,1069.4010269199498,1069.4174636569805,,,,,,,159,001,2024_Jan_30_1548,SpeechDraft1Carolyn_lessNoise_PlusLocalization,2021.2.3,60.036862830597734,
,,,,,,,,midLeft,-13.0,2,ch1Sound_localizationTask.wav,-13.0,"(762, 878)","(-198,-202)",-190,-338,,,,,,,,,,,,,1,0,7,1,,,,,,,,,,,,,,,,,,,,,,,,,,,,,,,,,,,,,,,,1072.1182332136668,None,,,1075.13382578874,None,1.3708994708994708,0.8321528020314872,1075.13382578874,None,,,,,,,1073.1177046829835,None,1073.3008175599389,1073.3175275009125,,,,,,,159,001,2024_Jan_30_1548,SpeechDraft1Carolyn_lessNoise_PlusLocalization,2021.2.3,60.036862830597734,
,,,,,,,,midRight,13.0,3,ch1Sound_localizationTask.wav,13.0,"(1142, 878)","(182, -202)",190,-338,,,,,,,,,,,,,1,1,8,5,,,,,,,,,,,,,,,,,,,,,,,,,,,,,,,,,,,,,,,,1075.9678403479047,None,,,1078.9840152026154,None,1.5915343915343916,0.9001172753050923,1078.9840152026154,None,,,,,,,1076.967660966795,None,1077.150823446922,1077.1675033359788,,,,,,,159,001,2024_Jan_30_1548,SpeechDraft1Carolyn_lessNoise_PlusLocalization,2021.2.3,60.036862830597734,
,,,,,,,,midRight,13.0,3,ch1Sound_localizationTask.wav,13.0,"(1142, 878)","(182, -202)",190,-338,,,,,,,,,,,,,1,2,9,5,,,,,,,,,,,,,,,,,,,,,,,,,,,,,,,,,,,,,,,,1079.901039747987,None,,,1082.917345118709,None,1.6026455026455027,0.8324761409312487,1082.917345118709,None,,,,,,,1080.9010783140548,None,1081.0842522517778,1081.1008253959008,,,,,,,159,001,2024_Jan_30_1548,SpeechDraft1Carolyn_lessNoise_PlusLocalization,2021.2.3,60.036862830597734,
,,,,,,,,center,0.0,6,ch1Sound_localizationTask.wav,0.0,"(952, 878)","(-8,-202)",0,-338,,,,,,,,,,,,,1,3,10,3,,,,,,,,,,,,,,,,,,,,,,,,,,,,,,,,,,,,,,,,1083.7522444166243,None,,,1086.7840688629076,None,1.5010582010582012,1.2657397603616118,1086.7840688629076,None,,,,,,,1084.7673952076584,None,1084.9510353999212,1084.9675816167146,,,,,,,159,001,2024_Jan_30_1548,SpeechDraft1Carolyn_lessNoise_PlusLocalization,2021.2.3,60.036862830597734,
,,,,,,,,midRight,13.0,3,ch1Sound_localizationTask.wav,13.0,"(1142, 878)","(182, -202)",190,-338,,,,,,,,,,,,,1,4,11,5,,,,,,,,,,,,,,,,,,,,,,,,,,,,,,,,,,,,,,,,1088.0510389329866,None,,,1091.0672527956776,None,1.602116402116402,1.216089793946594,1091.0672527956776,None,,,,,,,1089.0511017837562,None,1089.2340766186826,1089.2508886568248,,,,,,,159,001,2024_Jan_30_1548,SpeechDraft1Carolyn_lessNoise_PlusLocalization,2021.2.3,60.036862830597734,
,,,,,,,,farLeft,-19.1,5,ch1Sound_localizationTask.wav,-19.1,"(667, 878)","(-293,-202)",-285,-338,,,,,,,,,,,,,1,5,12,0,,,,,,,,,,,,,,,,,,,,,,,,,,,,,,,,,,,,,,,,1092.2847544830292,None,,,1095.3010852239095,None,1.3095238095238095,1.1659133969806135,1095.3010852239095,None,,,,,,,1093.284162336029,None,1093.4674646379426,1093.484226748813,,,,,,,159,001,2024_Jan_30_1548,SpeechDraft1Carolyn_lessNoise_PlusLocalization,2021.2.3,60.036862830597734,
,,,,,,,,nearLeft,-6.5,1,ch1Sound_localizationTask.wav,-6.5,"(857, 878)","(-103,-202)",-95,-338,,,,,,,,,,,,,1,6,13,2,,,,,,,,,,,,,,,,,,,,,,,,,,,,,,,,,,,,,,,,1096.468627975788,None,,,1099.5006416030228,None,1.439153439153439,1.1166440681554377,1099.5006416030228,None,,,,,,,1097.4842936107889,None,1097.6674419026822,1097.684361139778,,,,,,,159,001,2024_Jan_30_1548,SpeechDraft1Carolyn_lessNoise_PlusLocalization,2021.2.3,60.036862830597734,
,,,,,,,,nearLeft,-6.5,1,ch1Sound_localizationTask.wav,-6.5,"(857, 878)","(-103,-202)",-95,-338,,,,,,,,,,,,,2,0,14,2,,,,,,,,,,,,,,,,,,,,,,,,,,,,,,,,,,,,,,,,1100.6179799158126,None,,,1103.6342571526766,None,1.4534391534391533,0.699553526006639,1103.6342571526766,None,,,,,,,1101.6176851158962,None,1101.8008511099033,1101.8175424216315,,,,,,,159,001,2024_Jan_30_1548,SpeechDraft1Carolyn_lessNoise_PlusLocalization,2021.2.3,60.036862830597734,
,,,,,,,,midLeft,-13.0,2,ch1Sound_localizationTask.wav,-13.0,"(762, 878)","(-198,-202)",-190,-338,,,,,,,,,,,,,2,1,15,1,,,,,,,,,,,,,,,,,,,,,,,,,,,,,,,,,,,,,,,,1104.3350913957693,None,,,1107.3505342248827,None,1.3825396825396825,1.0010317317210138,1107.3505342248827,None,,,,,,,1105.3341917446814,None,1105.5174839626998,1105.534342860803,,,,,,,159,001,2024_Jan_30_1548,SpeechDraft1Carolyn_lessNoise_PlusLocalization,2021.2.3,60.036862830597734,
,,,,,,,,midRight,13.0,3,ch1Sound_localizationTask.wav,13.0,"(1142, 878)","(182, -202)",190,-338,,,,,,,,,,,,,2,2,16,5,,,,,,,,,,,,,,,,,,,,,,,,,,,,,,,,,,,,,,,,1108.3674582806416,None,,,1111.3842084640637,None,1.5878306878306878,0.8667756388895214,1111.3842084640637,None,,,,,,,1109.3676812178455,None,1109.5508623579517,1109.567532619927,,,,,,,159,001,2024_Jan_30_1548,SpeechDraft1Carolyn_lessNoise_PlusLocalization,2021.2.3,60.036862830597734,
,,,,,,,,nearRight,6.5,0,ch1Sound_localizationTask.wav,6.5,"(1047, 878)","(87, -202)",95,-338,,,,,,,,,,,,,2,3,17,4,,,,,,,,,,,,,,,,,,,,,,,,,,,,,,,,,,,,,,,,1112.2674928200431,None,,,1115.2839844296686,None,1.5566137566137566,0.6491525089368224,1115.2839844296686,None,,,,,,,1113.26748252986,None,1113.4507950530387,1113.4676879900508,,,,,,,159,001,2024_Jan_30_1548,SpeechDraft1Carolyn_lessNoise_PlusLocalization,2021.2.3,60.036862830597734,
,,,,,,,,farRight,19.1,4,ch1Sound_localizationTask.wav,19.1,"(1237, 878)","(277,-202)",285,-338,,,,,,,,,,,,,2,4,18,6,,,,,,,,,,,,,,,,,,,,,,,,,,,,,,,,,,,,,,,,1115.9350454527885,None,,,1118.9508847817779,None,1.6857142857142857,0.6483623581007123,1118.9508847817779,None,,,,,,,1116.9342838097364,None,1117.1175762428902,1117.134221225977,,,,,,,159,001,2024_Jan_30_1548,SpeechDraft1Carolyn_lessNoise_PlusLocalization,2021.2.3,60.036862830597734,
,,,,,,,,midRight,13.0,3,ch1Sound_localizationTask.wav,13.0,"(1142, 878)","(182, -202)",190,-338,,,,,,,,,,,,,2,5,19,5,,,,,,,,,,,,,,,,,,,,,,,,,,,,,,,,,,,,,,,,1119.6010919916444,None,,,1122.6173674399033,None,1.6,0.6496593100018799,1122.6173674399033,None,,,,,,,1120.6009879857302,None,1120.7845986559987,1120.8008642229252,,,,,,,159,001,2024_Jan_30_1548,SpeechDraft1Carolyn_lessNoise_PlusLocalization,2021.2.3,60.036862830597734,
,,,,,,,,nearLeft,-6.5,1,ch1Sound_localizationTask.wav,-6.5,"(857, 878)","(-103,-202)",-95,-338,,,,,,,,,,,,,2,6,20,2,,,,,,,,,,,,,,,,,,,,,,,,,,,,,,,,,,,,,,,,1123.2685252167284,None,,,1126.2838586377911,None,1.4343915343915343,0.7992087351158261,1126.2838586377911,None,,,,,,,1124.2677159439772,None,1124.450890016742,1124.4675310999155,,,,,,,159,001,2024_Jan_30_1548,SpeechDraft1Carolyn_lessNoise_PlusLocalization,2021.2.3,60.036862830597734,
,,,,,,,,nearLeft,-6.5,1,ch1Sound_localizationTask.wav,-6.5,"(857, 878)","(-103,-202)",-95,-338,,,,,,,,,,,,,3,0,21,2,,,,,,,,,,,,,,,,,,,,,,,,,,,,,,,,,,,,,,,,1127.084574403707,None,,,1130.100694143679,None,1.4296296296296296,0.6329490141943097,1130.100694143679,None,,,,,,,1128.0843989429995,None,1128.2678114180453,1128.2843894138932,,,,,,,159,001,2024_Jan_30_1548,SpeechDraft1Carolyn_lessNoise_PlusLocalization,2021.2.3,60.036862830597734,
,,,,,,,,farLeft,-19.1,5,ch1Sound_localizationTask.wav,-19.1,"(667, 878)","(-293,-202)",-285,-338,,,,,,,,,,,,,3,1,22,0,,,,,,,,,,,,,,,,,,,,,,,,,,,,,,,,,,,,,,,,1130.7511218618602,None,,,1133.7675079149194,None,1.3306878306878307,0.7654640269465744,1133.7675079149194,None,,,,,,,1131.7512120166793,None,1131.9344361829571,1131.9512257566676,,,,,,,159,001,2024_Jan_30_1548,SpeechDraft1Carolyn_lessNoise_PlusLocalization,2021.2.3,60.036862830597734,
,,,,,,,,farLeft,-19.1,5,ch1Sound_localizationTask.wav,-19.1,"(667, 878)","(-293,-202)",-285,-338,,,,,,,,,,,,,3,2,23,0,,,,,,,,,,,,,,,,,,,,,,,,,,,,,,,,,,,,,,,,1134.535218812991,None,,,1137.567364032846,None,1.312169312169312,0.7181923761963844,1137.567364032846,None,,,,,,,1135.5507924458943,None,1135.7177224867046,1135.7344845510088,,,,,,,159,001,2024_Jan_30_1548,SpeechDraft1Carolyn_lessNoise_PlusLocalization,2021.2.3,60.036862830597734,
,,,,,,,,midLeft,-13.0,2,ch1Sound_localizationTask.wav,-13.0,"(762, 878)","(-198,-202)",-190,-338,,,,,,,,,,,,,3,3,24,1,,,,,,,,,,,,,,,,,,,,,,,,,,,,,,,,,,,,,,,,1138.3010283177719,None,,,1141.3173547228798,None,1.3825396825396825,0.6665554139763117,1141.3173547228798,None,,,,,,,1139.3010644670576,None,1139.4843975789845,1139.501161123626,,,,,,,159,001,2024_Jan_30_1548,SpeechDraft1Carolyn_lessNoise_PlusLocalization,2021.2.3,60.036862830597734,
,,,,,,,,nearLeft,-6.5,1,ch1Sound_localizationTask.wav,-6.5,"(857, 878)","(-103,-202)",-95,-338,,,,,,,,,,,,,3,4,25,2,,,,,,,,,,,,,,,,,,,,,,,,,,,,,,,,,,,,,,,,1142.001094975043,None,,,1145.0171444569714,None,1.42010582010582,0.4163976120762527,1145.0171444569714,None,,,,,,,1143.0011818530038,None,1143.184184201993,1143.200882313773,,,,,,,159,001,2024_Jan_30_1548,SpeechDraft1Carolyn_lessNoise_PlusLocalization,2021.2.3,60.036862830597734,
,,,,,,,,nearRight,6.5,0,ch1Sound_localizationTask.wav,6.5,"(1047, 878)","(87, -202)",95,-338,,,,,,,,,,,,,3,5,26,4,,,,,,,,,,,,,,,,,,,,,,,,,,,,,,,,,,,,,,,,1145.4509321278892,None,,,1148.467283767648,None,1.543915343915344,1.033582621254027,1148.467283767648,None,,,,,,,1146.4510274669155,None,1146.6344000198878,1146.650905421935,,,,,,,159,001,2024_Jan_30_1548,SpeechDraft1Carolyn_lessNoise_PlusLocalization,2021.2.3,60.036862830597734,
,,,,,,,,farRight,19.1,4,ch1Sound_localizationTask.wav,19.1,"(1237, 878)","(277,-202)",285,-338,,,,,,,,,,,,,3,6,27,6,,,,,,,,,,,,,,,,,,,,,,,,,,,,,,,,,,,,,,,,1149.5178382028826,None,,,1152.5340461577289,None,1.664021164021164,1.0156669928692281,1152.5340461577289,None,,,,,,,1150.5176513479091,None,1150.7011013380252,1150.7176812747493,,,,,,,159,001,2024_Jan_30_1548,SpeechDraft1Carolyn_lessNoise_PlusLocalization,2021.2.3,60.036862830597734,
,,,,,,,,farLeft,-19.1,5,ch1Sound_localizationTask.wav,-19.1,"(667, 878)","(-293,-202)",-285,-338,,,,,,,,,,,,,4,0,28,0,,,,,,,,,,,,,,,,,,,,,,,,,,,,,,,,,,,,,,,,1153.5515957726166,None,,,1156.5675541898236,None,1.3380952380952382,0.6315768579952419,1156.5675541898236,None,,,,,,,1154.5510899266228,None,1154.7343223867938,1154.7510008197278,,,,,,,159,001,2024_Jan_30_1548,SpeechDraft1Carolyn_lessNoise_PlusLocalization,2021.2.3,60.036862830597734,
,,,,,,,,nearRight,6.5,0,ch1Sound_localizationTask.wav,6.5,"(1047, 878)","(87, -202)",95,-338,,,,,,,,,,,,,4,1,29,4,,,,,,,,,,,,,,,,,,,,,,,,,,,,,,,,,,,,,,,,1157.2018672688864,None,,,1160.2175989188254,None,1.5497354497354499,1.0496049928478897,1160.2175989188254,None,,,,,,,1158.2013205448166,None,1158.3842924688943,1158.401269058697,,,,,,,159,001,2024_Jan_30_1548,SpeechDraft1Carolyn_lessNoise_PlusLocalization,2021.2.3,60.036862830597734,
,,,,,,,,farLeft,-19.1,5,ch1Sound_localizationTask.wav,-19.1,"(667, 878)","(-293,-202)",-285,-338,,,,,,,,,,,,,4,2,30,0,,,,,,,,,,,,,,,,,,,,,,,,,,,,,,,,,,,,,,,,1161.2686011008918,None,,,1164.30071975803,None,1.3137566137566137,0.7327981847338378,1164.30071975803,None,,,,,,,1162.2841837508604,None,1162.467754965648,1162.484225222841,,,,,,,159,001,2024_Jan_30_1548,SpeechDraft1Carolyn_lessNoise_PlusLocalization,2021.2.3,60.036862830597734,
,,,,,,,,nearLeft,-6.5,1,ch1Sound_localizationTask.wav,-6.5,"(857, 878)","(-103,-202)",-95,-338,,,,,,,,,,,,,4,3,31,2,,,,,,,,,,,,,,,,,,,,,,,,,,,,,,,,,,,,,,,,1165.0346084558405,None,,,1168.0506749828346,None,1.435978835978836,0.7323854197748005,1168.0506749828346,None,,,,,,,1166.034400684759,None,1166.2177047878504,1166.2345420620404,,,,,,,159,001,2024_Jan_30_1548,SpeechDraft1Carolyn_lessNoise_PlusLocalization,2021.2.3,60.036862830597734,
,,,,,,,,farRight,19.1,4,ch1Sound_localizationTask.wav,19.1,"(1237, 878)","(277,-202)",285,-338,,,,,,,,,,,,,4,4,32,6,,,,,,,,,,,,,,,,,,,,,,,,,,,,,,,,,,,,,,,,1168.7846235637553,None,,,1171.8007227410562,None,1.6201058201058203,0.682934024836868,1171.8007227410562,None,,,,,,,1169.7842793669552,None,1169.967573324684,1169.9842410678975,,,,,,,159,001,2024_Jan_30_1548,SpeechDraft1Carolyn_lessNoise_PlusLocalization,2021.2.3,60.036862830597734,
,,,,,,,,center,0.0,6,ch1Sound_localizationTask.wav,0.0,"(952, 878)","(-8,-202)",0,-338,,,,,,,,,,,,,4,5,33,3,,,,,,,,,,,,,,,,,,,,,,,,,,,,,,,,,,,,,,,,1172.4848457309417,None,,,1175.5008856249042,None,1.4846560846560846,0.7836926928721368,1175.5008856249042,None,,,,,,,1173.4844136256725,None,1173.6678947196342,1173.684388444759,,,,,,,159,001,2024_Jan_30_1548,SpeechDraft1Carolyn_lessNoise_PlusLocalization,2021.2.3,60.036862830597734,
,,,,,,,,nearLeft,-6.5,1,ch1Sound_localizationTask.wav,-6.5,"(857, 878)","(-103,-202)",-95,-338,,,,,,,,,,,,,4,6,34,2,,,,,,,,,,,,,,,,,,,,,,,,,,,,,,,,,,,,,,,,1176.3011926719919,None,,,1179.3173404070549,None,1.438095238095238,0.7181441090069711,1179.3173404070549,None,,,,,,,1177.300942108035,None,1177.4842456588522,1177.501034392044,,,,,,,159,001,2024_Jan_30_1548,SpeechDraft1Carolyn_lessNoise_PlusLocalization,2021.2.3,60.036862830597734,
,,,,,,,,farLeft,-19.1,5,ch1Sound_localizationTask.wav,-19.1,"(667, 878)","(-293,-202)",-285,-338,,,,,,,,,,,,,5,0,35,0,,,,,,,,,,,,,,,,,,,,,,,,,,,,,,,,,,,,,,,,1180.0511869890615,None,,,1183.0675585316494,None,1.331216931216931,0.8167421561665833,1183.0675585316494,None,,,,,,,1181.0510356277227,None,1181.2342035039328,1181.2510310276411,,,,,,,159,001,2024_Jan_30_1548,SpeechDraft1Carolyn_lessNoise_PlusLocalization,2021.2.3,60.036862830597734,
,,,,,,,,nearRight,6.5,0,ch1Sound_localizationTask.wav,6.5,"(1047, 878)","(87, -202)",95,-338,,,,,,,,,,,,,5,1,36,4,,,,,,,,,,,,,,,,,,,,,,,,,,,,,,,,,,,,,,,,1183.9012616118416,None,,,1186.9175257519819,None,1.5518518518518518,1.2161983298137784,1186.9175257519819,None,,,,,,,1184.9009926449507,None,1185.0844776318409,1185.1010946747847,,,,,,,159,001,2024_Jan_30_1548,SpeechDraft1Carolyn_lessNoise_PlusLocalization,2021.2.3,60.036862830597734,
,,,,,,,,center,0.0,6,ch1Sound_localizationTask.wav,0.0,"(952, 878)","(-8,-202)",0,-338,,,,,,,,,,,,,5,2,37,3,,,,,,,,,,,,,,,,,,,,,,,,,,,,,,,,,,,,,,,,1188.1348991757259,None,,,1191.150671934709,None,1.4915343915343915,0.6486239731311798,1191.150671934709,None,,,,,,,1189.1343276947737,None,1189.3176682200283,1189.3345285379328,,,,,,,159,001,2024_Jan_30_1548,SpeechDraft1Carolyn_lessNoise_PlusLocalization,2021.2.3,60.036862830597734,
,,,,,,,,midRight,13.0,3,ch1Sound_localizationTask.wav,13.0,"(1142, 878)","(182, -202)",190,-338,,,,,,,,,,,,,5,3,38,5,,,,,,,,,,,,,,,,,,,,,,,,,,,,,,,,,,,,,,,,1191.8010822348297,None,,,1194.8174572740681,None,1.596825396825397,0.9333303510211408,1194.8174572740681,None,,,,,,,1192.80130167678,None,1192.9846242619678,1193.0011829398572,,,,,,,159,001,2024_Jan_30_1548,SpeechDraft1Carolyn_lessNoise_PlusLocalization,2021.2.3,60.036862830597734,
,,,,,,,,center,0.0,6,ch1Sound_localizationTask.wav,0.0,"(952, 878)","(-8,-202)",0,-338,,,,,,,,,,,,,5,4,39,3,,,,,,,,,,,,,,,,,,,,,,,,,,,,,,,,,,,,,,,,1195.7677472946234,None,,,1198.7841881229542,None,1.498941798941799,0.6322422749362886,1198.7841881229542,None,,,,,,,1196.7679548310116,None,1196.9509558179416,1196.9677806380205,,,,,,,159,001,2024_Jan_30_1548,SpeechDraft1Carolyn_lessNoise_PlusLocalization,2021.2.3,60.036862830597734,
,,,,,,,,midLeft,-13.0,2,ch1Sound_localizationTask.wav,-13.0,"(762, 878)","(-198,-202)",-190,-338,,,,,,,,,,,,,5,5,40,1,,,,,,,,,,,,,,,,,,,,,,,,,,,,,,,,,,,,,,,,1199.4181490857154,None,,,1202.4340567970648,None,1.4132275132275132,0.5834691021591425,1202.4340567970648,None,,,,,,,1200.4176026736386,None,1200.6011098399758,1200.617694427725,,,,,,,159,001,2024_Jan_30_1548,SpeechDraft1Carolyn_lessNoise_PlusLocalization,2021.2.3,60.036862830597734,
,,,,,,,,farRight,19.1,4,ch1Sound_localizationTask.wav,19.1,"(1237, 878)","(277,-202)",285,-338,,,,,,,,,,,,,5,6,41,6,,,,,,,,,,,,,,,,,,,,,,,,,,,,,,,,,,,,,,,,1203.0342471399345,None,,,1206.051017823629,None,1.6349206349206349,0.5665036388672888,1206.051017823629,None,,,,,,,1204.034241238609,None,1204.217850960791,1204.234260811936,,,,,,,159,001,2024_Jan_30_1548,SpeechDraft1Carolyn_lessNoise_PlusLocalization,2021.2.3,60.036862830597734,
,,,,,,,,farRight,19.1,4,ch1Sound_localizationTask.wav,19.1,"(1237, 878)","(277,-202)",285,-338,,,,,,,,,,,,,6,0,42,6,,,,,,,,,,,,,,,,,,,,,,,,,,,,,,,,,,,,,,,,1206.6345187188126,None,,,1209.650738522876,None,1.6386243386243386,0.5822073640301824,1209.650738522876,None,,,,,,,1207.6345059028827,None,1207.8178183706477,1207.8344443626702,,,,,,,159,001,2024_Jan_30_1548,SpeechDraft1Carolyn_lessNoise_PlusLocalization,2021.2.3,60.036862830597734,
,,,,,,,,center,0.0,6,ch1Sound_localizationTask.wav,0.0,"(952, 878)","(-8,-202)",0,-338,,,,,,,,,,,,,6,1,43,3,,,,,,,,,,,,,,,,,,,,,,,,,,,,,,,,,,,,,,,,1210.2345340568572,None,,,1213.2506940187886,None,1.5037037037037035,0.6003070347942412,1213.2506940187886,None,,,,,,,1211.2343037836254,None,1211.417666526977,1211.4343327367678,,,,,,,159,001,2024_Jan_30_1548,SpeechDraft1Carolyn_lessNoise_PlusLocalization,2021.2.3,60.036862830597734,
,,,,,,,,midLeft,-13.0,2,ch1Sound_localizationTask.wav,-13.0,"(762, 878)","(-198,-202)",-190,-338,,,,,,,,,,,,,6,2,44,1,,,,,,,,,,,,,,,,,,,,,,,,,,,,,,,,,,,,,,,,1213.8677838016301,None,,,1216.884106732905,None,1.4084656084656084,0.9649130869656801,1216.884106732905,None,,,,,,,1214.86768933665,None,1215.0511872670613,1215.067711635027,,,,,,,159,001,2024_Jan_30_1548,SpeechDraft1Carolyn_lessNoise_PlusLocalization,2021.2.3,60.036862830597734,
,,,,,,,,farRight,19.1,4,ch1Sound_localizationTask.wav,19.1,"(1237, 878)","(277,-202)",285,-338,,,,,,,,,,,,,6,3,45,6,,,,,,,,,,,,,,,,,,,,,,,,,,,,,,,,,,,,,,,,1217.851162808016,None,,,1220.867363887839,None,1.6592592592592592,1.1992513299919665,1220.867363887839,None,,,,,,,1218.8511381130666,None,1219.034562437795,1219.0511271506548,,,,,,,159,001,2024_Jan_30_1548,SpeechDraft1Carolyn_lessNoise_PlusLocalization,2021.2.3,60.036862830597734,
,,,,,,,,farRight,19.1,4,ch1Sound_localizationTask.wav,19.1,"(1237, 878)","(277,-202)",285,-338,,,,,,,,,,,,,6,4,46,6,,,,,,,,,,,,,,,,,,,,,,,,,,,,,,,,,,,,,,,,1222.0685011437163,None,,,1225.084171440918,None,1.644973544973545,0.24935826659202576,1225.084171440918,None,,,,,,,1223.067715286743,None,1223.2510854136199,1223.2678258609958,,,,,,,159,001,2024_Jan_30_1548,SpeechDraft1Carolyn_lessNoise_PlusLocalization,2021.2.3,60.036862830597734,
,,,,,,,,center,0.0,6,ch1Sound_localizationTask.wav,0.0,"(952, 878)","(-8,-202)",0,-338,,,,,,,,,,,,,6,5,47,3,,,,,,,,,,,,,,,,,,,,,,,,,,,,,,,,,,,,,,,,1225.3350876090117,None,,,1228.3510647527874,None,1.4915343915343915,0.6506728050298989,1228.3510647527874,None,,,,,,,1226.3343442888,None,1226.5178157719783,1226.5345260119066,,,,,,,159,001,2024_Jan_30_1548,SpeechDraft1Carolyn_lessNoise_PlusLocalization,2021.2.3,60.036862830597734,
,,,,,,,,midRight,13.0,3,ch1Sound_localizationTask.wav,13.0,"(1142, 878)","(182, -202)",190,-338,,,,,,,,,,,,,6,6,48,5,,,,,,,,,,,,,,,,,,,,,,,,,,,,,,,,,,,,,,,,1229.017899329774,None,,,1232.0341777149588,None,1.6031746031746033,0.949544474016875,1232.0341777149588,None,,,,,,,1230.0176650779322,None,1230.2011518459767,1230.217812650837,,,,,,,159,001,2024_Jan_30_1548,SpeechDraft1Carolyn_lessNoise_PlusLocalization,2021.2.3,60.036862830597734,
,,,,,,,,center,0.0,6,ch1Sound_localizationTask.wav,0.0,"(952, 878)","(-8,-202)",0,-338,,,,,,,,,,,,,7,0,49,3,,,,,,,,,,,,,,,,,,,,,,,,,,,,,,,,,,,,,,,,1232.9849563529715,None,,,1236.0008415747434,None,1.5047619047619047,0.7492265501059592,1236.0008415747434,None,,,,,,,1233.9844425278716,None,1234.1676771687344,1234.1845278907567,,,,,,,159,001,2024_Jan_30_1548,SpeechDraft1Carolyn_lessNoise_PlusLocalization,2021.2.3,60.036862830597734,
,,,,,,,,nearRight,6.5,0,ch1Sound_localizationTask.wav,6.5,"(1047, 878)","(87, -202)",95,-338,,,,,,,,,,,,,7,1,50,4,,,,,,,,,,,,,,,,,,,,,,,,,,,,,,,,,,,,,,,,1236.7514546178281,None,,,1239.7676545549184,None,1.5365079365079364,0.8829279644414783,1239.7676545549184,None,,,,,,,1237.7510288627818,None,1237.9347465350293,1237.9511786648072,,,,,,,159,001,2024_Jan_30_1548,SpeechDraft1Carolyn_lessNoise_PlusLocalization,2021.2.3,60.036862830597734,
,,,,,,,,midLeft,-13.0,2,ch1Sound_localizationTask.wav,-13.0,"(762, 878)","(-198,-202)",-190,-338,,,,,,,,,,,,,7,2,51,1,,,,,,,,,,,,,,,,,,,,,,,,,,,,,,,,,,,,,,,,1240.6517842868343,None,,,1243.6676317718811,None,1.3486772486772487,1.0663407118991017,1243.6676317718811,None,,,,,,,1241.6509991828352,None,1241.8343305140734,1241.8512311866507,,,,,,,159,001,2024_Jan_30_1548,SpeechDraft1Carolyn_lessNoise_PlusLocalization,2021.2.3,60.036862830597734,
,,,,,,,,midRight,13.0,3,ch1Sound_localizationTask.wav,13.0,"(1142, 878)","(182, -202)",190,-338,,,,,,,,,,,,,7,3,52,5,,,,,,,,,,,,,,,,,,,,,,,,,,,,,,,,,,,,,,,,1244.7352556269616,None,,,1247.7508844658732,None,1.591005291005291,1.0659321551211178,1247.7508844658732,None,,,,,,,1245.734565289691,None,1245.917832929641,1245.9343740809709,,,,,,,159,001,2024_Jan_30_1548,SpeechDraft1Carolyn_lessNoise_PlusLocalization,2021.2.3,60.036862830597734,
,,,,,,,,nearRight,6.5,0,ch1Sound_localizationTask.wav,6.5,"(1047, 878)","(87, -202)",95,-338,,,,,,,,,,,,,7,4,53,4,,,,,,,,,,,,,,,,,,,,,,,,,,,,,,,,,,,,,,,,1248.8183233859017,None,,,1251.8342307629064,None,1.5534391534391534,0.7164182560518384,1251.8342307629064,None,,,,,,,1249.8177148709074,None,1250.0013441597112,1250.0176825029776,,,,,,,159,001,2024_Jan_30_1548,SpeechDraft1Carolyn_lessNoise_PlusLocalization,2021.2.3,60.036862830597734,
,,,,,,,,nearRight,6.5,0,ch1Sound_localizationTask.wav,6.5,"(1047, 878)","(87, -202)",95,-338,,,,,,,,,,,,,7,5,54,4,,,,,,,,,,,,,,,,,,,,,,,,,,,,,,,,,,,,,,,,1252.5519471750595,None,,,1255.5676098526455,None,1.541798941798942,0.7830208148807287,1255.5676098526455,None,,,,,,,1253.5512673640624,None,1253.7343762177043,1253.751023074612,,,,,,,159,001,2024_Jan_30_1548,SpeechDraft1Carolyn_lessNoise_PlusLocalization,2021.2.3,60.036862830597734,
,,,,,,,,farLeft,-19.1,5,ch1Sound_localizationTask.wav,-19.1,"(667, 878)","(-293,-202)",-285,-338,,,,,,,,,,,,,7,6,55,0,,,,,,,,,,,,,,,,,,,,,,,,,,,,,,,,,,,,,,,,1256.3518475196324,None,,,1259.3677341169678,None,1.2920634920634921,1.0001106872223318,1259.3677341169678,None,,,,,,,1257.3512244489975,None,1257.534513566643,1257.550979708787,,,,,,,159,001,2024_Jan_30_1548,SpeechDraft1Carolyn_lessNoise_PlusLocalization,2021.2.3,60.036862830597734,
,,,,,,,,,,,,,,,,,,,,,,,,,,,,,,,,,,,,,,,,,,,,,,,,,,,,,,,,,,,,,,,,,,,,,,,,,,,,,,,,,,,,,,,,,,,,1260.3845938299783,None,c,44.07582591287792,1261.3680463116616,None,159,001,2024_Jan_30_1548,SpeechDraft1Carolyn_lessNoise_PlusLocalization,2021.2.3,60.036862830597734,
