{"meta_data":{"additional_headers":{},"game_name":"Recollect","version":"2.53.01","user_name":"159","organization":"braingamecenter","study":"mpl2_2022_11","session_number":0,"device_id":"74342D95-EE82-45E3-8ADF-48FB3203C5DD"},"data":[{"stage":"Practice","trial":0,"sequence":"6F","letter_input":"F","number_input":"6","is_correct":true,"presentation_start_time":1706654386546.4,"presentation_end_time":1706654389549.02,"response_time":1706654396063.12},{"stage":"Practice","trial":1,"sequence":"G4","letter_input":"G","number_input":"4","is_correct":true,"presentation_start_time":1706654397592.75,"presentation_end_time":1706654400595.44,"response_time":1706654404807.23},{"stage":"Practice","trial":2,"sequence":"3W5","letter_input":"W","number_input":"35","is_correct":true,"presentation_start_time":1706654406339.85,"presentation_end_time":1706654410842.06,"response_time":1706654415320.33},{"stage":"Practice","trial":3,"sequence":"T7L","letter_input":"LT","number_input":"7","is_correct":true,"presentation_start_time":1706654416853.03,"presentation_end_time":1706654421355.29,"response_time":1706654425067.11},{"stage":"Practice","trial":4,"sequence":"9J1","letter_input":"J","number_input":"19","is_correct":true,"presentation_start_time":1706654426599.89,"presentation_end_time":1706654431102.08,"response_time":1706654434097.52},{"stage":"Calibration","trial":0,"sequence":"6Q","letter_input":"Q","number_input":"6","is_correct":true,"presentation_start_time":1706654438029.43,"presentation_end_time":1706654441032.1,"response_time":1706654444677.45},{"stage":"Calibration","trial":1,"sequence":"R8","letter_input":"R","number_input":"8","is_correct":true,"presentation_start_time":1706654446210.17,"presentation_end_time":1706654449212.83,"response_time":1706654452957.96},{"stage":"Calibration","trial":2,"sequence":"5W2","letter_input":"W","number_input":"25","is_correct":true,"presentation_start_time":1706654454490.72,"presentation_end_time":1706654458992.95,"response_time":1706654462754.88},{"stage":"Calibration","trial":3,"sequence":"P9L","letter_input":"LP","number_input":"9","is_correct":true,"presentation_start_time":1706654464287.53,"presentation_end_time":1706654468789.71,"response_time":1706654472751.58},{"stage":"Calibration","trial":4,"sequence":"8N2E","letter_input":"EN","number_input":"28","is_correct":true,"presentation_start_time":1706654474284.25,"presentation_end_time":1706654480286.03,"response_time":1706654485547.3},{"stage":"Calibration","trial":5,"sequence":"Y5T3","letter_input":"TY","number_input":"35","is_correct":true,"presentation_start_time":1706654487080.11,"presentation_end_time":1706654493081.55,"response_time":1706654498159.86},{"stage":"Calibration","trial":6,"sequence":"7G1D9","letter_input":"DG","number_input":"179","is_correct":true,"presentation_start_time":1706654499692.51,"presentation_end_time":1706654507193.86,"response_time":1706654514137.98},{"stage":"Calibration","trial":7,"sequence":"Y8V3P","letter_input":"BVY","number_input":"38","is_correct":false,"presentation_start_time":1706654515670.71,"presentation_end_time":1706654523171.89,"response_time":1706654541012.49},{"stage":"Calibration","trial":8,"sequence":"7Z4S1D","letter_input":"DYZ","number_input":"147","is_correct":false,"presentation_start_time":1706654542545.26,"presentation_end_time":1706654551545.9,"response_time":1706654583598.56},{"stage":"Calibration","trial":9,"sequence":"F8B5H3","letter_input":"DHY","number_input":"358","is_correct":false,"presentation_start_time":1706654585131.18,"presentation_end_time":1706654594132.05,"response_time":1706654619303.54}]}