{"meta_data":{"additional_headers":{},"game_name":"Recollect","version":"2.53.01","user_name":"159","organization":"braingamecenter","study":"mpl2_2022_11","session_number":0,"device_id":"74342D95-EE82-45E3-8ADF-48FB3203C5DD"},"data":[{"trial":0,"action":1,"button_pressed":5,"time_out":false,"dwell_time":80.81103515625,"response_time":1706654067250.74},{"trial":0,"action":1,"button_pressed":3,"time_out":false,"dwell_time":30.963134765625,"response_time":1706654067684.86},{"trial":0,"action":9,"button_pressed":-1,"time_out":false,"dwell_time":92.205078125,"response_time":1706654068862.22},{"trial":1,"action":1,"button_pressed":0,"time_out":false,"dwell_time":114.170166015625,"response_time":1706654078131.29},{"trial":1,"action":1,"button_pressed":10,"time_out":false,"dwell_time":63.843017578125,"response_time":1706654078664.23},{"trial":1,"action":1,"button_pressed":11,"time_out":false,"dwell_time":97.2939453125,"response_time":1706654079047.58},{"trial":1,"action":9,"button_pressed":-1,"time_out":false,"dwell_time":64.35595703125,"response_time":1706654079930.91},{"trial":2,"action":1,"button_pressed":5,"time_out":false,"dwell_time":64.214111328125,"response_time":1706654091860.08},{"trial":2,"action":1,"button_pressed":7,"time_out":false,"dwell_time":129.655029296875,"response_time":1706654092375.64},{"trial":2,"action":1,"button_pressed":1,"time_out":false,"dwell_time":80.6640625,"response_time":1706654092793},{"trial":2,"action":1,"button_pressed":9,"time_out":false,"dwell_time":30.85595703125,"response_time":1706654093159.94},{"trial":2,"action":9,"button_pressed":-1,"time_out":false,"dwell_time":64.12109375,"response_time":1706654094159.41},{"trial":3,"action":1,"button_pressed":9,"time_out":false,"dwell_time":64.057861328125,"response_time":1706654108587.13},{"trial":3,"action":1,"button_pressed":0,"time_out":false,"dwell_time":81.195068359375,"response_time":1706654108987.62},{"trial":3,"action":1,"button_pressed":2,"time_out":false,"dwell_time":81.22900390625,"response_time":1706654109387.46},{"trial":3,"action":1,"button_pressed":1,"time_out":false,"dwell_time":46.647216796875,"response_time":1706654109903.59},{"trial":3,"action":1,"button_pressed":6,"time_out":false,"dwell_time":30.842041015625,"response_time":1706654110304.25},{"trial":3,"action":9,"button_pressed":-1,"time_out":false,"dwell_time":63.589111328125,"response_time":1706654110986.61},{"trial":4,"action":1,"button_pressed":10,"time_out":false,"dwell_time":63.3798828125,"response_time":1706654127980.79},{"trial":4,"action":1,"button_pressed":2,"time_out":false,"dwell_time":97.845947265625,"response_time":1706654128414.58},{"trial":4,"action":1,"button_pressed":9,"time_out":false,"dwell_time":47.212158203125,"response_time":1706654128864.16},{"trial":4,"action":1,"button_pressed":5,"time_out":false,"dwell_time":97.154052734375,"response_time":1706654129231.01},{"trial":4,"action":1,"button_pressed":11,"time_out":false,"dwell_time":13.440185546875,"response_time":1706654129680.5},{"trial":4,"action":1,"button_pressed":0,"time_out":false,"dwell_time":80.402099609375,"response_time":1706654130147.49},{"trial":4,"action":9,"button_pressed":-1,"time_out":false,"dwell_time":98.81396484375,"response_time":1706654131597.69},{"trial":5,"action":1,"button_pressed":8,"time_out":false,"dwell_time":129.89892578125,"response_time":1706654151641.01},{"trial":5,"action":1,"button_pressed":0,"time_out":false,"dwell_time":30.2919921875,"response_time":1706654152174.46},{"trial":5,"action":1,"button_pressed":5,"time_out":false,"dwell_time":80.320068359375,"response_time":1706654152941.2},{"trial":5,"action":1,"button_pressed":6,"time_out":false,"dwell_time":47.473876953125,"response_time":1706654153408.11},{"trial":5,"action":1,"button_pressed":10,"time_out":false,"dwell_time":46.883056640625,"response_time":1706654153740.7},{"trial":5,"action":1,"button_pressed":2,"time_out":false,"dwell_time":98.006103515625,"response_time":1706654154190.83},{"trial":5,"action":1,"button_pressed":9,"time_out":false,"dwell_time":30.885009765625,"response_time":1706654154707.74},{"trial":5,"action":9,"button_pressed":-1,"time_out":false,"dwell_time":81.116943359375,"response_time":1706654157039.66},{"trial":6,"action":1,"button_pressed":11,"time_out":false,"dwell_time":81.56591796875,"response_time":1706654177283.63},{"trial":6,"action":1,"button_pressed":4,"time_out":false,"dwell_time":114.5869140625,"response_time":1706654180099.2},{"trial":6,"action":1,"button_pressed":3,"time_out":false,"dwell_time":63.88818359375,"response_time":1706654180582.43},{"trial":6,"action":1,"button_pressed":10,"time_out":false,"dwell_time":46.72998046875,"response_time":1706654181081.99},{"trial":6,"action":1,"button_pressed":2,"time_out":false,"dwell_time":80.76513671875,"response_time":1706654181614.9},{"trial":6,"action":1,"button_pressed":8,"time_out":false,"dwell_time":30.7919921875,"response_time":1706654181882.49},{"trial":6,"action":1,"button_pressed":1,"time_out":false,"dwell_time":63.083984375,"response_time":1706654182447.73},{"trial":6,"action":9,"button_pressed":-1,"time_out":false,"dwell_time":80.64599609375,"response_time":1706654183881.23},{"trial":7,"action":1,"button_pressed":7,"time_out":false,"dwell_time":97.2578125,"response_time":1706654205807.79},{"trial":7,"action":1,"button_pressed":5,"time_out":false,"dwell_time":80.450927734375,"response_time":1706654206290.83},{"trial":7,"action":1,"button_pressed":3,"time_out":false,"dwell_time":63.90185546875,"response_time":1706654206723.34},{"trial":7,"action":1,"button_pressed":4,"time_out":false,"dwell_time":63.35498046875,"response_time":1706654207023.47},{"trial":7,"action":1,"button_pressed":1,"time_out":false,"dwell_time":47.361083984375,"response_time":1706654207456.69},{"trial":7,"action":1,"button_pressed":2,"time_out":false,"dwell_time":114.761962890625,"response_time":1706654207957.09},{"trial":7,"action":1,"button_pressed":10,"time_out":false,"dwell_time":30.177978515625,"response_time":1706654208439.82},{"trial":7,"action":9,"button_pressed":-1,"time_out":true,"dwell_time":10042.2150878906,"response_time":1706654218451.86},{"trial":8,"action":1,"button_pressed":5,"time_out":false,"dwell_time":98.09619140625,"response_time":1706654240929.79},{"trial":8,"action":1,"button_pressed":6,"time_out":false,"dwell_time":62.9111328125,"response_time":1706654241445.3},{"trial":8,"action":1,"button_pressed":4,"time_out":false,"dwell_time":63.696044921875,"response_time":1706654241712.66},{"trial":8,"action":1,"button_pressed":1,"time_out":false,"dwell_time":64.259033203125,"response_time":1706654242028.88},{"trial":8,"action":1,"button_pressed":11,"time_out":false,"dwell_time":29.80810546875,"response_time":1706654242661.92},{"trial":8,"action":1,"button_pressed":10,"time_out":false,"dwell_time":64.201904296875,"response_time":1706654242928.57},{"trial":8,"action":1,"button_pressed":7,"time_out":false,"dwell_time":80.49609375,"response_time":1706654243229.03},{"trial":8,"action":1,"button_pressed":0,"time_out":false,"dwell_time":64.37109375,"response_time":1706654245611.21},{"trial":8,"action":9,"button_pressed":-1,"time_out":false,"dwell_time":148.460205078125,"response_time":1706654246894.69},{"trial":9,"action":1,"button_pressed":8,"time_out":false,"dwell_time":96.169921875,"response_time":1706654264088.02},{"trial":9,"action":1,"button_pressed":11,"time_out":false,"dwell_time":63.485107421875,"response_time":1706654264538.51},{"trial":9,"action":1,"button_pressed":4,"time_out":false,"dwell_time":80.712890625,"response_time":1706654265137.75},{"trial":9,"action":1,"button_pressed":6,"time_out":false,"dwell_time":29.679931640625,"response_time":1706654265487.67},{"trial":9,"action":1,"button_pressed":1,"time_out":false,"dwell_time":63.822998046875,"response_time":1706654265854.71},{"trial":9,"action":1,"button_pressed":10,"time_out":false,"dwell_time":80.097900390625,"response_time":1706654266387.89},{"trial":9,"action":0,"button_pressed":-1,"time_out":false,"dwell_time":47.95703125,"response_time":1706654270337.32},{"trial":9,"action":1,"button_pressed":11,"time_out":false,"dwell_time":47.22216796875,"response_time":1706654270836.01},{"trial":9,"action":1,"button_pressed":8,"time_out":false,"dwell_time":80.343017578125,"response_time":1706654271219.66},{"trial":9,"action":1,"button_pressed":6,"time_out":false,"dwell_time":63.589111328125,"response_time":1706654271519.45},{"trial":9,"action":1,"button_pressed":4,"time_out":false,"dwell_time":47.10107421875,"response_time":1706654271752.76},{"trial":9,"action":1,"button_pressed":1,"time_out":false,"dwell_time":63.715087890625,"response_time":1706654272035.34},{"trial":9,"action":1,"button_pressed":10,"time_out":false,"dwell_time":30.051025390625,"response_time":1706654272335.64},{"trial":9,"action":9,"button_pressed":-1,"time_out":false,"dwell_time":147.941162109375,"response_time":1706654275518.76},{"trial":10,"action":1,"button_pressed":7,"time_out":false,"dwell_time":46.998046875,"response_time":1706654295445.03},{"trial":10,"action":1,"button_pressed":7,"time_out":false,"dwell_time":30.029052734375,"response_time":1706654296294.48},{"trial":10,"action":1,"button_pressed":9,"time_out":false,"dwell_time":30.85009765625,"response_time":1706654296695.1},{"trial":10,"action":0,"button_pressed":-1,"time_out":false,"dwell_time":47.7919921875,"response_time":1706654297694.78},{"trial":10,"action":1,"button_pressed":9,"time_out":false,"dwell_time":47.300048828125,"response_time":1706654298210.34},{"trial":10,"action":1,"button_pressed":7,"time_out":false,"dwell_time":63.744873046875,"response_time":1706654298694.04},{"trial":10,"action":1,"button_pressed":4,"time_out":false,"dwell_time":63.880859375,"response_time":1706654299609.63},{"trial":10,"action":1,"button_pressed":1,"time_out":false,"dwell_time":46.662841796875,"response_time":1706654300059.82},{"trial":10,"action":1,"button_pressed":11,"time_out":false,"dwell_time":13.45703125,"response_time":1706654300675.54},{"trial":10,"action":1,"button_pressed":3,"time_out":false,"dwell_time":30.046142578125,"response_time":1706654301109.46},{"trial":10,"action":1,"button_pressed":8,"time_out":false,"dwell_time":47.88916015625,"response_time":1706654301427.34},{"trial":10,"action":9,"button_pressed":-1,"time_out":false,"dwell_time":81.360107421875,"response_time":1706654303042.34},{"trial":11,"action":1,"button_pressed":10,"time_out":false,"dwell_time":47.77001953125,"response_time":1706654322602.6},{"trial":11,"action":1,"button_pressed":1,"time_out":false,"dwell_time":81.14501953125,"response_time":1706654323119.25},{"trial":11,"action":1,"button_pressed":2,"time_out":false,"dwell_time":80.544921875,"response_time":1706654323502.48},{"trial":11,"action":1,"button_pressed":7,"time_out":false,"dwell_time":63.59716796875,"response_time":1706654323968.17},{"trial":11,"action":1,"button_pressed":4,"time_out":false,"dwell_time":80.429931640625,"response_time":1706654328999.92},{"trial":11,"action":1,"button_pressed":3,"time_out":false,"dwell_time":79.613037109375,"response_time":1706654329449.86},{"trial":11,"action":1,"button_pressed":0,"time_out":false,"dwell_time":47.560791015625,"response_time":1706654331783.6},{"trial":11,"action":1,"button_pressed":0,"time_out":false,"dwell_time":46.85791015625,"response_time":1706654336464.65},{"trial":11,"action":1,"button_pressed":0,"time_out":false,"dwell_time":63.6669921875,"response_time":1706654337247.94},{"trial":11,"action":0,"button_pressed":-1,"time_out":false,"dwell_time":1100.11694335938,"response_time":1706654339912.95},{"trial":11,"action":1,"button_pressed":10,"time_out":false,"dwell_time":63.552978515625,"response_time":1706654340496.66},{"trial":11,"action":1,"button_pressed":1,"time_out":false,"dwell_time":81.44677734375,"response_time":1706654340896.72},{"trial":11,"action":1,"button_pressed":2,"time_out":false,"dwell_time":63.964111328125,"response_time":1706654341746.33},{"trial":11,"action":1,"button_pressed":7,"time_out":false,"dwell_time":64.208984375,"response_time":1706654342262.63},{"trial":11,"action":1,"button_pressed":6,"time_out":false,"dwell_time":63.70703125,"response_time":1706654343211.8},{"trial":11,"action":1,"button_pressed":0,"time_out":false,"dwell_time":97.2490234375,"response_time":1706654344011.61},{"trial":11,"action":1,"button_pressed":4,"time_out":false,"dwell_time":80.375,"response_time":1706654345094.28},{"trial":11,"action":0,"button_pressed":-1,"time_out":false,"dwell_time":16.81982421875,"response_time":1706654350210.5},{"trial":11,"action":1,"button_pressed":10,"time_out":false,"dwell_time":47.44091796875,"response_time":1706654350693.16},{"trial":11,"action":1,"button_pressed":1,"time_out":false,"dwell_time":63.972900390625,"response_time":1706654351176.67},{"trial":11,"action":1,"button_pressed":2,"time_out":false,"dwell_time":63.122802734375,"response_time":1706654351609.04},{"trial":11,"action":1,"button_pressed":7,"time_out":false,"dwell_time":64.64111328125,"response_time":1706654352109.66},{"trial":11,"action":1,"button_pressed":3,"time_out":false,"dwell_time":80.51611328125,"response_time":1706654352609.5},{"trial":11,"action":1,"button_pressed":0,"time_out":false,"dwell_time":80.5419921875,"response_time":1706654353475.18},{"trial":11,"action":1,"button_pressed":4,"time_out":false,"dwell_time":31.116943359375,"response_time":1706654353692.32},{"trial":11,"action":9,"button_pressed":-1,"time_out":false,"dwell_time":64.4560546875,"response_time":1706654355408.3}]}