{"meta_data":{"additional_headers":{},"game_name":"Recollect","version":"2.53.01","user_name":"15","organization":"braingamecenter","study":"mpl2_2022_11","session_number":0,"device_id":"74342D95-EE82-45E3-8ADF-48FB3203C5DD"},"data":[{"stage":"Practice","trial":0,"sequence":"6F","letter_input":"F","number_input":"","is_correct":false,"presentation_start_time":1676309828441.51,"presentation_end_time":1676309831441.86,"response_time":1676309838124.88},{"stage":"Practice","trial":1,"sequence":"G4","letter_input":"G","number_input":"4","is_correct":true,"presentation_start_time":1676309841153.95,"presentation_end_time":1676309844154.29,"response_time":1676309848268.33},{"stage":"Practice","trial":2,"sequence":"3W5","letter_input":"W","number_input":"35","is_correct":true,"presentation_start_time":1676309849801.09,"presentation_end_time":1676309854300.86,"response_time":1676309860830.9},{"stage":"Practice","trial":3,"sequence":"T7L","letter_input":"LT","number_input":"7","is_correct":true,"presentation_start_time":1676309862363.6,"presentation_end_time":1676309866863.34,"response_time":1676309873276.71},{"stage":"Practice","trial":4,"sequence":"9J1","letter_input":"J","number_input":"19","is_correct":true,"presentation_start_time":1676309874809.53,"presentation_end_time":1676309879309.17,"response_time":1676309883173.51},{"stage":"Calibration","trial":0,"sequence":"D2","letter_input":"D","number_input":"2","is_correct":true,"presentation_start_time":1676309892570.25,"presentation_end_time":1676309895570.45,"response_time":1676309899318.24},{"stage":"Calibration","trial":1,"sequence":"7Q","letter_input":"Q","number_input":"7","is_correct":true,"presentation_start_time":1676309900850.79,"presentation_end_time":1676309903850.62,"response_time":1676309909881.31},{"stage":"Calibration","trial":2,"sequence":"Y1S","letter_input":"SY","number_input":"1","is_correct":true,"presentation_start_time":1676309911414.08,"presentation_end_time":1676309915913.68,"response_time":1676309920644.41},{"stage":"Calibration","trial":3,"sequence":"5Z2","letter_input":"Z","number_input":"25","is_correct":true,"presentation_start_time":1676309922177.14,"presentation_end_time":1676309926676.79,"response_time":1676309930574.44},{"stage":"Calibration","trial":4,"sequence":"S7B3","letter_input":"SV","number_input":"37","is_correct":false,"presentation_start_time":1676309932107.18,"presentation_end_time":1676309938106.36,"response_time":1676309945569.5},{"stage":"Calibration","trial":5,"sequence":"8T4J","letter_input":"JT","number_input":"48","is_correct":true,"presentation_start_time":1676309947102.22,"presentation_end_time":1676309953101.48,"response_time":1676309959348.24},{"stage":"Calibration","trial":6,"sequence":"L6Z2N","letter_input":"LNZ","number_input":"26","is_correct":true,"presentation_start_time":1676309960880.94,"presentation_end_time":1676309968379.74,"response_time":1676309983540.25},{"stage":"Calibration","trial":7,"sequence":"5T3P8","letter_input":"TP","number_input":"358","is_correct":false,"presentation_start_time":1676309985072.92,"presentation_end_time":1676309992571.75,"response_time":1676309998435.28},{"stage":"Calibration","trial":8,"sequence":"Y6W2B9","letter_input":"BWY","number_input":"269","is_correct":true,"presentation_start_time":1676309999968.04,"presentation_end_time":1676310008966.3,"response_time":1676310019678.34},{"stage":"Calibration","trial":9,"sequence":"3N1G8V","letter_input":"GNV","number_input":"138","is_correct":true,"presentation_start_time":1676310021211.01,"presentation_end_time":1676310030209.23,"response_time":1676310046019.56},{"stage":"Calibration","trial":10,"sequence":"R9P7W2H","letter_input":"HPHRW","number_input":"279","is_correct":false,"presentation_start_time":1676310047552.27,"presentation_end_time":1676310058050.09,"response_time":1676310081940.99},{"stage":"Calibration","trial":11,"sequence":"4E1B8S6","letter_input":"BBS","number_input":"148","is_correct":false,"presentation_start_time":1676310083473.73,"presentation_end_time":1676310093971.46,"response_time":1676310108448.94}]}