Audio_Only_Files,Video_Files,Original_Word_List,noiseLevelCode,conditionCodes,noiseLevelFile1,noiseLevelFile2,InstrTextVar,practiceTrials.thisRepN,practiceTrials.thisTrialN,practiceTrials.thisN,practiceTrials.thisIndex,trials.thisRepN,trials.thisTrialN,trials.thisN,trials.thisIndex,letsGoAlready.keys,letsGoAlready.rt,letsGoAlready.started,letsGoAlready.stopped,text_2.started,text_2.stopped,text_3.started,text_3.stopped,key_resp_2.keys,key_resp_2.rt,key_resp_2.started,key_resp_2.stopped,text_5.started,text_5.stopped,fixCross.started,fixCross.stopped,fixCross2.started,fixCross2.stopped,answerPrompt.started,answerPrompt.stopped,getAnswer.text,getAnswer.started,getAnswer.stopped,goToNext.keys,goToNext.rt,goToNext.started,goToNext.stopped,stretchBreakTxrt.started,stretchBreakTxrt.stopped,key_resp_3.keys,key_resp_3.rt,key_resp_3.started,key_resp_3.stopped,participant,session,date,expName,psychopyVersion,frameRate,
,,,,,,,,,,,,,,,,space,1.33798841398675,11.055518033972476,None,,,,,,,,,,,,,,,,,,,,,,,,,,,,,,15,001,2023_Feb_13_1042,SpeechDraft1Carolyn_lessNoise,2021.2.3,59.977618751733196,
,,,,,,,,,,,,,,,,,,,,11.055518033972476,None,12.42217122198781,None,space,0.6764588300138712,12.588934324972797,None,,,,,,,,,,,,,,,,,,,,,,15,001,2023_Feb_13_1042,SpeechDraft1Carolyn_lessNoise,2021.2.3,59.977618751733196,
ash.wav,ash.mpg,ash,1,A,Pink_Noise_1_1.wav,Pink_Noise_1_2.wav,"This is an example of an

AUDIO trial",0,0,0,0,,,,,,,,,,,,,,,,,13.321798179997131,None,14.305624878965318,None,16.388410253974143,None,17.75533189397538,None,esh,17.75533189397538,None,return,3.0828348599607125,17.8385960739688,None,,,,,,,15,001,2023_Feb_13_1042,SpeechDraft1Carolyn_lessNoise,2021.2.3,59.977618751733196,
ash.wav,ash.mpg,ash,1,AV,Pink_Noise_1_1.wav,Pink_Noise_1_2.wav,"This is an example of an

AUDIO + VIDEO  trial",0,1,1,1,,,,,,,,,,,,,,,,,20.95531544100959,None,21.955281450995244,None,23.4384639839991,None,24.82193576497957,None,ash,24.82193576497957,None,return,1.6799488179967739,24.90547575696837,None,,,,,,,15,001,2023_Feb_13_1042,SpeechDraft1Carolyn_lessNoise,2021.2.3,59.977618751733196,
,,,,,,,,,,,,,,,,,,,,,,,,,,,,,,,,,,,,,,,,,,,26.622398642997723,None,space,5.9801459449809045,26.805314789991826,None,15,001,2023_Feb_13_1042,SpeechDraft1Carolyn_lessNoise,2021.2.3,59.977618751733196,
cord.wav,cord.mpg,cord,1,A,Pink_Noise_1_1.wav,Pink_Noise_1_2.wav,,,,,,0,0,0,54,,,,,,,,,,,,,,,32.83842063497286,None,34.30562102200929,None,35.68860479298746,None,core,35.68860479298746,None,return,1.0054443679982796,35.77210177195957,None,,,,,,,15,001,2023_Feb_13_1042,SpeechDraft1Carolyn_lessNoise,2021.2.3,59.977618751733196,
draw.wav,draw.mpg,draw,6,AV,Pink_Noise_6_1.wav,Pink_Noise_6_2.wav,,,,,,0,1,1,61,,,,,,,,,,,,,,,36.805249788973015,None,38.28856067999732,None,39.6720179389813,None,draw,39.6720179389813,None,return,1.9260041450033896,39.75533541897312,None,,,,,,,15,001,2023_Feb_13_1042,SpeechDraft1Carolyn_lessNoise,2021.2.3,59.977618751733196,
cell.wav,cell.mpg,cell,6,AV,Pink_Noise_6_1.wav,Pink_Noise_6_2.wav,,,,,,0,2,2,88,,,,,,,,,,,,,,,41.70531209500041,None,43.18887585698394,None,44.5720547339879,None,celll,44.5720547339879,None,return,1.8981305920169689,44.655276879959274,None,,,,,,,15,001,2023_Feb_13_1042,SpeechDraft1Carolyn_lessNoise,2021.2.3,59.977618751733196,
flash.wav,flash.mpg,flash,6,AV,Pink_Noise_6_1.wav,Pink_Noise_6_2.wav,,,,,,0,3,3,64,,,,,,,,,,,,,,,46.57203944498906,None,48.05514286097605,None,49.43866051500663,None,flash,49.43866051500663,None,return,1.62347030302044,49.5219631769578,None,,,,,,,15,001,2023_Feb_13_1042,SpeechDraft1Carolyn_lessNoise,2021.2.3,59.977618751733196,
bloom.wav,bloom.mpg,bloom,6,AV,Pink_Noise_6_1.wav,Pink_Noise_6_2.wav,,,,,,0,4,4,119,,,,,,,,,,,,,,,51.1720327869989,None,52.655176166968886,None,54.03875843598507,None,blue,54.03875843598507,None,return,2.5753842649864964,54.12195850396529,None,,,,,,,15,001,2023_Feb_13_1042,SpeechDraft1Carolyn_lessNoise,2021.2.3,59.977618751733196,
clog.wav,clog.mpg,clog,5,AV,Pink_Noise_5_1.wav,Pink_Noise_5_2.wav,,,,,,0,5,5,95,,,,,,,,,,,,,,,56.722097585967276,None,58.22182164399419,None,59.58876542496728,None,cloud,59.58876542496728,None,return,1.857397899031639,59.67206837795675,None,,,,,,,15,001,2023_Feb_13_1042,SpeechDraft1Carolyn_lessNoise,2021.2.3,59.977618751733196,
cruel.wav,cruel.mpg,cruel,6,A,Pink_Noise_6_1.wav,Pink_Noise_6_2.wav,,,,,,0,6,6,9,,,,,,,,,,,,,,,61.555371493974235,None,63.055380186007824,None,64.43865824496606,None,cool,64.43865824496606,None,return,1.1995320250280201,64.52195546595613,None,,,,,,,15,001,2023_Feb_13_1042,SpeechDraft1Carolyn_lessNoise,2021.2.3,59.977618751733196,
bank.wav,bank.mpg,bank,4,A,Pink_Noise_4_1.wav,Pink_Noise_4_2.wav,,,,,,0,7,7,45,,,,,,,,,,,,,,,65.73861131398007,None,67.23847723699873,None,68.6053982389858,None,ank,68.6053982389858,None,return,1.7925760369980708,68.68879665801069,None,,,,,,,15,001,2023_Feb_13_1042,SpeechDraft1Carolyn_lessNoise,2021.2.3,59.977618751733196,
bound.wav,bound.mpg,bound,6,A,Pink_Noise_6_1.wav,Pink_Noise_6_2.wav,,,,,,0,8,8,44,,,,,,,,,,,,,,,70.50538995699026,None,71.99025267997058,None,73.37206534697907,None,sound,73.37206534697907,None,return,0.8979280390194617,73.45545326900901,None,,,,,,,15,001,2023_Feb_13_1042,SpeechDraft1Carolyn_lessNoise,2021.2.3,59.977618751733196,
flag.wav,flag.mpg,flag,5,AV,Pink_Noise_5_1.wav,Pink_Noise_5_2.wav,,,,,,0,9,9,104,,,,,,,,,,,,,,,74.37207648600452,None,75.85515927098459,None,77.23877384798834,None,clloud,77.23877384798834,None,return,4.815461021033116,77.32198857999174,None,,,,,,,15,001,2023_Feb_13_1042,SpeechDraft1Carolyn_lessNoise,2021.2.3,59.977618751733196,
tomb.wav,tomb.mpg,tomb,3,A,Pink_Noise_3_1.wav,Pink_Noise_3_2.wav,,,,,,0,10,10,29,,,,,,,,,,,,,,,82.15536173200235,None,83.65502207697136,None,85.02198197395774,None,two,85.02198197395774,None,return,0.9759862910141237,85.10536014498211,None,,,,,,,15,001,2023_Feb_13_1042,SpeechDraft1Carolyn_lessNoise,2021.2.3,59.977618751733196,
wound.wav,wound.mpg,wound,1,A,Pink_Noise_1_1.wav,Pink_Noise_1_2.wav,,,,,,0,11,11,48,,,,,,,,,,,,,,,86.10536514897831,None,87.59076025598915,None,88.97212085896172,None,wound,88.97212085896172,None,return,1.2420054789981805,89.0553786859964,None,,,,,,,15,001,2023_Feb_13_1042,SpeechDraft1Carolyn_lessNoise,2021.2.3,59.977618751733196,
paid.wav,paid.mpg,paid,4,A,Pink_Noise_4_1.wav,Pink_Noise_4_2.wav,,,,,,0,12,12,33,,,,,,,,,,,,,,,90.32214805000694,None,91.8053032339667,None,93.18887364398688,None,pay,93.18887364398688,None,return,1.864670395036228,93.28869396599475,None,,,,,,,15,001,2023_Feb_13_1042,SpeechDraft1Carolyn_lessNoise,2021.2.3,59.977618751733196,
crawl.wav,crawl.mpg,crawl,3,AV,Pink_Noise_3_1.wav,Pink_Noise_3_2.wav,,,,,,0,13,13,102,,,,,,,,,,,,,,,95.17205553496024,None,96.6552094409708,None,98.0388035629876,None,"crawl
",98.0388035629876,None,return,1.1033224410493858,98.12203917896841,None,,,,,,,15,001,2023_Feb_13_1042,SpeechDraft1Carolyn_lessNoise,2021.2.3,59.977618751733196,
crisp.wav,crisp.mpg,crisp,6,AV,Pink_Noise_6_1.wav,Pink_Noise_6_2.wav,,,,,,0,14,14,60,,,,,,,,,,,,,,,99.25541525596054,None,100.73868675297126,None,102.1221163480077,None,"crisp
",102.1221163480077,None,return,1.2520545690204017,102.20531235198723,None,,,,,,,15,001,2023_Feb_13_1042,SpeechDraft1Carolyn_lessNoise,2021.2.3,59.977618751733196,
blunt.wav,blunt.mpg,blunt,2,AV,Pink_Noise_2_1.wav,Pink_Noise_2_2.wav,,,,,,0,15,15,71,,,,,,,,,,,,,,,103.48873887199443,None,104.97188321501017,None,106.35542689898284,None,blunt,106.35542689898284,None,return,1.0106121719582006,106.43876047397498,None,,,,,,,15,001,2023_Feb_13_1042,SpeechDraft1Carolyn_lessNoise,2021.2.3,59.977618751733196,
belt.wav,belt.mpg,belt,2,AV,Pink_Noise_2_1.wav,Pink_Noise_2_2.wav,,,,,,0,16,16,67,,,,,,,,,,,,,,,107.47207079199143,None,108.95638483896619,None,110.3386517179897,None,belt,110.3386517179897,None,return,0.6273316300357692,110.42201464797836,None,,,,,,,15,001,2023_Feb_13_1042,SpeechDraft1Carolyn_lessNoise,2021.2.3,59.977618751733196,
blade.wav,blade.mpg,blade,2,AV,Pink_Noise_2_1.wav,Pink_Noise_2_2.wav,,,,,,0,17,17,86,,,,,,,,,,,,,,,111.07200114795705,None,112.55535748897819,None,113.93872457096586,None,blade,113.93872457096586,None,return,0.9632784179993905,114.02216707199113,None,,,,,,,15,001,2023_Feb_13_1042,SpeechDraft1Carolyn_lessNoise,2021.2.3,59.977618751733196,
chase.wav,chase.mpg,chase,5,AV,Pink_Noise_5_1.wav,Pink_Noise_5_2.wav,,,,,,0,18,18,100,,,,,,,,,,,,,,,115.00547012500465,None,116.49051459197653,None,117.8720816919813,None,"chase
",117.8720816919813,None,return,1.1019222649629228,117.95542421098799,None,,,,,,,15,001,2023_Feb_13_1042,SpeechDraft1Carolyn_lessNoise,2021.2.3,59.977618751733196,
lead.wav,lead.mpg,lead,4,A,Pink_Noise_4_1.wav,Pink_Noise_4_2.wav,,,,,,0,19,19,22,,,,,,,,,,,,,,,119.08872090501245,None,120.57195610698545,None,121.95545012498042,None,lead,121.95545012498042,None,return,1.0265825410024263,122.03876912599662,None,,,,,,,15,001,2023_Feb_13_1042,SpeechDraft1Carolyn_lessNoise,2021.2.3,59.977618751733196,
beam.wav,beam.mpg,beam,3,A,Pink_Noise_3_1.wav,Pink_Noise_3_2.wav,,,,,,0,20,20,53,,,,,,,,,,,,,,,123.08915018400876,None,124.5887034710031,None,125.95543968398124,None,need,125.95543968398124,None,return,0.7546557460445911,126.03882350696949,None,,,,,,,15,001,2023_Feb_13_1042,SpeechDraft1Carolyn_lessNoise,2021.2.3,59.977618751733196,
golf.wav,golf.mpg,golf,4,AV,Pink_Noise_4_1.wav,Pink_Noise_4_2.wav,,,,,,0,21,21,62,,,,,,,,,,,,,,,126.8221048899577,None,128.30527506698854,None,129.6888590339804,None,golf,129.6888590339804,None,return,0.5893175780074671,129.7721701869741,None,,,,,,,15,001,2023_Feb_13_1042,SpeechDraft1Carolyn_lessNoise,2021.2.3,59.977618751733196,
blank.wav,blank.mpg,blank,4,AV,Pink_Noise_4_1.wav,Pink_Noise_4_2.wav,,,,,,0,22,22,85,,,,,,,,,,,,,,,130.38871807197575,None,131.87184952100506,None,133.25653726101154,None,blank,133.25653726101154,None,return,0.566468842967879,133.33896725298837,None,,,,,,,15,001,2023_Feb_13_1042,SpeechDraft1Carolyn_lessNoise,2021.2.3,59.977618751733196,
four.wav,four.mpg,four,4,A,Pink_Noise_4_1.wav,Pink_Noise_4_2.wav,,,,,,0,23,23,18,,,,,,,,,,,,,,,133.9222035839921,None,135.40549214696512,None,136.78875875199446,None,for,136.78875875199446,None,return,0.4092200809973292,136.87212667695712,None,,,,,,,15,001,2023_Feb_13_1042,SpeechDraft1Carolyn_lessNoise,2021.2.3,59.977618751733196,
dual.wav,dual.mpg,dual,5,A,Pink_Noise_5_1.wav,Pink_Noise_5_2.wav,,,,,,0,24,24,50,,,,,,,,,,,,,,,137.30551276396727,None,138.7886400700081,None,140.17209272499895,None,wool,140.17209272499895,None,return,1.02589510101825,140.2554477849626,None,,,,,,,15,001,2023_Feb_13_1042,SpeechDraft1Carolyn_lessNoise,2021.2.3,59.977618751733196,
chain.wav,chain.mpg,chain,1,AV,Pink_Noise_1_1.wav,Pink_Noise_1_2.wav,,,,,,0,25,25,77,,,,,,,,,,,,,,,141.30544180097058,None,142.78872413898353,None,144.1721502589644,None,chain,144.1721502589644,None,return,0.721998774970416,144.2554258389864,None,,,,,,,15,001,2023_Feb_13_1042,SpeechDraft1Carolyn_lessNoise,2021.2.3,59.977618751733196,
green.wav,green.mpg,green,3,AV,Pink_Noise_3_1.wav,Pink_Noise_3_2.wav,,,,,,0,26,26,72,,,,,,,,,,,,,,,145.00547034398187,None,146.49068087199703,None,147.87206865398912,None,green,147.87206865398912,None,return,0.69378361600684,147.95555614499608,None,,,,,,,15,001,2023_Feb_13_1042,SpeechDraft1Carolyn_lessNoise,2021.2.3,59.977618751733196,
glove.wav,glove.mpg,glove,4,AV,Pink_Noise_4_1.wav,Pink_Noise_4_2.wav,,,,,,0,27,27,108,,,,,,,,,,,,,,,148.6720965539571,None,150.15522899496136,None,151.53902250301326,None,"glove
",151.53902250301326,None,return,0.8192012879881077,151.6221644639736,None,,,,,,,15,001,2023_Feb_13_1042,SpeechDraft1Carolyn_lessNoise,2021.2.3,59.977618751733196,
dune.wav,dune.mpg,dune,3,AV,Pink_Noise_3_1.wav,Pink_Noise_3_2.wav,,,,,,0,28,28,65,,,,,,,,,,,,,,,152.47210110200103,None,153.97200672299368,None,155.34043795696925,None,do,155.34043795696925,None,return,0.3632784540532157,155.42220930795884,None,,,,,,,15,001,2023_Feb_13_1042,SpeechDraft1Carolyn_lessNoise,2021.2.3,59.977618751733196,
bread.wav,bread.mpg,bread,4,A,Pink_Noise_4_1.wav,Pink_Noise_4_2.wav,,,,,,0,29,29,40,,,,,,,,,,,,,,,155.80560092598898,None,157.28851984796347,None,158.67213020595955,None,red,158.67213020595955,None,return,0.4619103349978104,158.7554656569846,None,,,,,,,15,001,2023_Feb_13_1042,SpeechDraft1Carolyn_lessNoise,2021.2.3,59.977618751733196,
climb.wav,climb.mpg,climb,2,A,Pink_Noise_2_1.wav,Pink_Noise_2_2.wav,,,,,,0,30,30,26,,,,,,,,,,,,,,,159.2388201179565,None,160.72229349799454,None,162.1055103079998,None,climnb,162.1055103079998,None,return,1.8125445549958386,162.1888327099732,None,,,,,,,15,001,2023_Feb_13_1042,SpeechDraft1Carolyn_lessNoise,2021.2.3,59.977618751733196,
coil.wav,coil.mpg,coil,1,AV,Pink_Noise_1_1.wav,Pink_Noise_1_2.wav,,,,,,0,31,31,75,,,,,,,,,,,,,,,164.02215575496666,None,165.50548539299052,None,166.88885623699753,None,coil,166.88885623699753,None,return,0.6372212860151194,166.97214401100064,None,,,,,,,15,001,2023_Feb_13_1042,SpeechDraft1Carolyn_lessNoise,2021.2.3,59.977618751733196,
else.wav,else.mpg,else,3,A,Pink_Noise_3_1.wav,Pink_Noise_3_2.wav,,,,,,0,32,32,6,,,,,,,,,,,,,,,167.6388609019923,None,169.12199714395683,None,170.5055751199834,None,else,170.5055751199834,None,return,0.4204671540064737,170.5888934279792,None,,,,,,,15,001,2023_Feb_13_1042,SpeechDraft1Carolyn_lessNoise,2021.2.3,59.977618751733196,
flood.wav,flood.mpg,flood,6,A,Pink_Noise_6_1.wav,Pink_Noise_6_2.wav,,,,,,0,33,33,8,,,,,,,,,,,,,,,171.03888691298198,None,172.5219333890127,None,173.90547653997783,None,faint,173.90547653997783,None,return,0.8604680969729088,173.98888421297306,None,,,,,,,15,001,2023_Feb_13_1042,SpeechDraft1Carolyn_lessNoise,2021.2.3,59.977618751733196,
lie.wav,lie.mpg,lie,2,A,Pink_Noise_2_1.wav,Pink_Noise_2_2.wav,,,,,,0,34,34,51,,,,,,,,,,,,,,,174.87222525500692,None,176.35658358497312,None,177.73894250398735,None,"fly
",177.73894250398735,None,return,0.6191598270088434,177.82219722896116,None,,,,,,,15,001,2023_Feb_13_1042,SpeechDraft1Carolyn_lessNoise,2021.2.3,59.977618751733196,
edge.wav,edge.mpg,edge,1,A,Pink_Noise_1_1.wav,Pink_Noise_1_2.wav,,,,,,0,35,35,10,,,,,,,,,,,,,,,178.47216075996403,None,179.9554706919589,None,181.3389095320017,None,dge,181.3389095320017,None,return,0.3472658499958925,181.42220151500078,None,,,,,,,15,001,2023_Feb_13_1042,SpeechDraft1Carolyn_lessNoise,2021.2.3,59.977618751733196,
bell.wav,bell.mpg,bell,5,AV,Pink_Noise_5_1.wav,Pink_Noise_5_2.wav,,,,,,0,36,36,82,,,,,,,,,,,,,,,181.78884685295634,None,183.2720282759983,None,184.655431200983,None,bell,184.655431200983,None,return,0.6224245940102264,184.73898456600728,None,,,,,,,15,001,2023_Feb_13_1042,SpeechDraft1Carolyn_lessNoise,2021.2.3,59.977618751733196,
gym.wav,gym.mpg,gym,5,A,Pink_Noise_5_1.wav,Pink_Noise_5_2.wav,,,,,,0,37,37,11,,,,,,,,,,,,,,,185.38879955396987,None,186.8885848299833,None,188.27234286797466,None,gym,188.27234286797466,None,return,0.7257272859569639,188.35565127100563,None,,,,,,,15,001,2023_Feb_13_1042,SpeechDraft1Carolyn_lessNoise,2021.2.3,59.977618751733196,
gum.wav,gum.mpg,gum,4,A,Pink_Noise_4_1.wav,Pink_Noise_4_2.wav,,,,,,0,38,38,59,,,,,,,,,,,,,,,189.10569606296485,None,190.58861154696206,None,191.97225042397622,None,girl,191.97225042397622,None,return,0.857870530046057,192.0554907739861,None,,,,,,,15,001,2023_Feb_13_1042,SpeechDraft1Carolyn_lessNoise,2021.2.3,59.977618751733196,
ditch.wav,ditch.mpg,ditch,3,A,Pink_Noise_3_1.wav,Pink_Noise_3_2.wav,,,,,,0,39,39,14,,,,,,,,,,,,,,,192.93900491599925,None,194.42203932598932,None,195.80556098598754,None,ditch,195.80556098598754,None,return,0.8484342790325172,195.8890004690038,None,,,,,,,15,001,2023_Feb_13_1042,SpeechDraft1Carolyn_lessNoise,2021.2.3,59.977618751733196,
cup.wav,cup.mpg,cup,2,AV,Pink_Noise_2_1.wav,Pink_Noise_2_2.wav,,,,,,0,40,40,63,,,,,,,,,,,,,,,196.7555536609725,None,198.2387369729695,None,199.6222540269955,None,cup,199.6222540269955,None,return,0.6958525970112532,199.70552637596847,None,,,,,,,15,001,2023_Feb_13_1042,SpeechDraft1Carolyn_lessNoise,2021.2.3,59.977618751733196,
bend.wav,bend.mpg,bend,4,A,Pink_Noise_4_1.wav,Pink_Noise_4_2.wav,,,,,,0,41,41,30,,,,,,,,,,,,,,,200.42224473395618,None,201.9054198130034,None,203.28879099996993,None,"bend
",203.28879099996993,None,return,0.701144437014591,203.37221278395737,None,,,,,,,15,001,2023_Feb_13_1042,SpeechDraft1Carolyn_lessNoise,2021.2.3,59.977618751733196,
grain.wav,grain.mpg,grain,1,AV,Pink_Noise_1_1.wav,Pink_Noise_1_2.wav,,,,,,0,42,42,81,,,,,,,,,,,,,,,204.10568217100808,None,205.6054340209812,None,206.97241356497398,None,"grain
",206.97241356497398,None,return,0.617774409998674,207.05557345197303,None,,,,,,,15,001,2023_Feb_13_1042,SpeechDraft1Carolyn_lessNoise,2021.2.3,59.977618751733196,
blot.wav,blot.mpg,blot,3,AV,Pink_Noise_3_1.wav,Pink_Noise_3_2.wav,,,,,,0,43,43,74,,,,,,,,,,,,,,,207.7055430629989,None,209.18879942101194,None,210.57218384899898,None,"blocked
",210.57218384899898,None,return,1.0338324049953371,210.65552278899122,None,,,,,,,15,001,2023_Feb_13_1042,SpeechDraft1Carolyn_lessNoise,2021.2.3,59.977618751733196,
floor.wav,floor.mpg,floor,3,AV,Pink_Noise_3_1.wav,Pink_Noise_3_2.wav,,,,,,0,44,44,93,,,,,,,,,,,,,,,211.72225004597567,None,213.22199940896826,None,214.58882824896136,None,floor,214.58882824896136,None,return,1.0090482659870759,214.67230662499787,None,,,,,,,15,001,2023_Feb_13_1042,SpeechDraft1Carolyn_lessNoise,2021.2.3,59.977618751733196,
brew.wav,brew.mpg,brew,5,A,Pink_Noise_5_1.wav,Pink_Noise_5_2.wav,,,,,,0,45,45,55,,,,,,,,,,,,,,,215.70549729000777,None,217.19048408500385,None,218.5721993309562,None,gray,218.5721993309562,None,return,0.8817437419784255,218.65572061599232,None,,,,,,,15,001,2023_Feb_13_1042,SpeechDraft1Carolyn_lessNoise,2021.2.3,59.977618751733196,
shut.wav,shut.mpg,shut,5,A,Pink_Noise_5_1.wav,Pink_Noise_5_2.wav,,,,,,0,46,46,35,,,,,,,,,,,,,,,219.55566614097916,None,221.03872963500908,None,222.42215179896448,None,"shut
",222.42215179896448,None,return,0.9197979640448466,222.50555617699865,None,,,,,,,15,001,2023_Feb_13_1042,SpeechDraft1Carolyn_lessNoise,2021.2.3,59.977618751733196,
grasp.wav,grasp.mpg,grasp,6,AV,Pink_Noise_6_1.wav,Pink_Noise_6_2.wav,,,,,,0,47,47,110,,,,,,,,,,,,,,,223.45558320597047,None,224.9389090409968,None,226.32214499497786,None,crass,226.32214499497786,None,return,1.723871076013893,226.40559297200525,None,,,,,,,15,001,2023_Feb_13_1042,SpeechDraft1Carolyn_lessNoise,2021.2.3,59.977618751733196,
bless.wav,bless.mpg,bless,5,A,Pink_Noise_5_1.wav,Pink_Noise_5_2.wav,,,,,,0,48,48,21,,,,,,,,,,,,,,,228.15561255899956,None,229.63875128200743,None,231.0222016950138,None,"bless
",231.0222016950138,None,return,1.319699103012681,231.10565953800688,None,,,,,,,15,001,2023_Feb_13_1042,SpeechDraft1Carolyn_lessNoise,2021.2.3,59.977618751733196,
dip.wav,dip.mpg,dip,3,AV,Pink_Noise_3_1.wav,Pink_Noise_3_2.wav,,,,,,0,49,49,113,,,,,,,,,,,,,,,232.45563518296694,None,233.95537130499724,None,235.3221927289851,None,dip,235.3221927289851,None,return,0.9877059540012851,235.40564295800868,None,,,,,,,15,001,2023_Feb_13_1042,SpeechDraft1Carolyn_lessNoise,2021.2.3,59.977618751733196,
lost.wav,lost.mpg,lost,4,AV,Pink_Noise_4_1.wav,Pink_Noise_4_2.wav,,,,,,0,50,50,66,,,,,,,,,,,,,,,236.42227311298484,None,237.90539866295876,None,239.28888246801216,None,lost,239.28888246801216,None,return,0.9651092429994605,239.37235724099446,None,,,,,,,15,001,2023_Feb_13_1042,SpeechDraft1Carolyn_lessNoise,2021.2.3,59.977618751733196,
groan.wav,groan.mpg,groan,6,A,Pink_Noise_6_1.wav,Pink_Noise_6_2.wav,,,,,,0,51,51,41,,,,,,,,,,,,,,,240.35548972099787,None,241.8386759950081,None,243.22223020298406,None,"crow
",243.22223020298406,None,return,1.5356834860285744,243.30565690697404,None,,,,,,,15,001,2023_Feb_13_1042,SpeechDraft1Carolyn_lessNoise,2021.2.3,59.977618751733196,
damp.wav,damp.mpg,damp,5,AV,Pink_Noise_5_1.wav,Pink_Noise_5_2.wav,,,,,,0,52,52,116,,,,,,,,,,,,,,,244.87234144000104,None,246.3721115909866,None,247.73907695600064,None,"damp
",247.73907695600064,None,return,2.3869568959926255,247.82238896901254,None,,,,,,,15,001,2023_Feb_13_1042,SpeechDraft1Carolyn_lessNoise,2021.2.3,59.977618751733196,
chef.wav,chef.mpg,chef,2,A,Pink_Noise_2_1.wav,Pink_Noise_2_2.wav,,,,,,0,53,53,16,,,,,,,,,,,,,,,250.2390212540049,None,251.72223288397072,None,253.10560606297804,None,chef,253.10560606297804,None,return,0.9484718549647368,253.18895105697447,None,,,,,,,15,001,2023_Feb_13_1042,SpeechDraft1Carolyn_lessNoise,2021.2.3,59.977618751733196,
hike.wav,hike.mpg,hike,6,A,Pink_Noise_6_1.wav,Pink_Noise_6_2.wav,,,,,,0,54,54,42,,,,,,,,,,,,,,,254.15559404197847,None,255.63935249799397,None,257.02237159898505,None,height,257.02237159898505,None,return,0.5437164329923689,257.1056309340056,None,,,,,,,15,001,2023_Feb_13_1042,SpeechDraft1Carolyn_lessNoise,2021.2.3,59.977618751733196,
pants.wav,pants.mpg,pants,2,A,Pink_Noise_2_1.wav,Pink_Noise_2_2.wav,,,,,,0,55,55,0,,,,,,,,,,,,,,,257.6723080179654,None,259.15554137097206,None,260.5390979090007,None,pants,260.5390979090007,None,return,1.3310150340548716,260.6223347299965,None,,,,,,,15,001,2023_Feb_13_1042,SpeechDraft1Carolyn_lessNoise,2021.2.3,59.977618751733196,
ask.wav,ask.mpg,ask,2,AV,Pink_Noise_2_1.wav,Pink_Noise_2_2.wav,,,,,,0,56,56,97,,,,,,,,,,,,,,,261.97225856001023,None,263.4722310359939,None,264.8390376360039,None,"ask
",264.8390376360039,None,return,0.3350347020314075,264.9223230869975,None,,,,,,,15,001,2023_Feb_13_1042,SpeechDraft1Carolyn_lessNoise,2021.2.3,59.977618751733196,
bet.wav,bet.mpg,bet,3,AV,Pink_Noise_3_1.wav,Pink_Noise_3_2.wav,,,,,,0,57,57,90,,,,,,,,,,,,,,,265.28902293299325,None,266.7726952540106,None,268.156468089961,None,t,268.156468089961,None,return,0.026360846997704357,268.2389833959751,None,,,,,,,15,001,2023_Feb_13_1042,SpeechDraft1Carolyn_lessNoise,2021.2.3,59.977618751733196,
beg.wav,beg.mpg,beg,1,AV,Pink_Noise_1_1.wav,Pink_Noise_1_2.wav,,,,,,0,58,58,103,,,,,,,,,,,,,,,268.28895666700555,None,269.77291807497386,None,271.1555793249863,None,bag,271.1555793249863,None,return,1.522490659961477,271.23898997798096,None,,,,,,,15,001,2023_Feb_13_1042,SpeechDraft1Carolyn_lessNoise,2021.2.3,59.977618751733196,
cried.wav,cried.mpg,cried,2,A,Pink_Noise_2_1.wav,Pink_Noise_2_2.wav,,,,,,0,59,59,23,,,,,,,,,,,,,,,272.78899242100306,None,274.28874785796506,None,275.67224575200817,None,cried,275.67224575200817,None,return,0.8297159029752947,275.7557330330019,None,,,,,,,15,001,2023_Feb_13_1042,SpeechDraft1Carolyn_lessNoise,2021.2.3,59.977618751733196,
clip.wav,clip.mpg,clip,4,AV,Pink_Noise_4_1.wav,Pink_Noise_4_2.wav,,,,,,0,60,60,98,,,,,,,,,,,,,,,276.605657321983,None,278.089160339965,None,279.4723124349839,None,clip,279.4723124349839,None,return,0.7738396560307592,279.55562927998835,None,,,,,,,15,001,2023_Feb_13_1042,SpeechDraft1Carolyn_lessNoise,2021.2.3,59.977618751733196,
bench.wav,bench.mpg,bench,4,AV,Pink_Noise_4_1.wav,Pink_Noise_4_2.wav,,,,,,0,61,61,78,,,,,,,,,,,,,,,280.3556653709966,None,281.8392635170021,None,283.22235464298865,None,bench,283.22235464298865,None,return,1.031691148004029,283.30571957299253,None,,,,,,,15,001,2023_Feb_13_1042,SpeechDraft1Carolyn_lessNoise,2021.2.3,59.977618751733196,
freeze.wav,freeze.mpg,freeze,2,AV,Pink_Noise_2_1.wav,Pink_Noise_2_2.wav,,,,,,0,62,62,118,,,,,,,,,,,,,,,284.35585628496483,None,285.84003182896413,None,287.2223810440046,None,freeds,287.2223810440046,None,return,1.2956306380219758,287.3057399909594,None,,,,,,,15,001,2023_Feb_13_1042,SpeechDraft1Carolyn_lessNoise,2021.2.3,59.977618751733196,
dream.wav,dream.mpg,dream,6,A,Pink_Noise_6_1.wav,Pink_Noise_6_2.wav,,,,,,0,63,63,31,,,,,,,,,,,,,,,288.6223309839843,None,290.1059947439935,None,291.48901031998685,None,ate,291.48901031998685,None,return,0.8050091070472263,291.5724028769764,None,,,,,,,15,001,2023_Feb_13_1042,SpeechDraft1Carolyn_lessNoise,2021.2.3,59.977618751733196,
coal.wav,coal.mpg,coal,6,AV,Pink_Noise_6_1.wav,Pink_Noise_6_2.wav,,,,,,0,64,64,68,,,,,,,,,,,,,,,292.40567030600505,None,293.90547750197584,None,295.27230079099536,None,core,295.27230079099536,None,return,0.7817662539891899,295.35567173495656,None,,,,,,,15,001,2023_Feb_13_1042,SpeechDraft1Carolyn_lessNoise,2021.2.3,59.977618751733196,
cough.wav,cough.mpg,cough,5,A,Pink_Noise_5_1.wav,Pink_Noise_5_2.wav,,,,,,0,65,65,34,,,,,,,,,,,,,,,296.1558100240072,None,297.6390317250043,None,299.0224051880068,None,ta;lk,299.0224051880068,None,return,2.8317792339948937,299.10567383200396,None,,,,,,,15,001,2023_Feb_13_1042,SpeechDraft1Carolyn_lessNoise,2021.2.3,59.977618751733196,
sue.wav,sue.mpg,sue,1,A,Pink_Noise_1_1.wav,Pink_Noise_1_2.wav,,,,,,0,66,66,1,,,,,,,,,,,,,,,301.9557109779562,None,303.45553608099,None,304.839069190959,None,"sue
",304.839069190959,None,return,0.7511010310263373,304.9222808809718,None,,,,,,,15,001,2023_Feb_13_1042,SpeechDraft1Carolyn_lessNoise,2021.2.3,59.977618751733196,
foot.wav,foot.mpg,foot,1,A,Pink_Noise_1_1.wav,Pink_Noise_1_2.wav,,,,,,0,67,67,46,,,,,,,,,,,,,,,305.70567877899157,None,307.18887991196243,None,308.57245804398553,None,foot,308.57245804398553,None,return,0.9456948099541478,308.65568786801305,None,,,,,,,15,001,2023_Feb_13_1042,SpeechDraft1Carolyn_lessNoise,2021.2.3,59.977618751733196,
coup.wav,coup.mpg,coup,1,AV,Pink_Noise_1_1.wav,Pink_Noise_1_2.wav,,,,,,0,68,68,84,,,,,,,,,,,,,,,309.62244753795676,None,311.1056377199711,None,312.48894976096926,None,"coo
",312.48894976096926,None,return,0.6849964869907126,312.5723743039998,None,,,,,,,15,001,2023_Feb_13_1042,SpeechDraft1Carolyn_lessNoise,2021.2.3,59.977618751733196,
brash.wav,brash.mpg,brash,4,A,Pink_Noise_4_1.wav,Pink_Noise_4_2.wav,,,,,,0,69,69,5,,,,,,,,,,,,,,,313.2889572089771,None,314.77231813495746,None,316.1557051179698,None,brash,316.1557051179698,None,return,2.3224181220284663,316.23906936199637,None,,,,,,,15,001,2023_Feb_13_1042,SpeechDraft1Carolyn_lessNoise,2021.2.3,59.977618751733196,
budge.wav,budge.mpg,budge,5,A,Pink_Noise_5_1.wav,Pink_Noise_5_2.wav,,,,,,0,70,70,49,,,,,,,,,,,,,,,318.58913999196375,None,320.07253794098506,None,321.45578941196436,None,fudge,321.45578941196436,None,return,0.9984348330181092,321.53896723198704,None,,,,,,,15,001,2023_Feb_13_1042,SpeechDraft1Carolyn_lessNoise,2021.2.3,59.977618751733196,
snake.wav,snake.mpg,snake,1,AV,Pink_Noise_1_1.wav,Pink_Noise_1_2.wav,,,,,,0,71,71,99,,,,,,,,,,,,,,,322.55569823400583,None,324.05547413695604,None,325.4224145520129,None,snake,325.4224145520129,None,return,0.8476541480049491,325.5057621409651,None,,,,,,,15,001,2023_Feb_13_1042,SpeechDraft1Carolyn_lessNoise,2021.2.3,59.977618751733196,
cease.wav,cease.mpg,cease,3,A,Pink_Noise_3_1.wav,Pink_Noise_3_2.wav,,,,,,0,72,72,38,,,,,,,,,,,,,,,326.37244026595727,None,327.8558443149668,None,329.23907769896323,None,cease,329.23907769896323,None,return,2.0150953140109777,329.32236258499324,None,,,,,,,15,001,2023_Feb_13_1042,SpeechDraft1Carolyn_lessNoise,2021.2.3,59.977618751733196,
dim.wav,dim.mpg,dim,6,A,Pink_Noise_6_1.wav,Pink_Noise_6_2.wav,,,,,,0,73,73,58,,,,,,,,,,,,,,,331.35569751501316,None,332.85549012897536,None,334.23905269696843,None,gift,334.23905269696843,None,return,1.2388229409698397,334.3226148720132,None,,,,,,,15,001,2023_Feb_13_1042,SpeechDraft1Carolyn_lessNoise,2021.2.3,59.977618751733196,
bleed.wav,bleed.mpg,bleed,6,A,Pink_Noise_6_1.wav,Pink_Noise_6_2.wav,,,,,,0,74,74,37,,,,,,,,,,,,,,,335.5890096629737,None,337.0888043100131,None,338.472444635001,None,"elite
",338.472444635001,None,return,1.1335081940051168,338.555851024983,None,,,,,,,15,001,2023_Feb_13_1042,SpeechDraft1Carolyn_lessNoise,2021.2.3,59.977618751733196,
please.wav,please.mpg,please,1,AV,Pink_Noise_1_1.wav,Pink_Noise_1_2.wav,,,,,,0,75,75,70,,,,,,,,,,,,,,,339.7223742729984,None,341.20695288898423,None,342.58902687596856,None,please,342.58902687596856,None,return,0.9929001400014386,342.67243762500584,None,,,,,,,15,001,2023_Feb_13_1042,SpeechDraft1Carolyn_lessNoise,2021.2.3,59.977618751733196,
led.wav,led.mpg,led,2,A,Pink_Noise_2_1.wav,Pink_Noise_2_2.wav,,,,,,0,76,76,43,,,,,,,,,,,,,,,343.6891586999991,None,345.1725545669906,None,346.55572706100065,None,bled,346.55572706100065,None,return,0.7620587690034881,346.6392980189994,None,,,,,,,15,001,2023_Feb_13_1042,SpeechDraft1Carolyn_lessNoise,2021.2.3,59.977618751733196,
burn.wav,burn.mpg,burn,3,AV,Pink_Noise_3_1.wav,Pink_Noise_3_2.wav,,,,,,0,77,77,79,,,,,,,,,,,,,,,347.422744815005,None,348.92233360698447,None,350.28902205097256,None,"bur
",350.28902205097256,None,return,6.284838018997107,350.3725154809654,None,,,,,,,15,001,2023_Feb_13_1042,SpeechDraft1Carolyn_lessNoise,2021.2.3,59.977618751733196,
drum.wav,drum.mpg,drum,3,A,Pink_Noise_3_1.wav,Pink_Noise_3_2.wav,,,,,,0,78,78,25,,,,,,,,,,,,,,,356.6891229689936,None,358.1889166510082,None,359.57239246100653,None,"drum
",359.57239246100653,None,return,2.2015286800451577,359.6558370490093,None,,,,,,,15,001,2023_Feb_13_1042,SpeechDraft1Carolyn_lessNoise,2021.2.3,59.977618751733196,
cycle.wav,cycle.mpg,cycle,2,A,Pink_Noise_2_1.wav,Pink_Noise_2_2.wav,,,,,,0,79,79,57,,,,,,,,,,,,,,,361.8890606639907,None,363.3891510500107,None,364.7724306889577,None,"cycle
",364.7724306889577,None,return,1.1536021019564942,364.85577517095953,None,,,,,,,15,001,2023_Feb_13_1042,SpeechDraft1Carolyn_lessNoise,2021.2.3,59.977618751733196,
crane.wav,crane.mpg,crane,1,AV,Pink_Noise_1_1.wav,Pink_Noise_1_2.wav,,,,,,0,80,80,101,,,,,,,,,,,,,,,366.0390699969721,None,367.52345659100683,None,368.90572129096836,None,crane,368.90572129096836,None,return,1.0042559109861031,368.989084773988,None,,,,,,,15,001,2023_Feb_13_1042,SpeechDraft1Carolyn_lessNoise,2021.2.3,59.977618751733196,
cope.wav,cope.mpg,cope,4,AV,Pink_Noise_4_1.wav,Pink_Noise_4_2.wav,,,,,,0,81,81,107,,,,,,,,,,,,,,,370.02241450495785,None,371.50580543500837,None,372.8891288159648,None,hope,372.8891288159648,None,return,1.0208781599649228,372.9724719839869,None,,,,,,,15,001,2023_Feb_13_1042,SpeechDraft1Carolyn_lessNoise,2021.2.3,59.977618751733196,
bold.wav,bold.mpg,bold,6,A,Pink_Noise_6_1.wav,Pink_Noise_6_2.wav,,,,,,0,82,82,56,,,,,,,,,,,,,,,374.0225079630036,None,375.5074835809646,None,376.889152366959,None,vein,376.889152366959,None,return,0.7648885999806225,376.972573889012,None,,,,,,,15,001,2023_Feb_13_1042,SpeechDraft1Carolyn_lessNoise,2021.2.3,59.977618751733196,
chow.wav,chow.mpg,chow,1,A,Pink_Noise_1_1.wav,Pink_Noise_1_2.wav,,,,,,0,83,83,32,,,,,,,,,,,,,,,377.75573734898353,None,379.25566995400004,None,380.639101801964,None,chile,380.639101801964,None,return,1.0549955620081164,380.72246136597823,None,,,,,,,15,001,2023_Feb_13_1042,SpeechDraft1Carolyn_lessNoise,2021.2.3,59.977618751733196,
bottle.wav,bottle.mpg,bottle,1,AV,Pink_Noise_1_1.wav,Pink_Noise_1_2.wav,,,,,,0,84,84,94,,,,,,,,,,,,,,,381.8058090619743,None,383.3056306389626,None,384.6725195219624,None,bottle,384.6725195219624,None,return,1.4215481599676423,384.7558434329694,None,,,,,,,15,001,2023_Feb_13_1042,SpeechDraft1Carolyn_lessNoise,2021.2.3,59.977618751733196,
flip.wav,flip.mpg,flip,1,A,Pink_Noise_1_1.wav,Pink_Noise_1_2.wav,,,,,,0,85,85,28,,,,,,,,,,,,,,,386.20575525501044,None,387.6893932009698,None,389.0725219689775,None,"clip
",389.0725219689775,None,return,1.4855860939715058,389.1557940839557,None,,,,,,,15,001,2023_Feb_13_1042,SpeechDraft1Carolyn_lessNoise,2021.2.3,59.977618751733196,
gown.wav,gown.mpg,gown,5,A,Pink_Noise_5_1.wav,Pink_Noise_5_2.wav,,,,,,0,86,86,17,,,,,,,,,,,,,,,390.6725427499623,None,392.15614897495834,None,393.5390963879763,None,all,393.5390963879763,None,return,3.1388063419726677,393.62264152098214,None,,,,,,,15,001,2023_Feb_13_1042,SpeechDraft1Carolyn_lessNoise,2021.2.3,59.977618751733196,
fluff.wav,fluff.mpg,fluff,5,A,Pink_Noise_5_1.wav,Pink_Noise_5_2.wav,,,,,,0,87,87,3,,,,,,,,,,,,,,,396.7892046609777,None,398.28890413598856,None,399.6725468299701,None,"bled
",399.6725468299701,None,return,1.7015423900447786,399.7558171369601,None,,,,,,,15,001,2023_Feb_13_1042,SpeechDraft1Carolyn_lessNoise,2021.2.3,59.977618751733196,
fold.wav,fold.mpg,fold,1,AV,Pink_Noise_1_1.wav,Pink_Noise_1_2.wav,,,,,,0,88,88,111,,,,,,,,,,,,,,,401.48915706196567,None,402.9739296939806,None,404.35598321497673,None,fold,404.35598321497673,None,return,0.682320891006384,404.4391344169853,None,,,,,,,15,001,2023_Feb_13_1042,SpeechDraft1Carolyn_lessNoise,2021.2.3,59.977618751733196,
fuss.wav,fuss.mpg,fuss,4,A,Pink_Noise_4_1.wav,Pink_Noise_4_2.wav,,,,,,0,89,89,2,,,,,,,,,,,,,,,405.13920278300066,None,406.63908262597397,None,408.02271252695937,None,bus,408.02271252695937,None,return,0.40756715199677274,408.1058914900059,None,,,,,,,15,001,2023_Feb_13_1042,SpeechDraft1Carolyn_lessNoise,2021.2.3,59.977618751733196,
cane.wav,cane.mpg,cane,5,AV,Pink_Noise_5_1.wav,Pink_Noise_5_2.wav,,,,,,0,90,90,89,,,,,,,,,,,,,,,408.539140482957,None,410.0391926149605,None,411.42244071199093,None,plane,411.42244071199093,None,return,1.1835364939761348,411.5058117689914,None,,,,,,,15,001,2023_Feb_13_1042,SpeechDraft1Carolyn_lessNoise,2021.2.3,59.977618751733196,
shrimp.wav,shrimp.mpg,shrimp,6,A,Pink_Noise_6_1.wav,Pink_Noise_6_2.wav,,,,,,0,91,91,47,,,,,,,,,,,,,,,412.7057572719641,None,414.2056614260073,None,415.58917438599747,None,cliff,415.58917438599747,None,return,0.6328094460186549,415.6726431240095,None,,,,,,,15,001,2023_Feb_13_1042,SpeechDraft1Carolyn_lessNoise,2021.2.3,59.977618751733196,
chore.wav,chore.mpg,chore,2,A,Pink_Noise_2_1.wav,Pink_Noise_2_2.wav,,,,,,0,92,92,24,,,,,,,,,,,,,,,416.32270088099176,None,417.80594050500076,None,419.18925373698585,None,chore,419.18925373698585,None,return,0.6729026190005243,419.2726247999817,None,,,,,,,15,001,2023_Feb_13_1042,SpeechDraft1Carolyn_lessNoise,2021.2.3,59.977618751733196,
brain.wav,brain.mpg,brain,6,AV,Pink_Noise_6_1.wav,Pink_Noise_6_2.wav,,,,,,0,93,93,117,,,,,,,,,,,,,,,419.9725444709766,None,421.45781655597966,None,422.8391619389877,None,bare,422.8391619389877,None,return,1.0469104449730366,422.9225110639818,None,,,,,,,15,001,2023_Feb_13_1042,SpeechDraft1Carolyn_lessNoise,2021.2.3,59.977618751733196,
steam.wav,steam.mpg,steam,2,AV,Pink_Noise_2_1.wav,Pink_Noise_2_2.wav,,,,,,0,94,94,76,,,,,,,,,,,,,,,423.9892262649955,None,425.48897670098813,None,426.87249662401155,None,steam,426.87249662401155,None,return,0.8295527619775385,426.9558510099887,None,,,,,,,15,001,2023_Feb_13_1042,SpeechDraft1Carolyn_lessNoise,2021.2.3,59.977618751733196,
bee.wav,bee.mpg,bee,2,AV,Pink_Noise_2_1.wav,Pink_Noise_2_2.wav,,,,,,0,95,95,115,,,,,,,,,,,,,,,427.8059351829579,None,429.29125114600174,None,430.67253675695974,None,bee,430.67253675695974,None,return,0.5975279169506393,430.7558364699944,None,,,,,,,15,001,2023_Feb_13_1042,SpeechDraft1Carolyn_lessNoise,2021.2.3,59.977618751733196,
dense.wav,dense.mpg,dense,4,A,Pink_Noise_4_1.wav,Pink_Noise_4_2.wav,,,,,,0,96,96,20,,,,,,,,,,,,,,,431.37271822895855,None,432.85719400597736,None,434.2393533239956,None,dance,434.2393533239956,None,return,0.8230590400053188,434.3224519059877,None,,,,,,,15,001,2023_Feb_13_1042,SpeechDraft1Carolyn_lessNoise,2021.2.3,59.977618751733196,
eel.wav,eel.mpg,eel,3,A,Pink_Noise_3_1.wav,Pink_Noise_3_2.wav,,,,,,0,97,97,52,,,,,,,,,,,,,,,435.17257608799264,None,436.6565876149689,None,438.0391263299971,None,"feel
",438.0391263299971,None,return,0.9027517099748366,438.12261906301137,None,,,,,,,15,001,2023_Feb_13_1042,SpeechDraft1Carolyn_lessNoise,2021.2.3,59.977618751733196,
claim.wav,claim.mpg,claim,2,A,Pink_Noise_2_1.wav,Pink_Noise_2_2.wav,,,,,,0,98,98,4,,,,,,,,,,,,,,,439.0558261589613,None,440.55565996596124,None,441.92251908796607,None,claim,441.92251908796607,None,return,1.1555673070251942,442.00585642899387,None,,,,,,,15,001,2023_Feb_13_1042,SpeechDraft1Carolyn_lessNoise,2021.2.3,59.977618751733196,
leapt.wav,leapt.mpg,leapt,2,AV,Pink_Noise_2_1.wav,Pink_Noise_2_2.wav,,,,,,0,99,99,109,,,,,,,,,,,,,,,443.1892566549941,None,444.6891332939849,None,446.0725638960139,None,leapt,446.0725638960139,None,return,0.893500973994378,446.15589609596645,None,,,,,,,15,001,2023_Feb_13_1042,SpeechDraft1Carolyn_lessNoise,2021.2.3,59.977618751733196,
tank.wav,tank.mpg,tank,3,A,Pink_Noise_3_1.wav,Pink_Noise_3_2.wav,,,,,,0,100,100,19,,,,,,,,,,,,,,,447.0726566640078,None,448.55715801398037,None,449.9392262150068,None,"tank
",449.9392262150068,None,return,0.8508664629771374,450.0224858429865,None,,,,,,,15,001,2023_Feb_13_1042,SpeechDraft1Carolyn_lessNoise,2021.2.3,59.977618751733196,
clutch.wav,clutch.mpg,clutch,2,AV,Pink_Noise_2_1.wav,Pink_Noise_2_2.wav,,,,,,0,101,101,69,,,,,,,,,,,,,,,450.9225204559625,None,452.4223909319844,None,453.78925137699116,None,clutch,453.78925137699116,None,return,1.1447778639849275,453.87256276997505,None,,,,,,,15,001,2023_Feb_13_1042,SpeechDraft1Carolyn_lessNoise,2021.2.3,59.977618751733196,
grief.wav,grief.mpg,grief,3,AV,Pink_Noise_3_1.wav,Pink_Noise_3_2.wav,,,,,,0,102,102,83,,,,,,,,,,,,,,,455.03925897198496,None,456.53896614396945,None,457.92269471701,None,grieve,457.92269471701,None,return,1.0434827959979884,458.0058548899833,None,,,,,,,15,001,2023_Feb_13_1042,SpeechDraft1Carolyn_lessNoise,2021.2.3,59.977618751733196,
fried.wav,fried.mpg,fried,5,AV,Pink_Noise_5_1.wav,Pink_Noise_5_2.wav,,,,,,0,103,103,87,,,,,,,,,,,,,,,459.07259173400234,None,460.57241915899795,None,461.93919044197537,None,fry,461.93919044197537,None,return,0.7144686629762873,462.0229082389851,None,,,,,,,15,001,2023_Feb_13_1042,SpeechDraft1Carolyn_lessNoise,2021.2.3,59.977618751733196,
cuff.wav,cuff.mpg,cuff,5,A,Pink_Noise_5_1.wav,Pink_Noise_5_2.wav,,,,,,0,104,104,12,,,,,,,,,,,,,,,462.756066381,None,464.2556614629575,None,465.6392891219584,None,"spun
",465.6392891219584,None,return,3.102704985998571,465.7226542129647,None,,,,,,,15,001,2023_Feb_13_1042,SpeechDraft1Carolyn_lessNoise,2021.2.3,59.977618751733196,
bath.wav,bath.mpg,bath,3,A,Pink_Noise_3_1.wav,Pink_Noise_3_2.wav,,,,,,0,105,105,27,,,,,,,,,,,,,,,468.85589191300096,None,470.3399134189822,None,471.72264488897054,None,bad,471.72264488897054,None,return,0.5635653859935701,471.8059192050132,None,,,,,,,15,001,2023_Feb_13_1042,SpeechDraft1Carolyn_lessNoise,2021.2.3,59.977618751733196,
dad.wav,dad.mpg,dad,5,AV,Pink_Noise_5_1.wav,Pink_Noise_5_2.wav,,,,,,0,106,106,106,,,,,,,,,,,,,,,472.3892718469724,None,473.8891654179897,None,475.27248413598863,None,"sad
",475.27248413598863,None,return,0.6532673450419679,475.3560517759761,None,,,,,,,15,001,2023_Feb_13_1042,SpeechDraft1Carolyn_lessNoise,2021.2.3,59.977618751733196,
bunch.wav,bunch.mpg,bunch,6,AV,Pink_Noise_6_1.wav,Pink_Noise_6_2.wav,,,,,,0,107,107,114,,,,,,,,,,,,,,,476.03918371198233,None,477.52462342596846,None,478.9059226309764,None,"burn
",478.9059226309764,None,return,1.6840285719954409,478.98932751698885,None,,,,,,,15,001,2023_Feb_13_1042,SpeechDraft1Carolyn_lessNoise,2021.2.3,59.977618751733196,
curve.wav,curve.mpg,curve,4,AV,Pink_Noise_4_1.wav,Pink_Noise_4_2.wav,,,,,,0,108,108,91,,,,,,,,,,,,,,,480.705975193996,None,482.19125814700965,None,483.57259742199676,None,heard,483.57259742199676,None,return,1.0813140249811113,483.65605806099484,None,,,,,,,15,001,2023_Feb_13_1042,SpeechDraft1Carolyn_lessNoise,2021.2.3,59.977618751733196,
booth.wav,booth.mpg,booth,5,AV,Pink_Noise_5_1.wav,Pink_Noise_5_2.wav,,,,,,0,109,109,80,,,,,,,,,,,,,,,484.75617597898236,None,486.25582487200154,None,487.6392343029729,None,booth,487.6392343029729,None,return,1.0547587199835107,487.7226742519997,None,,,,,,,15,001,2023_Feb_13_1042,SpeechDraft1Carolyn_lessNoise,2021.2.3,59.977618751733196,
guess.wav,guess.mpg,guess,1,A,Pink_Noise_1_1.wav,Pink_Noise_1_2.wav,,,,,,0,110,110,39,,,,,,,,,,,,,,,488.8061011409736,None,490.29026391298976,None,491.67258099198807,None,guess,491.67258099198807,None,return,1.0373584320186637,491.75600264099194,None,,,,,,,15,001,2023_Feb_13_1042,SpeechDraft1Carolyn_lessNoise,2021.2.3,59.977618751733196,
gain.wav,gain.mpg,gain,6,AV,Pink_Noise_6_1.wav,Pink_Noise_6_2.wav,,,,,,0,111,111,112,,,,,,,,,,,,,,,492.8225639699958,None,494.30783894995693,None,495.6892344490043,None,name,495.6892344490043,None,return,0.9968170130159706,495.77261184097733,None,,,,,,,15,001,2023_Feb_13_1042,SpeechDraft1Carolyn_lessNoise,2021.2.3,59.977618751733196,
clad.wav,clad.mpg,clad,5,AV,Pink_Noise_5_1.wav,Pink_Noise_5_2.wav,,,,,,0,112,112,105,,,,,,,,,,,,,,,496.7893551319721,None,498.2747204049956,None,499.65596061298857,None,clad,499.65596061298857,None,return,3.006132174981758,499.7393355839886,None,,,,,,,15,001,2023_Feb_13_1042,SpeechDraft1Carolyn_lessNoise,2021.2.3,59.977618751733196,
broom.wav,broom.mpg,broom,4,AV,Pink_Noise_4_1.wav,Pink_Noise_4_2.wav,,,,,,0,113,113,96,,,,,,,,,,,,,,,502.7726484389859,None,504.2724400899606,None,505.65594094101107,None,broom,505.65594094101107,None,return,0.47782748396275565,505.73950960999355,None,,,,,,,15,001,2023_Feb_13_1042,SpeechDraft1Carolyn_lessNoise,2021.2.3,59.977618751733196,
crew.wav,crew.mpg,crew,2,A,Pink_Noise_2_1.wav,Pink_Noise_2_2.wav,,,,,,0,114,114,15,,,,,,,,,,,,,,,506.23927036696114,None,507.7230066389893,None,509.1059270899859,None,"crew
",509.1059270899859,None,return,0.6519122670288198,509.1894458439783,None,,,,,,,15,001,2023_Feb_13_1042,SpeechDraft1Carolyn_lessNoise,2021.2.3,59.977618751733196,
chunk.wav,chunk.mpg,chunk,1,A,Pink_Noise_1_1.wav,Pink_Noise_1_2.wav,,,,,,0,115,115,7,,,,,,,,,,,,,,,509.8727216999978,None,511.3724835459725,None,512.7392864039866,None,hunk,512.7392864039866,None,return,0.5067674810416065,512.8227126149577,None,,,,,,,15,001,2023_Feb_13_1042,SpeechDraft1Carolyn_lessNoise,2021.2.3,59.977618751733196,
fresh.wav,fresh.mpg,fresh,4,AV,Pink_Noise_4_1.wav,Pink_Noise_4_2.wav,,,,,,0,116,116,92,,,,,,,,,,,,,,,513.3561648099567,None,514.8557665669941,None,516.2393125650124,None,fresh,516.2393125650124,None,return,0.8388199579785578,516.322598084982,None,,,,,,,15,001,2023_Feb_13_1042,SpeechDraft1Carolyn_lessNoise,2021.2.3,59.977618751733196,
fifth.wav,fifth.mpg,fifth,3,AV,Pink_Noise_3_1.wav,Pink_Noise_3_2.wav,,,,,,0,117,117,73,,,,,,,,,,,,,,,517.1893645399832,None,518.689177082968,None,520.0725752969738,None,fifth,520.0725752969738,None,return,0.7093667169683613,520.1560105679673,None,,,,,,,15,001,2023_Feb_13_1042,SpeechDraft1Carolyn_lessNoise,2021.2.3,59.977618751733196,
bun.wav,bun.mpg,bun,1,A,Pink_Noise_1_1.wav,Pink_Noise_1_2.wav,,,,,,0,118,118,13,,,,,,,,,,,,,,,520.8893575309776,None,522.3890929549816,None,523.7559843129711,None,"bun
",523.7559843129711,None,return,1.3860699699725956,523.8392862229957,None,,,,,,,15,001,2023_Feb_13_1042,SpeechDraft1Carolyn_lessNoise,2021.2.3,59.977618751733196,
gang.wav,gang.mpg,gang,3,A,Pink_Noise_3_1.wav,Pink_Noise_3_2.wav,,,,,,0,119,119,36,,,,,,,,,,,,,,,525.2560234559933,None,526.7557871330064,None,528.1227837709594,None,gang,528.1227837709594,None,return,0.6273041289532557,528.206067821011,None,,,,,,,15,001,2023_Feb_13_1042,SpeechDraft1Carolyn_lessNoise,2021.2.3,59.977618751733196,
