{"meta_data":{"additional_headers":{},"game_name":"Recollect","version":"2.53.01","user_name":"160","organization":"braingamecenter","study":"mpl2_2022_11","session_number":0,"device_id":"74342D95-EE82-45E3-8ADF-48FB3203C5DD"},"data":[{"trial":0,"action":1,"button_pressed":9,"time_out":false,"dwell_time":81.4208984375,"response_time":1706663294123.59},{"trial":0,"action":1,"button_pressed":1,"time_out":false,"dwell_time":47.713134765625,"response_time":1706663294740.35},{"trial":0,"action":9,"button_pressed":-1,"time_out":false,"dwell_time":90.13818359375,"response_time":1706663295449.16},{"trial":1,"action":1,"button_pressed":3,"time_out":false,"dwell_time":64.948974609375,"response_time":1706663305219.87},{"trial":1,"action":1,"button_pressed":9,"time_out":false,"dwell_time":48.31201171875,"response_time":1706663305570.09},{"trial":1,"action":1,"button_pressed":7,"time_out":false,"dwell_time":30.12109375,"response_time":1706663306135.83},{"trial":1,"action":9,"button_pressed":-1,"time_out":false,"dwell_time":65.182861328125,"response_time":1706663306869.56},{"trial":2,"action":1,"button_pressed":7,"time_out":false,"dwell_time":47.93017578125,"response_time":1706663318882.57},{"trial":2,"action":1,"button_pressed":9,"time_out":false,"dwell_time":31.18798828125,"response_time":1706663319331.73},{"trial":2,"action":1,"button_pressed":0,"time_out":false,"dwell_time":47.6298828125,"response_time":1706663319932.1},{"trial":2,"action":1,"button_pressed":4,"time_out":false,"dwell_time":47.60791015625,"response_time":1706663320265.28},{"trial":2,"action":9,"button_pressed":-1,"time_out":false,"dwell_time":81.22802734375,"response_time":1706663320965.05},{"trial":3,"action":1,"button_pressed":2,"time_out":false,"dwell_time":63.445068359375,"response_time":1706663335675.8},{"trial":3,"action":1,"button_pressed":6,"time_out":false,"dwell_time":30.18798828125,"response_time":1706663336259.28},{"trial":3,"action":1,"button_pressed":7,"time_out":false,"dwell_time":47.421142578125,"response_time":1706663336825.65},{"trial":3,"action":1,"button_pressed":6,"time_out":false,"dwell_time":29.89013671875,"response_time":1706663340441.18},{"trial":3,"action":0,"button_pressed":-1,"time_out":false,"dwell_time":47.238037109375,"response_time":1706663343807.01},{"trial":3,"action":1,"button_pressed":2,"time_out":false,"dwell_time":63.7490234375,"response_time":1706663346055.49},{"trial":3,"action":1,"button_pressed":7,"time_out":false,"dwell_time":62.968017578125,"response_time":1706663346905.22},{"trial":3,"action":1,"button_pressed":6,"time_out":false,"dwell_time":31.625,"response_time":1706663347339.7},{"trial":3,"action":1,"button_pressed":0,"time_out":false,"dwell_time":47.546875,"response_time":1706663347972},{"trial":3,"action":1,"button_pressed":8,"time_out":false,"dwell_time":30.763916015625,"response_time":1706663348405.24},{"trial":3,"action":9,"button_pressed":-1,"time_out":false,"dwell_time":64.429931640625,"response_time":1706663349788.82},{"trial":4,"action":1,"button_pressed":11,"time_out":false,"dwell_time":81.31591796875,"response_time":1706663365400.11},{"trial":4,"action":1,"button_pressed":1,"time_out":false,"dwell_time":80.4609375,"response_time":1706663366116.35},{"trial":4,"action":1,"button_pressed":9,"time_out":false,"dwell_time":63.02587890625,"response_time":1706663366698.72},{"trial":4,"action":1,"button_pressed":7,"time_out":false,"dwell_time":64.56103515625,"response_time":1706663367249.3},{"trial":4,"action":1,"button_pressed":4,"time_out":false,"dwell_time":30.95703125,"response_time":1706663368215.38},{"trial":4,"action":9,"button_pressed":-1,"time_out":false,"dwell_time":113.775146484375,"response_time":1706663369131.85},{"trial":5,"action":1,"button_pressed":9,"time_out":false,"dwell_time":63.9130859375,"response_time":1706663386092.68},{"trial":5,"action":1,"button_pressed":1,"time_out":false,"dwell_time":47.3759765625,"response_time":1706663386576.78},{"trial":5,"action":1,"button_pressed":2,"time_out":false,"dwell_time":63.727783203125,"response_time":1706663387175.97},{"trial":5,"action":1,"button_pressed":8,"time_out":false,"dwell_time":30.60498046875,"response_time":1706663387559.75},{"trial":5,"action":1,"button_pressed":6,"time_out":false,"dwell_time":29.989990234375,"response_time":1706663388275.46},{"trial":5,"action":1,"button_pressed":11,"time_out":false,"dwell_time":30.35107421875,"response_time":1706663388592.09},{"trial":5,"action":9,"button_pressed":-1,"time_out":false,"dwell_time":97.72998046875,"response_time":1706663389591.72},{"trial":6,"action":1,"button_pressed":2,"time_out":false,"dwell_time":48.64599609375,"response_time":1706663409136.26},{"trial":6,"action":1,"button_pressed":6,"time_out":false,"dwell_time":47.551025390625,"response_time":1706663409719.18},{"trial":6,"action":1,"button_pressed":9,"time_out":false,"dwell_time":64.462890625,"response_time":1706663410051.89},{"trial":6,"action":1,"button_pressed":0,"time_out":false,"dwell_time":63.81396484375,"response_time":1706663410517.72},{"trial":6,"action":1,"button_pressed":3,"time_out":false,"dwell_time":47.362060546875,"response_time":1706663410985.38},{"trial":6,"action":1,"button_pressed":10,"time_out":false,"dwell_time":47.675048828125,"response_time":1706663411534.58},{"trial":6,"action":1,"button_pressed":7,"time_out":false,"dwell_time":48.400146484375,"response_time":1706663412101.72},{"trial":6,"action":9,"button_pressed":-1,"time_out":false,"dwell_time":115.3359375,"response_time":1706663413368.01},{"trial":7,"action":1,"button_pressed":2,"time_out":false,"dwell_time":81.6259765625,"response_time":1706663435860.32},{"trial":7,"action":1,"button_pressed":4,"time_out":false,"dwell_time":47.718994140625,"response_time":1706663436226.38},{"trial":7,"action":1,"button_pressed":6,"time_out":false,"dwell_time":81.1640625,"response_time":1706663436709.89},{"trial":7,"action":1,"button_pressed":11,"time_out":false,"dwell_time":46.677001953125,"response_time":1706663437009.47},{"trial":7,"action":1,"button_pressed":5,"time_out":false,"dwell_time":47.655029296875,"response_time":1706663437676.62},{"trial":7,"action":1,"button_pressed":0,"time_out":false,"dwell_time":63.85986328125,"response_time":1706663438209.24},{"trial":7,"action":1,"button_pressed":3,"time_out":false,"dwell_time":47.635986328125,"response_time":1706663438592.99},{"trial":7,"action":0,"button_pressed":-1,"time_out":false,"dwell_time":48.81689453125,"response_time":1706663440425.62},{"trial":7,"action":1,"button_pressed":2,"time_out":false,"dwell_time":79.64990234375,"response_time":1706663442640.41},{"trial":7,"action":1,"button_pressed":4,"time_out":false,"dwell_time":81.2470703125,"response_time":1706663443607.53},{"trial":7,"action":0,"button_pressed":-1,"time_out":false,"dwell_time":64.260986328125,"response_time":1706663446122.87},{"trial":7,"action":1,"button_pressed":2,"time_out":false,"dwell_time":30,"response_time":1706663446739.5},{"trial":7,"action":1,"button_pressed":11,"time_out":false,"dwell_time":64.556884765625,"response_time":1706663447489.61},{"trial":7,"action":1,"button_pressed":4,"time_out":false,"dwell_time":63.6611328125,"response_time":1706663448539.15},{"trial":7,"action":0,"button_pressed":-1,"time_out":false,"dwell_time":47.200927734375,"response_time":1706663449822.14},{"trial":7,"action":1,"button_pressed":2,"time_out":false,"dwell_time":46.700927734375,"response_time":1706663450421.64},{"trial":7,"action":1,"button_pressed":11,"time_out":false,"dwell_time":63.654052734375,"response_time":1706663451005.05},{"trial":7,"action":1,"button_pressed":0,"time_out":false,"dwell_time":30.218994140625,"response_time":1706663451687.97},{"trial":7,"action":1,"button_pressed":10,"time_out":false,"dwell_time":46.7060546875,"response_time":1706663452371},{"trial":7,"action":1,"button_pressed":4,"time_out":false,"dwell_time":48.246826171875,"response_time":1706663453971.25},{"trial":7,"action":0,"button_pressed":-1,"time_out":false,"dwell_time":30.561767578125,"response_time":1706663459785.17},{"trial":7,"action":1,"button_pressed":2,"time_out":false,"dwell_time":63.678955078125,"response_time":1706663460701.88},{"trial":7,"action":1,"button_pressed":6,"time_out":false,"dwell_time":63.6337890625,"response_time":1706663461334.32},{"trial":7,"action":1,"button_pressed":0,"time_out":false,"dwell_time":96.4990234375,"response_time":1706663467698.96},{"trial":7,"action":1,"button_pressed":10,"time_out":false,"dwell_time":62.968994140625,"response_time":1706663468398.65},{"trial":7,"action":1,"button_pressed":4,"time_out":false,"dwell_time":113.7412109375,"response_time":1706663472348},{"trial":7,"action":1,"button_pressed":5,"time_out":false,"dwell_time":46.910888671875,"response_time":1706663473847.33},{"trial":7,"action":1,"button_pressed":3,"time_out":false,"dwell_time":62.9541015625,"response_time":1706663474696.56},{"trial":7,"action":1,"button_pressed":11,"time_out":false,"dwell_time":64.476806640625,"response_time":1706663475396.94},{"trial":7,"action":9,"button_pressed":-1,"time_out":false,"dwell_time":16.530029296875,"response_time":1706663481178.12},{"trial":8,"action":1,"button_pressed":1,"time_out":false,"dwell_time":47.815185546875,"response_time":1706663503787.67},{"trial":8,"action":1,"button_pressed":10,"time_out":false,"dwell_time":64.5361328125,"response_time":1706663504321.07},{"trial":8,"action":1,"button_pressed":0,"time_out":false,"dwell_time":63.635009765625,"response_time":1706663505553.79},{"trial":8,"action":1,"button_pressed":3,"time_out":false,"dwell_time":46.758056640625,"response_time":1706663506086.79},{"trial":8,"action":1,"button_pressed":2,"time_out":false,"dwell_time":97.155029296875,"response_time":1706663506952.74},{"trial":8,"action":1,"button_pressed":7,"time_out":false,"dwell_time":62.844970703125,"response_time":1706663507719.2},{"trial":8,"action":1,"button_pressed":6,"time_out":false,"dwell_time":48.219970703125,"response_time":1706663509602.19},{"trial":8,"action":1,"button_pressed":4,"time_out":false,"dwell_time":63.260986328125,"response_time":1706663510118.51},{"trial":8,"action":1,"button_pressed":6,"time_out":false,"dwell_time":80.302978515625,"response_time":1706663513717.98},{"trial":8,"action":0,"button_pressed":-1,"time_out":false,"dwell_time":30.4501953125,"response_time":1706663514517.51},{"trial":8,"action":1,"button_pressed":1,"time_out":false,"dwell_time":63.10400390625,"response_time":1706663517266.02},{"trial":8,"action":1,"button_pressed":10,"time_out":false,"dwell_time":64.277099609375,"response_time":1706663523681.12},{"trial":8,"action":1,"button_pressed":3,"time_out":false,"dwell_time":63.085205078125,"response_time":1706663525230.1},{"trial":8,"action":1,"button_pressed":2,"time_out":false,"dwell_time":63.47314453125,"response_time":1706663526330.06},{"trial":8,"action":1,"button_pressed":7,"time_out":false,"dwell_time":96.43115234375,"response_time":1706663527329.38},{"trial":8,"action":1,"button_pressed":11,"time_out":false,"dwell_time":81.507080078125,"response_time":1706663527730.07},{"trial":8,"action":1,"button_pressed":9,"time_out":false,"dwell_time":64.27099609375,"response_time":1706663530795.55},{"trial":8,"action":1,"button_pressed":4,"time_out":false,"dwell_time":63.689208984375,"response_time":1706663531461.27},{"trial":8,"action":9,"button_pressed":-1,"time_out":false,"dwell_time":16.4580078125,"response_time":1706663534427.24},{"trial":9,"action":1,"button_pressed":3,"time_out":false,"dwell_time":63.244140625,"response_time":1706663552354.56},{"trial":9,"action":1,"button_pressed":7,"time_out":false,"dwell_time":47.59814453125,"response_time":1706663552788.92},{"trial":9,"action":1,"button_pressed":4,"time_out":false,"dwell_time":97.511962890625,"response_time":1706663553404.3},{"trial":9,"action":1,"button_pressed":10,"time_out":false,"dwell_time":80.51611328125,"response_time":1706663553738.27},{"trial":9,"action":1,"button_pressed":2,"time_out":false,"dwell_time":79.7001953125,"response_time":1706663554187.2},{"trial":9,"action":1,"button_pressed":9,"time_out":false,"dwell_time":63.65283203125,"response_time":1706663554736.98},{"trial":9,"action":9,"button_pressed":-1,"time_out":false,"dwell_time":48.7470703125,"response_time":1706663557020.81},{"trial":10,"action":1,"button_pressed":0,"time_out":false,"dwell_time":80.64208984375,"response_time":1706663578163.48},{"trial":10,"action":1,"button_pressed":10,"time_out":false,"dwell_time":63.5859375,"response_time":1706663578596.45},{"trial":10,"action":0,"button_pressed":-1,"time_out":false,"dwell_time":64.16796875,"response_time":1706663580262.94},{"trial":10,"action":1,"button_pressed":0,"time_out":false,"dwell_time":80.3349609375,"response_time":1706663581045.09},{"trial":10,"action":1,"button_pressed":5,"time_out":false,"dwell_time":80.570068359375,"response_time":1706663581578.12},{"trial":10,"action":1,"button_pressed":6,"time_out":false,"dwell_time":80.1650390625,"response_time":1706663582444.59},{"trial":10,"action":1,"button_pressed":10,"time_out":false,"dwell_time":63.9599609375,"response_time":1706663582861.99},{"trial":10,"action":1,"button_pressed":2,"time_out":false,"dwell_time":80.407958984375,"response_time":1706663583427.57},{"trial":10,"action":1,"button_pressed":9,"time_out":false,"dwell_time":63.74609375,"response_time":1706663584078.12},{"trial":10,"action":1,"button_pressed":8,"time_out":false,"dwell_time":46.819091796875,"response_time":1706663585010.81},{"trial":10,"action":0,"button_pressed":-1,"time_out":false,"dwell_time":63.3759765625,"response_time":1706663591575.01},{"trial":10,"action":1,"button_pressed":0,"time_out":false,"dwell_time":113.61181640625,"response_time":1706663593158.35},{"trial":10,"action":1,"button_pressed":8,"time_out":false,"dwell_time":47.43701171875,"response_time":1706663593641.29},{"trial":10,"action":1,"button_pressed":2,"time_out":false,"dwell_time":98.037109375,"response_time":1706663595174.6},{"trial":10,"action":1,"button_pressed":6,"time_out":false,"dwell_time":80.89501953125,"response_time":1706663595757.63},{"trial":10,"action":0,"button_pressed":-1,"time_out":false,"dwell_time":64.14501953125,"response_time":1706663599339.16},{"trial":10,"action":1,"button_pressed":0,"time_out":false,"dwell_time":63.496826171875,"response_time":1706663600222.8},{"trial":10,"action":1,"button_pressed":8,"time_out":false,"dwell_time":81.205810546875,"response_time":1706663600756.12},{"trial":10,"action":1,"button_pressed":5,"time_out":false,"dwell_time":81.14404296875,"response_time":1706663602521.93},{"trial":10,"action":1,"button_pressed":6,"time_out":false,"dwell_time":46.676025390625,"response_time":1706663603488.18},{"trial":10,"action":1,"button_pressed":10,"time_out":false,"dwell_time":63.64306640625,"response_time":1706663603904.14},{"trial":10,"action":1,"button_pressed":2,"time_out":false,"dwell_time":63.31591796875,"response_time":1706663604420.81},{"trial":10,"action":1,"button_pressed":9,"time_out":false,"dwell_time":29.911865234375,"response_time":1706663605004.13},{"trial":10,"action":9,"button_pressed":-1,"time_out":false,"dwell_time":31.8818359375,"response_time":1706663605921.17},{"trial":11,"action":1,"button_pressed":10,"time_out":false,"dwell_time":63.890869140625,"response_time":1706663628529.59},{"trial":11,"action":1,"button_pressed":2,"time_out":false,"dwell_time":63.60205078125,"response_time":1706663629063.27},{"trial":11,"action":1,"button_pressed":1,"time_out":false,"dwell_time":47.755126953125,"response_time":1706663629663.5},{"trial":11,"action":1,"button_pressed":8,"time_out":false,"dwell_time":80.431884765625,"response_time":1706663630195.55},{"trial":11,"action":0,"button_pressed":-1,"time_out":false,"dwell_time":64.44580078125,"response_time":1706663633711.83},{"trial":11,"action":1,"button_pressed":10,"time_out":false,"dwell_time":46.56201171875,"response_time":1706663634211.3},{"trial":11,"action":1,"button_pressed":2,"time_out":false,"dwell_time":46.98291015625,"response_time":1706663635760.84},{"trial":11,"action":1,"button_pressed":1,"time_out":false,"dwell_time":47.753173828125,"response_time":1706663639576.07},{"trial":11,"action":1,"button_pressed":9,"time_out":false,"dwell_time":63.763916015625,"response_time":1706663640125.65},{"trial":11,"action":1,"button_pressed":8,"time_out":false,"dwell_time":47.536865234375,"response_time":1706663640959.87},{"trial":11,"action":1,"button_pressed":11,"time_out":false,"dwell_time":63.88916015625,"response_time":1706663642441.58},{"trial":11,"action":1,"button_pressed":6,"time_out":false,"dwell_time":63.619140625,"response_time":1706663645557.28},{"trial":11,"action":0,"button_pressed":-1,"time_out":false,"dwell_time":63.981201171875,"response_time":1706663649773.24},{"trial":11,"action":1,"button_pressed":10,"time_out":false,"dwell_time":63.197021484375,"response_time":1706663650872.64},{"trial":11,"action":1,"button_pressed":2,"time_out":false,"dwell_time":47.56103515625,"response_time":1706663652855.2},{"trial":11,"action":1,"button_pressed":1,"time_out":false,"dwell_time":30.905029296875,"response_time":1706663653522.38},{"trial":11,"action":1,"button_pressed":9,"time_out":false,"dwell_time":64.10302734375,"response_time":1706663655987.82},{"trial":11,"action":1,"button_pressed":8,"time_out":false,"dwell_time":47.4248046875,"response_time":1706663656571.4},{"trial":11,"action":9,"button_pressed":-1,"time_out":true,"dwell_time":10058.6088867188,"response_time":1706663666582.58},{"trial":12,"action":1,"button_pressed":0,"time_out":false,"dwell_time":80.97412109375,"response_time":1706663689442.85},{"trial":12,"action":1,"button_pressed":8,"time_out":false,"dwell_time":80.366943359375,"response_time":1706663689776.74},{"trial":12,"action":1,"button_pressed":9,"time_out":false,"dwell_time":63.889892578125,"response_time":1706663690159.66},{"trial":12,"action":1,"button_pressed":6,"time_out":false,"dwell_time":81.2099609375,"response_time":1706663690526.61},{"trial":12,"action":1,"button_pressed":4,"time_out":false,"dwell_time":64.527099609375,"response_time":1706663693942.07},{"trial":12,"action":1,"button_pressed":7,"time_out":false,"dwell_time":47.44384765625,"response_time":1706663694442.18},{"trial":12,"action":1,"button_pressed":2,"time_out":false,"dwell_time":30.87890625,"response_time":1706663694974.61},{"trial":12,"action":9,"button_pressed":-1,"time_out":false,"dwell_time":63.93212890625,"response_time":1706663696307.45}]}