{"meta_data":{"additional_headers":{},"game_name":"Recollect","version":"2.53.01","user_name":"160","organization":"braingamecenter","study":"mpl2_2022_11","session_number":0,"device_id":"74342D95-EE82-45E3-8ADF-48FB3203C5DD"},"data":[{"stage":"Practice","trial":0,"sequence":"6F","letter_input":"F","number_input":"6","is_correct":true,"presentation_start_time":1706663721164.09,"presentation_end_time":1706663724166.81,"response_time":1706663731445.68},{"stage":"Practice","trial":1,"sequence":"G4","letter_input":"G","number_input":"4","is_correct":true,"presentation_start_time":1706663732976.89,"presentation_end_time":1706663735979.61,"response_time":1706663740857.73},{"stage":"Practice","trial":2,"sequence":"3W5","letter_input":"W","number_input":"35","is_correct":true,"presentation_start_time":1706663742390.42,"presentation_end_time":1706663746892.79,"response_time":1706663752153.99},{"stage":"Practice","trial":3,"sequence":"T7L","letter_input":"LT","number_input":"7","is_correct":true,"presentation_start_time":1706663753686.71,"presentation_end_time":1706663758188.89,"response_time":1706663763950.11},{"stage":"Practice","trial":4,"sequence":"9J1","letter_input":"J","number_input":"19","is_correct":true,"presentation_start_time":1706663765482.83,"presentation_end_time":1706663769984.98,"response_time":1706663774230.17},{"stage":"Calibration","trial":0,"sequence":"W6","letter_input":"W","number_input":"6","is_correct":true,"presentation_start_time":1706663784876.42,"presentation_end_time":1706663787879.17,"response_time":1706663792457.38},{"stage":"Calibration","trial":1,"sequence":"2A","letter_input":"A","number_input":"2","is_correct":true,"presentation_start_time":1706663793990.16,"presentation_end_time":1706663796993.02,"response_time":1706663801154.57},{"stage":"Calibration","trial":2,"sequence":"S4N","letter_input":"NS","number_input":"4","is_correct":true,"presentation_start_time":1706663802687.3,"presentation_end_time":1706663807189.61,"response_time":1706663831128.02},{"stage":"Calibration","trial":3,"sequence":"8H2","letter_input":"H","number_input":"28","is_correct":true,"presentation_start_time":1706663832660.72,"presentation_end_time":1706663837163.05,"response_time":1706663840791.59},{"stage":"Calibration","trial":4,"sequence":"W9J7","letter_input":"JW","number_input":"79","is_correct":true,"presentation_start_time":1706663842324.19,"presentation_end_time":1706663848325.82,"response_time":1706663853787.32},{"stage":"Calibration","trial":5,"sequence":"8F2C","letter_input":"CF","number_input":"28","is_correct":true,"presentation_start_time":1706663855319.98,"presentation_end_time":1706663861321.63,"response_time":1706663865750},{"stage":"Calibration","trial":6,"sequence":"H7V4M","letter_input":"HMV","number_input":"47","is_correct":true,"presentation_start_time":1706663867282.67,"presentation_end_time":1706663874783.9,"response_time":1706663886209.92},{"stage":"Calibration","trial":7,"sequence":"2T8R6","letter_input":"RT","number_input":"268","is_correct":true,"presentation_start_time":1706663887742.63,"presentation_end_time":1706663895243.85,"response_time":1706663906386.67},{"stage":"Calibration","trial":8,"sequence":"J9Z7P5","letter_input":"JWZ","number_input":"579","is_correct":false,"presentation_start_time":1706663907919.36,"presentation_end_time":1706663916920.12,"response_time":1706663925363.7},{"stage":"Calibration","trial":9,"sequence":"4B8R6N","letter_input":"BNW","number_input":"468","is_correct":false,"presentation_start_time":1706663926896.48,"presentation_end_time":1706663935897.01,"response_time":1706663944640.73}]}