{"meta_data":{"additional_headers":{},"game_name":"Recollect","version":"2.53.01","user_name":"161","organization":"braingamecenter","study":"mpl2_2022_11","session_number":0,"device_id":"74342D95-EE82-45E3-8ADF-48FB3203C5DD"},"data":[{"trial":0,"action":1,"button_pressed":0,"time_out":false,"dwell_time":80.859130859375,"response_time":1707263859351.31},{"trial":0,"action":1,"button_pressed":6,"time_out":false,"dwell_time":80.35205078125,"response_time":1707263860034.35},{"trial":0,"action":9,"button_pressed":-1,"time_out":false,"dwell_time":108.192138671875,"response_time":1707263860810.71},{"trial":1,"action":1,"button_pressed":3,"time_out":false,"dwell_time":47.1591796875,"response_time":1707263870330.72},{"trial":1,"action":1,"button_pressed":9,"time_out":false,"dwell_time":63.4677734375,"response_time":1707263870946.55},{"trial":1,"action":1,"button_pressed":7,"time_out":false,"dwell_time":47.51611328125,"response_time":1707263871480.94},{"trial":1,"action":9,"button_pressed":-1,"time_out":false,"dwell_time":98.426025390625,"response_time":1707263872413.87},{"trial":2,"action":1,"button_pressed":6,"time_out":false,"dwell_time":47.6630859375,"response_time":1707263884359.56},{"trial":2,"action":1,"button_pressed":8,"time_out":false,"dwell_time":63.10302734375,"response_time":1707263884875.43},{"trial":2,"action":1,"button_pressed":11,"time_out":false,"dwell_time":46.9677734375,"response_time":1707263885425.72},{"trial":2,"action":1,"button_pressed":7,"time_out":false,"dwell_time":47.693115234375,"response_time":1707263885826.46},{"trial":2,"action":9,"button_pressed":-1,"time_out":false,"dwell_time":81.998046875,"response_time":1707263886526.01},{"trial":3,"action":1,"button_pressed":3,"time_out":false,"dwell_time":63.945068359375,"response_time":1707263901054.11},{"trial":3,"action":1,"button_pressed":8,"time_out":false,"dwell_time":63.635009765625,"response_time":1707263901587.17},{"trial":3,"action":1,"button_pressed":4,"time_out":false,"dwell_time":46.9580078125,"response_time":1707263902736.6},{"trial":3,"action":1,"button_pressed":10,"time_out":false,"dwell_time":63.078857421875,"response_time":1707263903052.76},{"trial":3,"action":1,"button_pressed":11,"time_out":false,"dwell_time":63.720947265625,"response_time":1707263903386.58},{"trial":3,"action":9,"button_pressed":-1,"time_out":false,"dwell_time":65.031982421875,"response_time":1707263904603.23},{"trial":4,"action":1,"button_pressed":8,"time_out":false,"dwell_time":63.650146484375,"response_time":1707263921764.06},{"trial":4,"action":1,"button_pressed":0,"time_out":false,"dwell_time":47.751953125,"response_time":1707263922163.63},{"trial":4,"action":1,"button_pressed":1,"time_out":false,"dwell_time":63.721923828125,"response_time":1707263922612.83},{"trial":4,"action":1,"button_pressed":9,"time_out":false,"dwell_time":81.327880859375,"response_time":1707263923363.58},{"trial":4,"action":1,"button_pressed":3,"time_out":false,"dwell_time":63.944091796875,"response_time":1707263923712.6},{"trial":4,"action":1,"button_pressed":5,"time_out":false,"dwell_time":64.661865234375,"response_time":1707263924196.51},{"trial":4,"action":9,"button_pressed":-1,"time_out":false,"dwell_time":16.552001953125,"response_time":1707263924879.22},{"trial":5,"action":1,"button_pressed":9,"time_out":false,"dwell_time":47.676025390625,"response_time":1707263944623.09},{"trial":5,"action":1,"button_pressed":7,"time_out":false,"dwell_time":12.868896484375,"response_time":1707263945055.72},{"trial":5,"action":1,"button_pressed":4,"time_out":false,"dwell_time":64.4609375,"response_time":1707263945572.84},{"trial":5,"action":1,"button_pressed":1,"time_out":false,"dwell_time":64.48095703125,"response_time":1707263946039.5},{"trial":5,"action":1,"button_pressed":11,"time_out":false,"dwell_time":63.8681640625,"response_time":1707263946488.67},{"trial":5,"action":1,"button_pressed":6,"time_out":false,"dwell_time":80.864990234375,"response_time":1707263947872.05},{"trial":5,"action":1,"button_pressed":8,"time_out":false,"dwell_time":46.970947265625,"response_time":1707263948055.3},{"trial":5,"action":9,"button_pressed":-1,"time_out":false,"dwell_time":63.5439453125,"response_time":1707263950337.63},{"trial":6,"action":1,"button_pressed":10,"time_out":false,"dwell_time":80.822998046875,"response_time":1707263972830.16},{"trial":6,"action":1,"button_pressed":1,"time_out":false,"dwell_time":63.87109375,"response_time":1707263973063.77},{"trial":6,"action":1,"button_pressed":0,"time_out":false,"dwell_time":46.890869140625,"response_time":1707263973979.93},{"trial":6,"action":1,"button_pressed":2,"time_out":false,"dwell_time":31.06201171875,"response_time":1707263974180.69},{"trial":6,"action":1,"button_pressed":3,"time_out":false,"dwell_time":47.49609375,"response_time":1707263976163.21},{"trial":6,"action":1,"button_pressed":7,"time_out":false,"dwell_time":47.359130859375,"response_time":1707263976578.98},{"trial":6,"action":1,"button_pressed":9,"time_out":false,"dwell_time":62.97802734375,"response_time":1707263976811.84},{"trial":6,"action":1,"button_pressed":4,"time_out":false,"dwell_time":30.8330078125,"response_time":1707263977245.4},{"trial":6,"action":9,"button_pressed":-1,"time_out":false,"dwell_time":16.342041015625,"response_time":1707263978061.6},{"trial":7,"action":1,"button_pressed":2,"time_out":false,"dwell_time":97.4150390625,"response_time":1707264000454.41},{"trial":7,"action":1,"button_pressed":4,"time_out":false,"dwell_time":46.85009765625,"response_time":1707264000971.12},{"trial":7,"action":1,"button_pressed":11,"time_out":false,"dwell_time":64.015869140625,"response_time":1707264001354.77},{"trial":7,"action":1,"button_pressed":6,"time_out":false,"dwell_time":63.546875,"response_time":1707264001721.17},{"trial":7,"action":1,"button_pressed":0,"time_out":false,"dwell_time":64.6669921875,"response_time":1707264002337.88},{"trial":7,"action":1,"button_pressed":5,"time_out":false,"dwell_time":79.9189453125,"response_time":1707264002487.07},{"trial":7,"action":1,"button_pressed":10,"time_out":false,"dwell_time":47.633056640625,"response_time":1707264002903.83},{"trial":7,"action":1,"button_pressed":3,"time_out":false,"dwell_time":47.72509765625,"response_time":1707264003120.4},{"trial":7,"action":9,"button_pressed":-1,"time_out":false,"dwell_time":16.423095703125,"response_time":1707264004153.1},{"trial":8,"action":1,"button_pressed":6,"time_out":false,"dwell_time":81.343017578125,"response_time":1707264021314.71},{"trial":8,"action":1,"button_pressed":5,"time_out":false,"dwell_time":81.346923828125,"response_time":1707264021514.59},{"trial":8,"action":1,"button_pressed":0,"time_out":false,"dwell_time":64.52099609375,"response_time":1707264021797.84},{"trial":8,"action":1,"button_pressed":11,"time_out":false,"dwell_time":46.802001953125,"response_time":1707264022230.69},{"trial":8,"action":1,"button_pressed":8,"time_out":false,"dwell_time":81.031982421875,"response_time":1707264022764.15},{"trial":8,"action":1,"button_pressed":4,"time_out":false,"dwell_time":64.597900390625,"response_time":1707264022997.44},{"trial":8,"action":9,"button_pressed":-1,"time_out":false,"dwell_time":65.536865234375,"response_time":1707264023782.06},{"trial":9,"action":1,"button_pressed":7,"time_out":false,"dwell_time":46.765869140625,"response_time":1707264043940.43},{"trial":9,"action":1,"button_pressed":11,"time_out":false,"dwell_time":47.5009765625,"response_time":1707264044156.84},{"trial":9,"action":1,"button_pressed":0,"time_out":false,"dwell_time":47.589111328125,"response_time":1707264044490.83},{"trial":9,"action":1,"button_pressed":3,"time_out":false,"dwell_time":63.2509765625,"response_time":1707264044856.85},{"trial":9,"action":1,"button_pressed":9,"time_out":false,"dwell_time":63.68701171875,"response_time":1707264045373.33},{"trial":9,"action":1,"button_pressed":5,"time_out":false,"dwell_time":81.27490234375,"response_time":1707264045540.07},{"trial":9,"action":1,"button_pressed":6,"time_out":false,"dwell_time":47.4169921875,"response_time":1707264045790.5},{"trial":9,"action":9,"button_pressed":-1,"time_out":false,"dwell_time":48.450927734375,"response_time":1707264047223.18},{"trial":10,"action":1,"button_pressed":11,"time_out":false,"dwell_time":62.9580078125,"response_time":1707264069864.78},{"trial":10,"action":1,"button_pressed":3,"time_out":false,"dwell_time":63.884033203125,"response_time":1707264070481.03},{"trial":10,"action":1,"button_pressed":9,"time_out":false,"dwell_time":47.781005859375,"response_time":1707264071498.05},{"trial":10,"action":1,"button_pressed":7,"time_out":false,"dwell_time":63.720947265625,"response_time":1707264071963.94},{"trial":10,"action":1,"button_pressed":4,"time_out":false,"dwell_time":63.77197265625,"response_time":1707264072431.16},{"trial":10,"action":1,"button_pressed":2,"time_out":false,"dwell_time":64.736083984375,"response_time":1707264072580.67},{"trial":10,"action":1,"button_pressed":10,"time_out":false,"dwell_time":47.443115234375,"response_time":1707264072898.15},{"trial":10,"action":1,"button_pressed":1,"time_out":false,"dwell_time":47.822021484375,"response_time":1707264073431.54},{"trial":10,"action":9,"button_pressed":-1,"time_out":false,"dwell_time":48.15283203125,"response_time":1707264076213.51},{"trial":11,"action":1,"button_pressed":2,"time_out":false,"dwell_time":80.86083984375,"response_time":1707264101571.8},{"trial":11,"action":1,"button_pressed":11,"time_out":false,"dwell_time":62.995849609375,"response_time":1707264101687.52},{"trial":11,"action":1,"button_pressed":3,"time_out":false,"dwell_time":63.113037109375,"response_time":1707264102220.7},{"trial":11,"action":1,"button_pressed":4,"time_out":false,"dwell_time":47.798095703125,"response_time":1707264102487.86},{"trial":11,"action":1,"button_pressed":8,"time_out":false,"dwell_time":81.162841796875,"response_time":1707264104370.72},{"trial":11,"action":1,"button_pressed":7,"time_out":false,"dwell_time":62.902099609375,"response_time":1707264104803.11},{"trial":11,"action":1,"button_pressed":5,"time_out":false,"dwell_time":63.93896484375,"response_time":1707264105003.17},{"trial":11,"action":1,"button_pressed":10,"time_out":false,"dwell_time":46.85791015625,"response_time":1707264105436.74},{"trial":11,"action":1,"button_pressed":9,"time_out":false,"dwell_time":30.046875,"response_time":1707264105670.13},{"trial":11,"action":9,"button_pressed":-1,"time_out":false,"dwell_time":64.14794921875,"response_time":1707264106637},{"trial":12,"action":1,"button_pressed":4,"time_out":false,"dwell_time":64.487060546875,"response_time":1707264132028.2},{"trial":12,"action":1,"button_pressed":3,"time_out":false,"dwell_time":48.47998046875,"response_time":1707264132295.31},{"trial":12,"action":1,"button_pressed":7,"time_out":false,"dwell_time":47.490966796875,"response_time":1707264132677.79},{"trial":12,"action":1,"button_pressed":1,"time_out":false,"dwell_time":64.52587890625,"response_time":1707264132961.37},{"trial":12,"action":1,"button_pressed":10,"time_out":false,"dwell_time":47.464111328125,"response_time":1707264133744.77},{"trial":12,"action":1,"button_pressed":2,"time_out":false,"dwell_time":63.97998046875,"response_time":1707264134010.29},{"trial":12,"action":1,"button_pressed":9,"time_out":false,"dwell_time":47.348876953125,"response_time":1707264134427.17},{"trial":12,"action":1,"button_pressed":8,"time_out":false,"dwell_time":47.590087890625,"response_time":1707264134727.13},{"trial":12,"action":1,"button_pressed":6,"time_out":false,"dwell_time":48.096923828125,"response_time":1707264135610.81},{"trial":12,"action":9,"button_pressed":-1,"time_out":false,"dwell_time":48.39111328125,"response_time":1707264136277.9}]}