{"meta_data":{"additional_headers":{},"game_name":"Recollect","version":"2.53.01","user_name":"161","organization":"braingamecenter","study":"mpl2_2022_11","session_number":0,"device_id":"74342D95-EE82-45E3-8ADF-48FB3203C5DD"},"data":[{"stage":"Practice","trial":0,"sequence":"6F","letter_input":"F","number_input":"6","is_correct":true,"presentation_start_time":1707264172296.19,"presentation_end_time":1707264175298.85,"response_time":1707264187959.43},{"stage":"Practice","trial":1,"sequence":"G4","letter_input":"G","number_input":"4","is_correct":true,"presentation_start_time":1707264189490.61,"presentation_end_time":1707264192493.28,"response_time":1707264196688.28},{"stage":"Practice","trial":2,"sequence":"3W5","letter_input":"W","number_input":"35","is_correct":true,"presentation_start_time":1707264198221.01,"presentation_end_time":1707264202723.29,"response_time":1707264208384.43},{"stage":"Practice","trial":3,"sequence":"T7L","letter_input":"LT","number_input":"7","is_correct":true,"presentation_start_time":1707264209917.21,"presentation_end_time":1707264214419.39,"response_time":1707264227344.8},{"stage":"Practice","trial":4,"sequence":"9J1","letter_input":"J","number_input":"19","is_correct":true,"presentation_start_time":1707264228877.55,"presentation_end_time":1707264233379.82,"response_time":1707264238141.35},{"stage":"Calibration","trial":0,"sequence":"L9","letter_input":"L","number_input":"9","is_correct":true,"presentation_start_time":1707264245155.67,"presentation_end_time":1707264248154.72,"response_time":1707264252141.5},{"stage":"Calibration","trial":1,"sequence":"1P","letter_input":"P","number_input":"1","is_correct":true,"presentation_start_time":1707264253671.5,"presentation_end_time":1707264256669.68,"response_time":1707264261259.1},{"stage":"Calibration","trial":2,"sequence":"G7D","letter_input":"DG","number_input":"7","is_correct":true,"presentation_start_time":1707264262790.5,"presentation_end_time":1707264267289,"response_time":1707264272713.77},{"stage":"Calibration","trial":3,"sequence":"6T2","letter_input":"T","number_input":"26","is_correct":true,"presentation_start_time":1707264274245.7,"presentation_end_time":1707264278746.22,"response_time":1707264290535.85},{"stage":"Calibration","trial":4,"sequence":"K9D3","letter_input":"DK","number_input":"39","is_correct":true,"presentation_start_time":1707264292068.25,"presentation_end_time":1707264298069.32,"response_time":1707264304746.21},{"stage":"Calibration","trial":5,"sequence":"4Z1E","letter_input":"EZ","number_input":"14","is_correct":true,"presentation_start_time":1707264306278.83,"presentation_end_time":1707264312280.26,"response_time":1707264320107.02},{"stage":"Calibration","trial":6,"sequence":"V5H2D","letter_input":"DHV","number_input":"25","is_correct":true,"presentation_start_time":1707264321639.69,"presentation_end_time":1707264329140.84,"response_time":1707264340333.15},{"stage":"Calibration","trial":7,"sequence":"4Q9F7","letter_input":"FQ","number_input":"479","is_correct":true,"presentation_start_time":1707264341865.92,"presentation_end_time":1707264349367.08,"response_time":1707264363608.57},{"stage":"Calibration","trial":8,"sequence":"H1E8B5","letter_input":"BEH","number_input":"158","is_correct":true,"presentation_start_time":1707264365141.25,"presentation_end_time":1707264374141.85,"response_time":1707264386750.64},{"stage":"Calibration","trial":9,"sequence":"4L2W7S","letter_input":"LSW","number_input":"247","is_correct":true,"presentation_start_time":1707264388283.28,"presentation_end_time":1707264397283.93,"response_time":1707264424287.91},{"stage":"Calibration","trial":10,"sequence":"M6E1T9H","letter_input":"HMT","number_input":"1667","is_correct":false,"presentation_start_time":1707264425820.52,"presentation_end_time":1707264436320.6,"response_time":1707264472421.37},{"stage":"Calibration","trial":11,"sequence":"4P2F8A6","letter_input":"AFP","number_input":"1248","is_correct":false,"presentation_start_time":1707264473954.02,"presentation_end_time":1707264484454.1,"response_time":1707264506126.59}]}