Audio_Only_Files,Video_Files,Original_Word_List,noiseLevelCode,conditionCodes,noiseLevelFile1,noiseLevelFile2,InstrTextVar,targetSpeakerName,targetSpeakerEccen,targetSpkrChannel,targetSpkrSound,targetVisualDegrees,visStimLoc,visStimLoc2,visStimW,visStimH,practiceTrials.thisRepN,practiceTrials.thisTrialN,practiceTrials.thisN,practiceTrials.thisIndex,trials.thisRepN,trials.thisTrialN,trials.thisN,trials.thisIndex,audLocalLoop.thisRepN,audLocalLoop.thisTrialN,audLocalLoop.thisN,audLocalLoop.thisIndex,visualLocalLoop.thisRepN,visualLocalLoop.thisTrialN,visualLocalLoop.thisN,visualLocalLoop.thisIndex,letsGoAlready.keys,letsGoAlready.rt,letsGoAlready.started,letsGoAlready.stopped,text_2.started,text_2.stopped,text_3.started,text_3.stopped,key_resp_2.keys,key_resp_2.rt,key_resp_2.started,key_resp_2.stopped,text_5.started,text_5.stopped,fixCross.started,fixCross.stopped,fixCross2.started,fixCross2.stopped,answerPrompt.started,answerPrompt.stopped,getAnswer.text,getAnswer.started,getAnswer.stopped,goToNext.keys,goToNext.rt,goToNext.started,goToNext.stopped,stretchBreakTxrt.started,stretchBreakTxrt.stopped,key_resp_3.keys,key_resp_3.rt,key_resp_3.started,key_resp_3.stopped,letsGoLocal.keys,letsGoLocal.rt,letsGoLocal.started,letsGoLocal.stopped,text_4.started,text_4.stopped,prepFixTxt.started,prepFixTxt.stopped,prepFixTxt_2.started,prepFixTxt_2.stopped,respPromptLocal.started,respPromptLocal.stopped,slider.response,slider.rt,slider.started,slider.stopped,letsGoLocal_2.keys,letsGoLocal_2.rt,letsGoLocal_2.started,letsGoLocal_2.stopped,text_7.started,text_7.stopped,prepFixTxt_3.started,prepFixTxt_3.stopped,grating.started,grating.stopped,exitTxt.started,exitTxt.stopped,key_resp.keys,key_resp.rt,key_resp.started,key_resp.stopped,participant,session,date,expName,psychopyVersion,frameRate,
,,,,,,,,,,,,,,,,,,,,,,,,,,,,,,,,,space,5.683347552083433,41.71094256360084,None,,,,,,,,,,,,,,,,,,,,,,,,,,,,,,,,,,,,,,,,,,,,,,,,,,,,,,,,,,,,,,162,001,2024_Feb_07_1401,SpeechDraft1Carolyn_lessNoise_PlusLocalization,2021.2.3,59.95299515384036,
,,,,,,,,,,,,,,,,,,,,,,,,,,,,,,,,,,,,,41.71094256360084,None,47.527188615873456,None,space,6.819657894782722,47.71075371699408,None,,,,,,,,,,,,,,,,,,,,,,,,,,,,,,,,,,,,,,,,,,,,,,,,,,,,,,162,001,2024_Feb_07_1401,SpeechDraft1Carolyn_lessNoise_PlusLocalization,2021.2.3,59.95299515384036,
ash.wav,ash.mpg,ash,1,A,Pink_Noise_1_1.wav,Pink_Noise_1_2.wav,"This is an example of an

AUDIO trial",,,,,,,,,,0,0,0,0,,,,,,,,,,,,,,,,,,,,,,,,,54.59397467877716,None,55.57748450804502,None,58.76249002665281,None,60.14471657993272,None,"ash
",60.14471657993272,None,return,5.718721291050315,60.22757461993024,None,,,,,,,,,,,,,,,,,,,,,,,,,,,,,,,,,,,,,,,162,001,2024_Feb_07_1401,SpeechDraft1Carolyn_lessNoise_PlusLocalization,2021.2.3,59.95299515384036,
ash.wav,ash.mpg,ash,1,AV,Pink_Noise_1_1.wav,Pink_Noise_1_2.wav,"This is an example of an

AUDIO + VIDEO  trial",,,,,,,,,,0,1,1,1,,,,,,,,,,,,,,,,,,,,,,,,,65.99388350080699,None,66.99439984373748,None,68.47896923776716,None,69.86080046370625,None,ash,69.86080046370625,None,return,2.498123599216342,69.94422546681017,None,,,,,,,,,,,,,,,,,,,,,,,,,,,,,,,,,,,,,,,162,001,2024_Feb_07_1401,SpeechDraft1Carolyn_lessNoise_PlusLocalization,2021.2.3,59.95299515384036,
,,,,,,,,,,,,,,,,,,,,,,,,,,,,,,,,,,,,,,,,,,,,,,,,,,,,,,,,,,,,72.47714099567384,None,space,12.341516023036093,72.6607838976197,None,,,,,,,,,,,,,,,,,,,,,,,,,,,,,,,,,162,001,2024_Feb_07_1401,SpeechDraft1Carolyn_lessNoise_PlusLocalization,2021.2.3,59.95299515384036,
dust.wav,dust.mpg,dust,1,A,Pink_Noise_1_1.wav,Pink_Noise_1_2.wav,,,,,,,,,,,,,,,0,0,0,10,,,,,,,,,,,,,,,,,,,,,,,85.06052873795852,None,86.54387411568314,None,87.92749401461333,None,dust,87.92749401461333,None,return,2.871642835903913,88.01076133502647,None,,,,,,,,,,,,,,,,,,,,,,,,,,,,,,,,,,,,,,,162,001,2024_Feb_07_1401,SpeechDraft1Carolyn_lessNoise_PlusLocalization,2021.2.3,59.95299515384036,
beard.wav,beard.mpg,beard,5,AV,Pink_Noise_5_1.wav,Pink_Noise_5_2.wav,,,,,,,,,,,,,,,0,1,1,94,,,,,,,,,,,,,,,,,,,,,,,90.91078567365184,None,92.39493510173634,None,93.77759087504819,None,blue,93.77759087504819,None,return,1.7737026079557836,93.86077089095488,None,,,,,,,,,,,,,,,,,,,,,,,,,,,,,,,,,,,,,,,162,001,2024_Feb_07_1401,SpeechDraft1Carolyn_lessNoise_PlusLocalization,2021.2.3,59.95299515384036,
fish.wav,fish.mpg,fish,6,AV,Pink_Noise_6_1.wav,Pink_Noise_6_2.wav,,,,,,,,,,,,,,,0,2,2,114,,,,,,,,,,,,,,,,,,,,,,,95.66081324173138,None,97.1605307678692,None,98.54408794362098,None,fresh,98.54408794362098,None,return,1.6787666967138648,98.62750940676779,None,,,,,,,,,,,,,,,,,,,,,,,,,,,,,,,,,,,,,,,162,001,2024_Feb_07_1401,SpeechDraft1Carolyn_lessNoise_PlusLocalization,2021.2.3,59.95299515384036,
beast.wav,beast.mpg,beast,1,AV,Pink_Noise_1_1.wav,Pink_Noise_1_2.wav,,,,,,,,,,,,,,,0,3,3,117,,,,,,,,,,,,,,,,,,,,,,,100.32747368980199,None,101.82715430902317,None,103.21072977082804,None,"beast
",103.21072977082804,None,return,2.0520413308404386,103.29424294782802,None,,,,,,,,,,,,,,,,,,,,,,,,,,,,,,,,,,,,,,,162,001,2024_Feb_07_1401,SpeechDraft1Carolyn_lessNoise_PlusLocalization,2021.2.3,59.95299515384036,
bark.wav,bark.mpg,bark,4,A,Pink_Noise_4_1.wav,Pink_Noise_4_2.wav,,,,,,,,,,,,,,,0,4,4,11,,,,,,,,,,,,,,,,,,,,,,,105.37757651694119,None,106.87703016400337,None,108.26093983463943,None,"fur
",108.26093983463943,None,return,0.8021181561052799,108.34417097782716,None,,,,,,,,,,,,,,,,,,,,,,,,,,,,,,,,,,,,,,,162,001,2024_Feb_07_1401,SpeechDraft1Carolyn_lessNoise_PlusLocalization,2021.2.3,59.95299515384036,
foam.wav,foam.mpg,foam,1,A,Pink_Noise_1_1.wav,Pink_Noise_1_2.wav,,,,,,,,,,,,,,,0,5,5,17,,,,,,,,,,,,,,,,,,,,,,,109.1775369476527,None,110.67711928859353,None,112.06091476604342,None,foam,112.06091476604342,None,return,1.0823127012699842,112.14414069987833,None,,,,,,,,,,,,,,,,,,,,,,,,,,,,,,,,,,,,,,,162,001,2024_Feb_07_1401,SpeechDraft1Carolyn_lessNoise_PlusLocalization,2021.2.3,59.95299515384036,
dock.wav,dock.mpg,dock,6,A,Pink_Noise_6_1.wav,Pink_Noise_6_2.wav,,,,,,,,,,,,,,,0,6,6,15,,,,,,,,,,,,,,,,,,,,,,,113.24433105578646,None,114.74376493692398,None,116.12758329696953,None,?,116.12758329696953,None,return,1.9995814077556133,116.21085570473224,None,,,,,,,,,,,,,,,,,,,,,,,,,,,,,,,,,,,,,,,162,001,2024_Feb_07_1401,SpeechDraft1Carolyn_lessNoise_PlusLocalization,2021.2.3,59.95299515384036,
bell.wav,bell.mpg,bell,2,AV,Pink_Noise_2_1.wav,Pink_Noise_2_2.wav,,,,,,,,,,,,,,,0,7,7,83,,,,,,,,,,,,,,,,,,,,,,,118.2276233448647,None,119.72724281484261,None,121.11085913004354,None,"bell
",121.11085913004354,None,return,1.3841537800617516,121.19413333572447,None,,,,,,,,,,,,,,,,,,,,,,,,,,,,,,,,,,,,,,,162,001,2024_Feb_07_1401,SpeechDraft1Carolyn_lessNoise_PlusLocalization,2021.2.3,59.95299515384036,
brawl.wav,brawl.mpg,brawl,4,A,Pink_Noise_4_1.wav,Pink_Noise_4_2.wav,,,,,,,,,,,,,,,0,8,8,26,,,,,,,,,,,,,,,,,,,,,,,122.61089946283028,None,124.11046510282904,None,125.4941599466838,None,roam,125.4941599466838,None,return,1.1766967168077826,125.5775934047997,None,,,,,,,,,,,,,,,,,,,,,,,,,,,,,,,,,,,,,,,162,001,2024_Feb_07_1401,SpeechDraft1Carolyn_lessNoise_PlusLocalization,2021.2.3,59.95299515384036,
cash.wav,cash.mpg,cash,5,AV,Pink_Noise_5_1.wav,Pink_Noise_5_2.wav,,,,,,,,,,,,,,,0,9,9,100,,,,,,,,,,,,,,,,,,,,,,,126.77752222493291,None,128.27707945974544,None,129.66083875391632,None,cash,129.66083875391632,None,return,2.722197491209954,129.74420260963961,None,,,,,,,,,,,,,,,,,,,,,,,,,,,,,,,,,,,,,,,162,001,2024_Feb_07_1401,SpeechDraft1Carolyn_lessNoise_PlusLocalization,2021.2.3,59.95299515384036,
chunk.wav,chunk.mpg,chunk,5,A,Pink_Noise_5_1.wav,Pink_Noise_5_2.wav,,,,,,,,,,,,,,,0,10,10,32,,,,,,,,,,,,,,,,,,,,,,,132.49418629799038,None,133.99376428686082,None,135.37760251760483,None,shush,135.37760251760483,None,return,1.52547924593091,135.46083476301283,None,,,,,,,,,,,,,,,,,,,,,,,,,,,,,,,,,,,,,,,162,001,2024_Feb_07_1401,SpeechDraft1Carolyn_lessNoise_PlusLocalization,2021.2.3,59.95299515384036,
nice.wav,nice.mpg,nice,3,A,Pink_Noise_3_1.wav,Pink_Noise_3_2.wav,,,,,,,,,,,,,,,0,11,11,38,,,,,,,,,,,,,,,,,,,,,,,137.0110273049213,None,138.51047814870253,None,139.89421307994053,None,nice,139.89421307994053,None,return,0.9606995461508632,139.97757401689887,None,,,,,,,,,,,,,,,,,,,,,,,,,,,,,,,,,,,,,,,162,001,2024_Feb_07_1401,SpeechDraft1Carolyn_lessNoise_PlusLocalization,2021.2.3,59.95299515384036,
chord.wav,chord.mpg,chord,3,AV,Pink_Noise_3_1.wav,Pink_Noise_3_2.wav,,,,,,,,,,,,,,,0,12,12,65,,,,,,,,,,,,,,,,,,,,,,,140.96090516680852,None,142.46040868386626,None,143.8442889577709,None,cord,143.8442889577709,None,return,1.7306262110359967,143.92769695166498,None,,,,,,,,,,,,,,,,,,,,,,,,,,,,,,,,,,,,,,,162,001,2024_Feb_07_1401,SpeechDraft1Carolyn_lessNoise_PlusLocalization,2021.2.3,59.95299515384036,
bible.wav,bible.mpg,bible,4,A,Pink_Noise_4_1.wav,Pink_Noise_4_2.wav,,,,,,,,,,,,,,,0,13,13,7,,,,,,,,,,,,,,,,,,,,,,,145.67773798201233,None,147.17709143972024,None,148.56103768059984,None,bible,148.56103768059984,None,return,1.3099679369479418,148.64433732861653,None,,,,,,,,,,,,,,,,,,,,,,,,,,,,,,,,,,,,,,,162,001,2024_Feb_07_1401,SpeechDraft1Carolyn_lessNoise_PlusLocalization,2021.2.3,59.95299515384036,
clog.wav,clog.mpg,clog,6,A,Pink_Noise_6_1.wav,Pink_Noise_6_2.wav,,,,,,,,,,,,,,,0,14,14,43,,,,,,,,,,,,,,,,,,,,,,,149.97759891068563,None,151.47719521075487,None,152.8610493480228,None,?,152.8610493480228,None,return,1.466127147898078,152.94428901094943,None,,,,,,,,,,,,,,,,,,,,,,,,,,,,,,,,,,,,,,,162,001,2024_Feb_07_1401,SpeechDraft1Carolyn_lessNoise_PlusLocalization,2021.2.3,59.95299515384036,
quart.wav,quart.mpg,quart,2,A,Pink_Noise_2_1.wav,Pink_Noise_2_2.wav,,,,,,,,,,,,,,,0,15,15,51,,,,,,,,,,,,,,,,,,,,,,,154.4276835359633,None,155.94399163359776,None,157.32771554682404,None,court,157.32771554682404,None,return,1.2074832171201706,157.41095620486885,None,,,,,,,,,,,,,,,,,,,,,,,,,,,,,,,,,,,,,,,162,001,2024_Feb_07_1401,SpeechDraft1Carolyn_lessNoise_PlusLocalization,2021.2.3,59.95299515384036,
cute.wav,cute.mpg,cute,2,A,Pink_Noise_2_1.wav,Pink_Noise_2_2.wav,,,,,,,,,,,,,,,0,16,16,24,,,,,,,,,,,,,,,,,,,,,,,158.6442854530178,None,160.1438554059714,None,161.5277240718715,None,cute,161.5277240718715,None,return,3.4713793941773474,161.61089675268158,None,,,,,,,,,,,,,,,,,,,,,,,,,,,,,,,,,,,,,,,162,001,2024_Feb_07_1401,SpeechDraft1Carolyn_lessNoise_PlusLocalization,2021.2.3,59.95299515384036,
feast.wav,feast.mpg,feast,5,A,Pink_Noise_5_1.wav,Pink_Noise_5_2.wav,,,,,,,,,,,,,,,0,17,17,18,,,,,,,,,,,,,,,,,,,,,,,165.11089824093506,None,166.6105497549288,None,167.994195333682,None,?,167.994195333682,None,return,0.8207024401053786,168.07757979491726,None,,,,,,,,,,,,,,,,,,,,,,,,,,,,,,,,,,,,,,,162,001,2024_Feb_07_1401,SpeechDraft1Carolyn_lessNoise_PlusLocalization,2021.2.3,59.95299515384036,
bloom.wav,bloom.mpg,bloom,3,AV,Pink_Noise_3_1.wav,Pink_Noise_3_2.wav,,,,,,,,,,,,,,,0,18,18,61,,,,,,,,,,,,,,,,,,,,,,,168.9276332249865,None,170.42733921203762,None,171.8108650590293,None,bloom,171.8108650590293,None,return,1.6599572408013046,171.89434478478506,None,,,,,,,,,,,,,,,,,,,,,,,,,,,,,,,,,,,,,,,162,001,2024_Feb_07_1401,SpeechDraft1Carolyn_lessNoise_PlusLocalization,2021.2.3,59.95299515384036,
chomp.wav,chomp.mpg,chomp,1,AV,Pink_Noise_1_1.wav,Pink_Noise_1_2.wav,,,,,,,,,,,,,,,0,19,19,113,,,,,,,,,,,,,,,,,,,,,,,173.5775324627757,None,175.07723470870405,None,176.46095008403063,None,"chomp
",176.46095008403063,None,return,1.5539959641173482,176.54428781894967,None,,,,,,,,,,,,,,,,,,,,,,,,,,,,,,,,,,,,,,,162,001,2024_Feb_07_1401,SpeechDraft1Carolyn_lessNoise_PlusLocalization,2021.2.3,59.95299515384036,
cycle.wav,cycle.mpg,cycle,5,AV,Pink_Noise_5_1.wav,Pink_Noise_5_2.wav,,,,,,,,,,,,,,,0,20,20,81,,,,,,,,,,,,,,,,,,,,,,,178.12777368258685,None,179.6273349300027,None,181.01102176774293,None,"cycle
",181.01102176774293,None,return,1.451933491975069,181.0943599198945,None,,,,,,,,,,,,,,,,,,,,,,,,,,,,,,,,,,,,,,,162,001,2024_Feb_07_1401,SpeechDraft1Carolyn_lessNoise_PlusLocalization,2021.2.3,59.95299515384036,
buzz.wav,buzz.mpg,buzz,2,A,Pink_Noise_2_1.wav,Pink_Noise_2_2.wav,,,,,,,,,,,,,,,0,21,21,4,,,,,,,,,,,,,,,,,,,,,,,182.577752829995,None,184.0772272660397,None,185.46103474264964,None,buzz,185.46103474264964,None,return,1.2420503091998398,185.54421360371634,None,,,,,,,,,,,,,,,,,,,,,,,,,,,,,,,,,,,,,,,162,001,2024_Feb_07_1401,SpeechDraft1Carolyn_lessNoise_PlusLocalization,2021.2.3,59.95299515384036,
grade.wav,grade.mpg,grade,3,AV,Pink_Noise_3_1.wav,Pink_Noise_3_2.wav,,,,,,,,,,,,,,,0,22,22,101,,,,,,,,,,,,,,,,,,,,,,,186.81096687167883,None,188.31058746483177,None,189.6943216919899,None,"grade
",189.6943216919899,None,return,1.3205169760622084,189.7777736079879,None,,,,,,,,,,,,,,,,,,,,,,,,,,,,,,,,,,,,,,,162,001,2024_Feb_07_1401,SpeechDraft1Carolyn_lessNoise_PlusLocalization,2021.2.3,59.95299515384036,
drip.wav,drip.mpg,drip,4,A,Pink_Noise_4_1.wav,Pink_Noise_4_2.wav,,,,,,,,,,,,,,,0,23,23,34,,,,,,,,,,,,,,,,,,,,,,,191.1277329637669,None,192.62728084484115,None,194.01106469566002,None,drape,194.01106469566002,None,return,2.643937660846859,194.09433388290927,None,,,,,,,,,,,,,,,,,,,,,,,,,,,,,,,,,,,,,,,162,001,2024_Feb_07_1401,SpeechDraft1Carolyn_lessNoise_PlusLocalization,2021.2.3,59.95299515384036,
frail.wav,frail.mpg,frail,2,AV,Pink_Noise_2_1.wav,Pink_Noise_2_2.wav,,,,,,,,,,,,,,,0,24,24,95,,,,,,,,,,,,,,,,,,,,,,,196.7610887880437,None,198.26066909497604,None,199.64450663188472,None,"frail
",199.64450663188472,None,return,2.834614963270724,199.72766205389053,None,,,,,,,,,,,,,,,,,,,,,,,,,,,,,,,,,,,,,,,162,001,2024_Feb_07_1401,SpeechDraft1Carolyn_lessNoise_PlusLocalization,2021.2.3,59.95299515384036,
feud.wav,feud.mpg,feud,1,A,Pink_Noise_1_1.wav,Pink_Noise_1_2.wav,,,,,,,,,,,,,,,0,25,25,45,,,,,,,,,,,,,,,,,,,,,,,202.59436071896926,None,204.09398382762447,None,205.47772198775783,None,feud,205.47772198775783,None,return,1.2333498471416533,205.5609734337777,None,,,,,,,,,,,,,,,,,,,,,,,,,,,,,,,,,,,,,,,162,001,2024_Feb_07_1401,SpeechDraft1Carolyn_lessNoise_PlusLocalization,2021.2.3,59.95299515384036,
blond.wav,blond.mpg,blond,1,AV,Pink_Noise_1_1.wav,Pink_Noise_1_2.wav,,,,,,,,,,,,,,,0,26,26,67,,,,,,,,,,,,,,,,,,,,,,,206.8109899139963,None,208.31174272764474,None,209.694229232613,None,blond,209.694229232613,None,return,1.0567626738920808,209.7776653128676,None,,,,,,,,,,,,,,,,,,,,,,,,,,,,,,,,,,,,,,,162,001,2024_Feb_07_1401,SpeechDraft1Carolyn_lessNoise_PlusLocalization,2021.2.3,59.95299515384036,
jeep.wav,jeep.mpg,jeep,2,AV,Pink_Noise_2_1.wav,Pink_Noise_2_2.wav,,,,,,,,,,,,,,,0,27,27,106,,,,,,,,,,,,,,,,,,,,,,,210.86089157359675,None,212.36058716103435,None,213.74450252670795,None,"jeep
",213.74450252670795,None,return,1.6866355780512094,213.82765508582816,None,,,,,,,,,,,,,,,,,,,,,,,,,,,,,,,,,,,,,,,162,001,2024_Feb_07_1401,SpeechDraft1Carolyn_lessNoise_PlusLocalization,2021.2.3,59.95299515384036,
spray.wav,spray.mpg,spray,4,AV,Pink_Noise_4_1.wav,Pink_Noise_4_2.wav,,,,,,,,,,,,,,,0,28,28,92,,,,,,,,,,,,,,,,,,,,,,,215.54435839364305,None,217.04400198860094,None,218.42764362785965,None,scram,218.42764362785965,None,return,1.3153824680484831,218.51103639695793,None,,,,,,,,,,,,,,,,,,,,,,,,,,,,,,,,,,,,,,,162,001,2024_Feb_07_1401,SpeechDraft1Carolyn_lessNoise_PlusLocalization,2021.2.3,59.95299515384036,
deed.wav,deed.mpg,deed,1,AV,Pink_Noise_1_1.wav,Pink_Noise_1_2.wav,,,,,,,,,,,,,,,0,29,29,79,,,,,,,,,,,,,,,,,,,,,,,219.84429340763018,None,221.34390668664128,None,222.72773259785026,None,deed,222.72773259785026,None,return,1.1912061776965857,222.81108006369323,None,,,,,,,,,,,,,,,,,,,,,,,,,,,,,,,,,,,,,,,162,001,2024_Feb_07_1401,SpeechDraft1Carolyn_lessNoise_PlusLocalization,2021.2.3,59.95299515384036,
broad.wav,broad.mpg,broad,3,A,Pink_Noise_3_1.wav,Pink_Noise_3_2.wav,,,,,,,,,,,,,,,0,30,30,46,,,,,,,,,,,,,,,,,,,,,,,224.02768392674625,None,225.5273763826117,None,226.91104537900537,None,"broad
",226.91104537900537,None,return,2.1678329282440245,226.99447526503354,None,,,,,,,,,,,,,,,,,,,,,,,,,,,,,,,,,,,,,,,162,001,2024_Feb_07_1401,SpeechDraft1Carolyn_lessNoise_PlusLocalization,2021.2.3,59.95299515384036,
shut.wav,shut.mpg,shut,6,A,Pink_Noise_6_1.wav,Pink_Noise_6_2.wav,,,,,,,,,,,,,,,0,31,31,25,,,,,,,,,,,,,,,,,,,,,,,229.19437994481996,None,230.6940153967589,None,232.07775482302532,None,?,232.07775482302532,None,return,0.7773352251388133,232.16096692159772,None,,,,,,,,,,,,,,,,,,,,,,,,,,,,,,,,,,,,,,,162,001,2024_Feb_07_1401,SpeechDraft1Carolyn_lessNoise_PlusLocalization,2021.2.3,59.95299515384036,
read.wav,read.mpg,read,4,A,Pink_Noise_4_1.wav,Pink_Noise_4_2.wav,,,,,,,,,,,,,,,0,32,32,22,,,,,,,,,,,,,,,,,,,,,,,232.96094709588215,None,234.46065727062523,None,235.8442732580006,None,wing,235.8442732580006,None,return,2.314538066741079,235.9277484100312,None,,,,,,,,,,,,,,,,,,,,,,,,,,,,,,,,,,,,,,,162,001,2024_Feb_07_1401,SpeechDraft1Carolyn_lessNoise_PlusLocalization,2021.2.3,59.95299515384036,
druid.wav,druid.mpg,druid,2,AV,Pink_Noise_2_1.wav,Pink_Noise_2_2.wav,,,,,,,,,,,,,,,0,33,33,82,,,,,,,,,,,,,,,,,,,,,,,238.26109685888514,None,239.76064935792238,None,241.14422811288387,None,druid,241.14422811288387,None,return,0.8782396991737187,241.2280575525947,None,,,,,,,,,,,,,,,,,,,,,,,,,,,,,,,,,,,,,,,162,001,2024_Feb_07_1401,SpeechDraft1Carolyn_lessNoise_PlusLocalization,2021.2.3,59.95299515384036,
dress.wav,dress.mpg,dress,2,A,Pink_Noise_2_1.wav,Pink_Noise_2_2.wav,,,,,,,,,,,,,,,0,34,34,30,,,,,,,,,,,,,,,,,,,,,,,242.12764669861645,None,243.64398047700524,None,245.0276835579425,None,dress,245.0276835579425,None,return,1.1234156326390803,245.11112251784652,None,,,,,,,,,,,,,,,,,,,,,,,,,,,,,,,,,,,,,,,162,001,2024_Feb_07_1401,SpeechDraft1Carolyn_lessNoise_PlusLocalization,2021.2.3,59.95299515384036,
coup.wav,coup.mpg,coup,4,AV,Pink_Noise_4_1.wav,Pink_Noise_4_2.wav,,,,,,,,,,,,,,,0,35,35,84,,,,,,,,,,,,,,,,,,,,,,,246.2609981978312,None,247.76070768665522,None,249.14436515280977,None,coo,249.14436515280977,None,return,1.5745725738815963,249.22772693494335,None,,,,,,,,,,,,,,,,,,,,,,,,,,,,,,,,,,,,,,,162,001,2024_Feb_07_1401,SpeechDraft1Carolyn_lessNoise_PlusLocalization,2021.2.3,59.95299515384036,
live.wav,live.mpg,live,2,A,Pink_Noise_2_1.wav,Pink_Noise_2_2.wav,,,,,,,,,,,,,,,0,36,36,36,,,,,,,,,,,,,,,,,,,,,,,250.82774411188439,None,252.32732972176746,None,253.72741197887808,None,live,253.72741197887808,None,return,0.7759722033515573,253.79431346803904,None,,,,,,,,,,,,,,,,,,,,,,,,,,,,,,,,,,,,,,,162,001,2024_Feb_07_1401,SpeechDraft1Carolyn_lessNoise_PlusLocalization,2021.2.3,59.95299515384036,
pike.wav,pike.mpg,pike,3,AV,Pink_Noise_3_1.wav,Pink_Noise_3_2.wav,,,,,,,,,,,,,,,0,37,37,64,,,,,,,,,,,,,,,,,,,,,,,254.59446179075167,None,256.0942533169873,None,257.4778110119514,None,pike,257.4778110119514,None,return,5.337199012748897,257.56108161760494,None,,,,,,,,,,,,,,,,,,,,,,,,,,,,,,,,,,,,,,,162,001,2024_Feb_07_1401,SpeechDraft1Carolyn_lessNoise_PlusLocalization,2021.2.3,59.95299515384036,
flesh.wav,flesh.mpg,flesh,6,A,Pink_Noise_6_1.wav,Pink_Noise_6_2.wav,,,,,,,,,,,,,,,0,38,38,1,,,,,,,,,,,,,,,,,,,,,,,262.9277271707542,None,264.4273370318115,None,265.8110869107768,None,?,265.8110869107768,None,return,0.8038696581497788,265.8944069426507,None,,,,,,,,,,,,,,,,,,,,,,,,,,,,,,,,,,,,,,,162,001,2024_Feb_07_1401,SpeechDraft1Carolyn_lessNoise_PlusLocalization,2021.2.3,59.95299515384036,
clerk.wav,clerk.mpg,clerk,2,AV,Pink_Noise_2_1.wav,Pink_Noise_2_2.wav,,,,,,,,,,,,,,,0,39,39,104,,,,,,,,,,,,,,,,,,,,,,,266.7277477136813,None,268.2274238616228,None,269.61105881258845,None,clerk,269.61105881258845,None,return,0.9958302481099963,269.69445403059945,None,,,,,,,,,,,,,,,,,,,,,,,,,,,,,,,,,,,,,,,162,001,2024_Feb_07_1401,SpeechDraft1Carolyn_lessNoise_PlusLocalization,2021.2.3,59.95299515384036,
smack.wav,smack.mpg,smack,4,AV,Pink_Noise_4_1.wav,Pink_Noise_4_2.wav,,,,,,,,,,,,,,,0,40,40,93,,,,,,,,,,,,,,,,,,,,,,,270.7111838986166,None,272.2106741848402,None,273.59451074898243,None,smith,273.59451074898243,None,return,2.9405921576544642,273.6778235207312,None,,,,,,,,,,,,,,,,,,,,,,,,,,,,,,,,,,,,,,,162,001,2024_Feb_07_1401,SpeechDraft1Carolyn_lessNoise_PlusLocalization,2021.2.3,59.95299515384036,
flow.wav,flow.mpg,flow,5,A,Pink_Noise_5_1.wav,Pink_Noise_5_2.wav,,,,,,,,,,,,,,,0,41,41,56,,,,,,,,,,,,,,,,,,,,,,,276.6443802928552,None,278.14399043796584,None,279.52775946399197,None,rome,279.52775946399197,None,return,1.0072823972441256,279.6111113806255,None,,,,,,,,,,,,,,,,,,,,,,,,,,,,,,,,,,,,,,,162,001,2024_Feb_07_1401,SpeechDraft1Carolyn_lessNoise_PlusLocalization,2021.2.3,59.95299515384036,
fill.wav,fill.mpg,fill,4,AV,Pink_Noise_4_1.wav,Pink_Noise_4_2.wav,,,,,,,,,,,,,,,0,42,42,78,,,,,,,,,,,,,,,,,,,,,,,280.64438615273684,None,282.14435702888295,None,283.52766861766577,None,"fill
",283.52766861766577,None,return,0.9671912798658013,283.61110332468525,None,,,,,,,,,,,,,,,,,,,,,,,,,,,,,,,,,,,,,,,162,001,2024_Feb_07_1401,SpeechDraft1Carolyn_lessNoise_PlusLocalization,2021.2.3,59.95299515384036,
dot.wav,dot.mpg,dot,2,A,Pink_Noise_2_1.wav,Pink_Noise_2_2.wav,,,,,,,,,,,,,,,0,43,43,55,,,,,,,,,,,,,,,,,,,,,,,284.6111107817851,None,286.1106697036885,None,287.4944408368319,None,dot,287.4944408368319,None,return,0.624484553001821,287.57794134598225,None,,,,,,,,,,,,,,,,,,,,,,,,,,,,,,,,,,,,,,,162,001,2024_Feb_07_1401,SpeechDraft1Carolyn_lessNoise_PlusLocalization,2021.2.3,59.95299515384036,
gym.wav,gym.mpg,gym,6,AV,Pink_Noise_6_1.wav,Pink_Noise_6_2.wav,,,,,,,,,,,,,,,0,44,44,77,,,,,,,,,,,,,,,,,,,,,,,288.2278768029064,None,289.7274637320079,None,291.11139316670597,None,gym,291.11139316670597,None,return,0.8078093910589814,291.19450350292027,None,,,,,,,,,,,,,,,,,,,,,,,,,,,,,,,,,,,,,,,162,001,2024_Feb_07_1401,SpeechDraft1Carolyn_lessNoise_PlusLocalization,2021.2.3,59.95299515384036,
fuel.wav,fuel.mpg,fuel,3,A,Pink_Noise_3_1.wav,Pink_Noise_3_2.wav,,,,,,,,,,,,,,,0,45,45,37,,,,,,,,,,,,,,,,,,,,,,,292.02776542073116,None,293.5273917405866,None,294.911042985972,None,"feel
",294.911042985972,None,return,5.583746272139251,294.99458744190633,None,,,,,,,,,,,,,,,,,,,,,,,,,,,,,,,,,,,,,,,162,001,2024_Feb_07_1401,SpeechDraft1Carolyn_lessNoise_PlusLocalization,2021.2.3,59.95299515384036,
clue.wav,clue.mpg,clue,6,A,Pink_Noise_6_1.wav,Pink_Noise_6_2.wav,,,,,,,,,,,,,,,0,46,46,9,,,,,,,,,,,,,,,,,,,,,,,300.61110228067264,None,302.1107216957025,None,303.4944715006277,None,skim,303.4944715006277,None,return,4.776421003974974,303.5778462770395,None,,,,,,,,,,,,,,,,,,,,,,,,,,,,,,,,,,,,,,,162,001,2024_Feb_07_1401,SpeechDraft1Carolyn_lessNoise_PlusLocalization,2021.2.3,59.95299515384036,
rod.wav,rod.mpg,rod,1,A,Pink_Noise_1_1.wav,Pink_Noise_1_2.wav,,,,,,,,,,,,,,,0,47,47,44,,,,,,,,,,,,,,,,,,,,,,,308.37786190677434,None,309.8774254010059,None,311.261126013007,None,rod,311.261126013007,None,return,0.713782771024853,311.3444899627939,None,,,,,,,,,,,,,,,,,,,,,,,,,,,,,,,,,,,,,,,162,001,2024_Feb_07_1401,SpeechDraft1Carolyn_lessNoise_PlusLocalization,2021.2.3,59.95299515384036,
fresh.wav,fresh.mpg,fresh,5,AV,Pink_Noise_5_1.wav,Pink_Noise_5_2.wav,,,,,,,,,,,,,,,0,48,48,89,,,,,,,,,,,,,,,,,,,,,,,312.0779113089666,None,313.5940716830082,None,314.97784857079387,None,rush,314.97784857079387,None,return,0.757330110296607,315.0611576139927,None,,,,,,,,,,,,,,,,,,,,,,,,,,,,,,,,,,,,,,,162,001,2024_Feb_07_1401,SpeechDraft1Carolyn_lessNoise_PlusLocalization,2021.2.3,59.95299515384036,
vest.wav,vest.mpg,vest,1,A,Pink_Noise_1_1.wav,Pink_Noise_1_2.wav,,,,,,,,,,,,,,,0,49,49,59,,,,,,,,,,,,,,,,,,,,,,,315.8445297218859,None,317.3440361386165,None,318.7279142360203,None,vest,318.7279142360203,None,return,0.6953054699115455,318.81098822085187,None,,,,,,,,,,,,,,,,,,,,,,,,,,,,,,,,,,,,,,,162,001,2024_Feb_07_1401,SpeechDraft1Carolyn_lessNoise_PlusLocalization,2021.2.3,59.95299515384036,
bun.wav,bun.mpg,bun,1,AV,Pink_Noise_1_1.wav,Pink_Noise_1_2.wav,,,,,,,,,,,,,,,0,50,50,62,,,,,,,,,,,,,,,,,,,,,,,319.527917008847,None,321.0274219280109,None,322.4114252976142,None,"bun
",322.4114252976142,None,return,3.2516799182631075,322.49459650274366,None,,,,,,,,,,,,,,,,,,,,,,,,,,,,,,,,,,,,,,,162,001,2024_Feb_07_1401,SpeechDraft1Carolyn_lessNoise_PlusLocalization,2021.2.3,59.95299515384036,
green.wav,green.mpg,green,5,A,Pink_Noise_5_1.wav,Pink_Noise_5_2.wav,,,,,,,,,,,,,,,0,51,51,58,,,,,,,,,,,,,,,,,,,,,,,325.7778607509099,None,327.27743177488446,None,328.66127510461956,None,"?
",328.66127510461956,None,return,1.20178247615695,328.744510772638,None,,,,,,,,,,,,,,,,,,,,,,,,,,,,,,,,,,,,,,,162,001,2024_Feb_07_1401,SpeechDraft1Carolyn_lessNoise_PlusLocalization,2021.2.3,59.95299515384036,
dark.wav,dark.mpg,dark,2,AV,Pink_Noise_2_1.wav,Pink_Noise_2_2.wav,,,,,,,,,,,,,,,0,52,52,98,,,,,,,,,,,,,,,,,,,,,,,329.9778590546921,None,331.4941017027013,None,332.8777516898699,None,dark,332.8777516898699,None,return,1.025106952060014,332.96118771191686,None,,,,,,,,,,,,,,,,,,,,,,,,,,,,,,,,,,,,,,,162,001,2024_Feb_07_1401,SpeechDraft1Carolyn_lessNoise_PlusLocalization,2021.2.3,59.95299515384036,
broke.wav,broke.mpg,broke,4,A,Pink_Noise_4_1.wav,Pink_Noise_4_2.wav,,,,,,,,,,,,,,,0,53,53,57,,,,,,,,,,,,,,,,,,,,,,,334.01120595401153,None,335.51073198765516,None,336.89447233080864,None,rake,336.89447233080864,None,return,2.0405928678810596,336.9777937717736,None,,,,,,,,,,,,,,,,,,,,,,,,,,,,,,,,,,,,,,,162,001,2024_Feb_07_1401,SpeechDraft1Carolyn_lessNoise_PlusLocalization,2021.2.3,59.95299515384036,
fog.wav,fog.mpg,fog,4,A,Pink_Noise_4_1.wav,Pink_Noise_4_2.wav,,,,,,,,,,,,,,,0,54,54,2,,,,,,,,,,,,,,,,,,,,,,,339.0445213378407,None,340.5608000745997,None,341.9446701440029,None,"bun
",341.9446701440029,None,return,1.6703086756169796,342.02798262191936,None,,,,,,,,,,,,,,,,,,,,,,,,,,,,,,,,,,,,,,,162,001,2024_Feb_07_1401,SpeechDraft1Carolyn_lessNoise_PlusLocalization,2021.2.3,59.95299515384036,
gab.wav,gab.mpg,gab,1,A,Pink_Noise_1_1.wav,Pink_Noise_1_2.wav,,,,,,,,,,,,,,,0,55,55,39,,,,,,,,,,,,,,,,,,,,,,,343.72798297181726,None,345.22734259301797,None,346.61126894690096,None,gab,346.61126894690096,None,return,0.7158897272311151,346.69451280962676,None,,,,,,,,,,,,,,,,,,,,,,,,,,,,,,,,,,,,,,,162,001,2024_Feb_07_1401,SpeechDraft1Carolyn_lessNoise_PlusLocalization,2021.2.3,59.95299515384036,
curb.wav,curb.mpg,curb,5,A,Pink_Noise_5_1.wav,Pink_Noise_5_2.wav,,,,,,,,,,,,,,,0,56,56,14,,,,,,,,,,,,,,,,,,,,,,,347.4278423190117,None,348.9276178586297,None,350.3112037698738,None,code,350.3112037698738,None,return,0.815778851043433,350.3946073167026,None,,,,,,,,,,,,,,,,,,,,,,,,,,,,,,,,,,,,,,,162,001,2024_Feb_07_1401,SpeechDraft1Carolyn_lessNoise_PlusLocalization,2021.2.3,59.95299515384036,
dread.wav,dread.mpg,dread,5,A,Pink_Noise_5_1.wav,Pink_Noise_5_2.wav,,,,,,,,,,,,,,,0,57,57,3,,,,,,,,,,,,,,,,,,,,,,,351.22811497887596,None,352.72746996069327,None,354.11122013488784,None,"red
",354.11122013488784,None,return,0.9197411169297993,354.19453128566965,None,,,,,,,,,,,,,,,,,,,,,,,,,,,,,,,,,,,,,,,162,001,2024_Feb_07_1401,SpeechDraft1Carolyn_lessNoise_PlusLocalization,2021.2.3,59.95299515384036,
boost.wav,boost.mpg,boost,4,AV,Pink_Noise_4_1.wav,Pink_Noise_4_2.wav,,,,,,,,,,,,,,,0,58,58,68,,,,,,,,,,,,,,,,,,,,,,,355.14453357690945,None,356.7941287457943,None,358.1780073819682,None,boost,358.1780073819682,None,return,0.8209451022557914,358.2613380779512,None,,,,,,,,,,,,,,,,,,,,,,,,,,,,,,,,,,,,,,,162,001,2024_Feb_07_1401,SpeechDraft1Carolyn_lessNoise_PlusLocalization,2021.2.3,59.95299515384036,
gram.wav,gram.mpg,gram,2,A,Pink_Noise_2_1.wav,Pink_Noise_2_2.wav,,,,,,,,,,,,,,,0,59,59,35,,,,,,,,,,,,,,,,,,,,,,,359.11125713866204,None,360.6275468887761,None,362.0113272657618,None,gram,362.0113272657618,None,return,1.131914955098182,362.09446931583807,None,,,,,,,,,,,,,,,,,,,,,,,,,,,,,,,,,,,,,,,162,001,2024_Feb_07_1401,SpeechDraft1Carolyn_lessNoise_PlusLocalization,2021.2.3,59.95299515384036,
gum.wav,gum.mpg,gum,2,AV,Pink_Noise_2_1.wav,Pink_Noise_2_2.wav,,,,,,,,,,,,,,,0,60,60,76,,,,,,,,,,,,,,,,,,,,,,,363.2445749868639,None,364.7441895757802,None,366.12779152859,None,"gum
",366.12779152859,None,return,1.1510366098955274,366.2112493449822,None,,,,,,,,,,,,,,,,,,,,,,,,,,,,,,,,,,,,,,,162,001,2024_Feb_07_1401,SpeechDraft1Carolyn_lessNoise_PlusLocalization,2021.2.3,59.95299515384036,
clay.wav,clay.mpg,clay,6,AV,Pink_Noise_6_1.wav,Pink_Noise_6_2.wav,,,,,,,,,,,,,,,0,61,61,75,,,,,,,,,,,,,,,,,,,,,,,367.39450458902866,None,368.89421128388494,None,370.277949096635,None,den,370.277949096635,None,return,2.8652293467894197,370.36122127389535,None,,,,,,,,,,,,,,,,,,,,,,,,,,,,,,,,,,,,,,,162,001,2024_Feb_07_1401,SpeechDraft1Carolyn_lessNoise_PlusLocalization,2021.2.3,59.95299515384036,
booth.wav,booth.mpg,booth,3,A,Pink_Noise_3_1.wav,Pink_Noise_3_2.wav,,,,,,,,,,,,,,,0,62,62,16,,,,,,,,,,,,,,,,,,,,,,,373.2445211187005,None,374.7608045707457,None,376.1446958738379,None,booth,376.1446958738379,None,return,1.2943819109350443,376.2279213760048,None,,,,,,,,,,,,,,,,,,,,,,,,,,,,,,,,,,,,,,,162,001,2024_Feb_07_1401,SpeechDraft1Carolyn_lessNoise_PlusLocalization,2021.2.3,59.95299515384036,
bald.wav,bald.mpg,bald,3,A,Pink_Noise_3_1.wav,Pink_Noise_3_2.wav,,,,,,,,,,,,,,,0,63,63,27,,,,,,,,,,,,,,,,,,,,,,,377.5446662087925,None,379.0442297067493,None,380.42788491304964,None,"vault
",380.42788491304964,None,return,0.8350341180339456,380.51125063886866,None,,,,,,,,,,,,,,,,,,,,,,,,,,,,,,,,,,,,,,,162,001,2024_Feb_07_1401,SpeechDraft1Carolyn_lessNoise_PlusLocalization,2021.2.3,59.95299515384036,
fail.wav,fail.mpg,fail,6,AV,Pink_Noise_6_1.wav,Pink_Noise_6_2.wav,,,,,,,,,,,,,,,0,64,64,97,,,,,,,,,,,,,,,,,,,,,,,381.37788390973583,None,382.8777877627872,None,384.2611852097325,None,fail,384.2611852097325,None,return,8.04175753891468,384.34453797666356,None,,,,,,,,,,,,,,,,,,,,,,,,,,,,,,,,,,,,,,,162,001,2024_Feb_07_1401,SpeechDraft1Carolyn_lessNoise_PlusLocalization,2021.2.3,59.95299515384036,
club.wav,club.mpg,club,2,A,Pink_Noise_2_1.wav,Pink_Noise_2_2.wav,,,,,,,,,,,,,,,0,65,65,52,,,,,,,,,,,,,,,,,,,,,,,392.4112477088347,None,393.92762834904715,None,395.3113015387207,None,"club
",395.3113015387207,None,return,0.7197492681443691,395.39452762901783,None,,,,,,,,,,,,,,,,,,,,,,,,,,,,,,,,,,,,,,,162,001,2024_Feb_07_1401,SpeechDraft1Carolyn_lessNoise_PlusLocalization,2021.2.3,59.95299515384036,
crow.wav,crow.mpg,crow,5,AV,Pink_Noise_5_1.wav,Pink_Noise_5_2.wav,,,,,,,,,,,,,,,0,66,66,105,,,,,,,,,,,,,,,,,,,,,,,396.14460646687075,None,397.6442168499343,None,399.0279726777226,None,"crow
",399.0279726777226,None,return,0.7870340449735522,399.11127777583897,None,,,,,,,,,,,,,,,,,,,,,,,,,,,,,,,,,,,,,,,162,001,2024_Feb_07_1401,SpeechDraft1Carolyn_lessNoise_PlusLocalization,2021.2.3,59.95299515384036,
steam.wav,steam.mpg,steam,6,AV,Pink_Noise_6_1.wav,Pink_Noise_6_2.wav,,,,,,,,,,,,,,,0,67,67,88,,,,,,,,,,,,,,,,,,,,,,,399.9279498467222,None,401.444294848945,None,402.82789064664394,None,deep,402.82789064664394,None,return,1.0831507490947843,402.9112615166232,None,,,,,,,,,,,,,,,,,,,,,,,,,,,,,,,,,,,,,,,162,001,2024_Feb_07_1401,SpeechDraft1Carolyn_lessNoise_PlusLocalization,2021.2.3,59.95299515384036,
cook.wav,cook.mpg,cook,3,AV,Pink_Noise_3_1.wav,Pink_Noise_3_2.wav,,,,,,,,,,,,,,,0,68,68,63,,,,,,,,,,,,,,,,,,,,,,,404.0112629137002,None,405.5109112570062,None,406.894616631791,None,cook,406.894616631791,None,return,0.9603965599089861,406.9779091468081,None,,,,,,,,,,,,,,,,,,,,,,,,,,,,,,,,,,,,,,,162,001,2024_Feb_07_1401,SpeechDraft1Carolyn_lessNoise_PlusLocalization,2021.2.3,59.95299515384036,
two.wav,two.mpg,two,1,AV,Pink_Noise_1_1.wav,Pink_Noise_1_2.wav,,,,,,,,,,,,,,,0,69,69,109,,,,,,,,,,,,,,,,,,,,,,,407.9613074557856,None,409.4609084967524,None,410.84463566867635,None,two,410.84463566867635,None,return,0.8583095353096724,410.9280295218341,None,,,,,,,,,,,,,,,,,,,,,,,,,,,,,,,,,,,,,,,162,001,2024_Feb_07_1401,SpeechDraft1Carolyn_lessNoise_PlusLocalization,2021.2.3,59.95299515384036,
glow.wav,glow.mpg,glow,6,AV,Pink_Noise_6_1.wav,Pink_Noise_6_2.wav,,,,,,,,,,,,,,,0,70,70,86,,,,,,,,,,,,,,,,,,,,,,,411.81127187097445,None,413.31106179766357,None,414.6945992996916,None,glow,414.6945992996916,None,return,0.8324098871089518,414.7779606846161,None,,,,,,,,,,,,,,,,,,,,,,,,,,,,,,,,,,,,,,,162,001,2024_Feb_07_1401,SpeechDraft1Carolyn_lessNoise_PlusLocalization,2021.2.3,59.95299515384036,
book.wav,book.mpg,book,1,AV,Pink_Noise_1_1.wav,Pink_Noise_1_2.wav,,,,,,,,,,,,,,,0,71,71,73,,,,,,,,,,,,,,,,,,,,,,,415.6280101398006,None,417.12791868299246,None,418.51126062404364,None,book,418.51126062404364,None,return,2.199805251788348,418.59458942571655,None,,,,,,,,,,,,,,,,,,,,,,,,,,,,,,,,,,,,,,,162,001,2024_Feb_07_1401,SpeechDraft1Carolyn_lessNoise_PlusLocalization,2021.2.3,59.95299515384036,
wheat.wav,wheat.mpg,wheat,5,AV,Pink_Noise_5_1.wav,Pink_Noise_5_2.wav,,,,,,,,,,,,,,,0,72,72,102,,,,,,,,,,,,,,,,,,,,,,,420.8112919796258,None,422.3277314240113,None,423.7111889659427,None,yeast,423.7111889659427,None,return,2.8397969980724156,423.79463598970324,None,,,,,,,,,,,,,,,,,,,,,,,,,,,,,,,,,,,,,,,162,001,2024_Feb_07_1401,SpeechDraft1Carolyn_lessNoise_PlusLocalization,2021.2.3,59.95299515384036,
folk.wav,folk.mpg,folk,5,AV,Pink_Noise_5_1.wav,Pink_Noise_5_2.wav,,,,,,,,,,,,,,,0,73,73,91,,,,,,,,,,,,,,,,,,,,,,,426.66128926863894,None,428.1609758497216,None,429.5446414677426,None,fork,429.5446414677426,None,return,0.8942767539992929,429.62804455589503,None,,,,,,,,,,,,,,,,,,,,,,,,,,,,,,,,,,,,,,,162,001,2024_Feb_07_1401,SpeechDraft1Carolyn_lessNoise_PlusLocalization,2021.2.3,59.95299515384036,
slick.wav,slick.mpg,slick,5,A,Pink_Noise_5_1.wav,Pink_Noise_5_2.wav,,,,,,,,,,,,,,,0,74,74,5,,,,,,,,,,,,,,,,,,,,,,,430.54482208704576,None,432.06097380584106,None,433.44470720598474,None,swiss,433.44470720598474,None,return,1.4103972590528429,433.5279138828628,None,,,,,,,,,,,,,,,,,,,,,,,,,,,,,,,,,,,,,,,162,001,2024_Feb_07_1401,SpeechDraft1Carolyn_lessNoise_PlusLocalization,2021.2.3,59.95299515384036,
frame.wav,frame.mpg,frame,6,AV,Pink_Noise_6_1.wav,Pink_Noise_6_2.wav,,,,,,,,,,,,,,,0,75,75,115,,,,,,,,,,,,,,,,,,,,,,,434.96120486501604,None,436.4610916567035,None,437.8445843500085,None,"frame
",437.8445843500085,None,return,0.7701836498454213,437.9280991968699,None,,,,,,,,,,,,,,,,,,,,,,,,,,,,,,,,,,,,,,,162,001,2024_Feb_07_1401,SpeechDraft1Carolyn_lessNoise_PlusLocalization,2021.2.3,59.95299515384036,
clock.wav,clock.mpg,clock,5,A,Pink_Noise_5_1.wav,Pink_Noise_5_2.wav,,,,,,,,,,,,,,,0,76,76,41,,,,,,,,,,,,,,,,,,,,,,,438.72800851566717,None,440.2442043996416,None,441.62806083401665,None,grime,441.62806083401665,None,return,2.347038717009127,441.711326259654,None,,,,,,,,,,,,,,,,,,,,,,,,,,,,,,,,,,,,,,,162,001,2024_Feb_07_1401,SpeechDraft1Carolyn_lessNoise_PlusLocalization,2021.2.3,59.95299515384036,
freak.wav,freak.mpg,freak,3,AV,Pink_Noise_3_1.wav,Pink_Noise_3_2.wav,,,,,,,,,,,,,,,0,77,77,116,,,,,,,,,,,,,,,,,,,,,,,444.07802430167794,None,445.57759250700474,None,446.9612846369855,None,"freak
",446.9612846369855,None,return,0.6695531639270484,447.04473559278995,None,,,,,,,,,,,,,,,,,,,,,,,,,,,,,,,,,,,,,,,162,001,2024_Feb_07_1401,SpeechDraft1Carolyn_lessNoise_PlusLocalization,2021.2.3,59.95299515384036,
fall.wav,fall.mpg,fall,4,AV,Pink_Noise_4_1.wav,Pink_Noise_4_2.wav,,,,,,,,,,,,,,,0,78,78,108,,,,,,,,,,,,,,,,,,,,,,,447.7614625347778,None,449.2777389418334,None,450.66131058568135,None,fall,450.66131058568135,None,return,1.0576007482595742,450.7447599787265,None,,,,,,,,,,,,,,,,,,,,,,,,,,,,,,,,,,,,,,,162,001,2024_Feb_07_1401,SpeechDraft1Carolyn_lessNoise_PlusLocalization,2021.2.3,59.95299515384036,
stuck.wav,stuck.mpg,stuck,4,A,Pink_Noise_4_1.wav,Pink_Noise_4_2.wav,,,,,,,,,,,,,,,0,79,79,47,,,,,,,,,,,,,,,,,,,,,,,451.82805757271126,None,453.3281496586278,None,454.7114748759195,None,stuck,454.7114748759195,None,return,0.6797478287480772,454.79460232984275,None,,,,,,,,,,,,,,,,,,,,,,,,,,,,,,,,,,,,,,,162,001,2024_Feb_07_1401,SpeechDraft1Carolyn_lessNoise_PlusLocalization,2021.2.3,59.95299515384036,
led.wav,led.mpg,led,4,A,Pink_Noise_4_1.wav,Pink_Noise_4_2.wav,,,,,,,,,,,,,,,0,80,80,42,,,,,,,,,,,,,,,,,,,,,,,455.4947498096153,None,456.99443865194917,None,458.37798452796414,None,night,458.37798452796414,None,return,2.692976664751768,458.46133357891813,None,,,,,,,,,,,,,,,,,,,,,,,,,,,,,,,,,,,,,,,162,001,2024_Feb_07_1401,SpeechDraft1Carolyn_lessNoise_PlusLocalization,2021.2.3,59.95299515384036,
strike.wav,strike.mpg,strike,1,A,Pink_Noise_1_1.wav,Pink_Noise_1_2.wav,,,,,,,,,,,,,,,0,81,81,21,,,,,,,,,,,,,,,,,,,,,,,461.17791505204514,None,462.6943323407322,None,464.078327529598,None,strike,464.078327529598,None,return,0.7610151642002165,464.16127055184916,None,,,,,,,,,,,,,,,,,,,,,,,,,,,,,,,,,,,,,,,162,001,2024_Feb_07_1401,SpeechDraft1Carolyn_lessNoise_PlusLocalization,2021.2.3,59.95299515384036,
fad.wav,fad.mpg,fad,6,A,Pink_Noise_6_1.wav,Pink_Noise_6_2.wav,,,,,,,,,,,,,,,0,82,82,0,,,,,,,,,,,,,,,,,,,,,,,464.9446659279056,None,466.44560745498165,None,467.82809339184314,None,loud,467.82809339184314,None,return,0.9231818499974906,467.9113840749487,None,,,,,,,,,,,,,,,,,,,,,,,,,,,,,,,,,,,,,,,162,001,2024_Feb_07_1401,SpeechDraft1Carolyn_lessNoise_PlusLocalization,2021.2.3,59.95299515384036,
built.wav,built.mpg,built,6,AV,Pink_Noise_6_1.wav,Pink_Noise_6_2.wav,,,,,,,,,,,,,,,0,83,83,74,,,,,,,,,,,,,,,,,,,,,,,468.8613555277698,None,470.37770616961643,None,471.7613909766078,None,"?
",471.7613909766078,None,return,1.853479330893606,471.84476887760684,None,,,,,,,,,,,,,,,,,,,,,,,,,,,,,,,,,,,,,,,162,001,2024_Feb_07_1401,SpeechDraft1Carolyn_lessNoise_PlusLocalization,2021.2.3,59.95299515384036,
ham.wav,ham.mpg,ham,1,AV,Pink_Noise_1_1.wav,Pink_Noise_1_2.wav,,,,,,,,,,,,,,,0,84,84,72,,,,,,,,,,,,,,,,,,,,,,,473.7280591316521,None,475.2276398157701,None,476.6113495687023,None,ham,476.6113495687023,None,return,0.6915650339797139,476.69470417592674,None,,,,,,,,,,,,,,,,,,,,,,,,,,,,,,,,,,,,,,,162,001,2024_Feb_07_1401,SpeechDraft1Carolyn_lessNoise_PlusLocalization,2021.2.3,59.95299515384036,
fetch.wav,fetch.mpg,fetch,6,A,Pink_Noise_6_1.wav,Pink_Noise_6_2.wav,,,,,,,,,,,,,,,0,85,85,33,,,,,,,,,,,,,,,,,,,,,,,477.41139897471294,None,478.92765286704525,None,480.3113887109794,None,"dutch
",480.3113887109794,None,return,0.9515270991250873,480.39474669098854,None,,,,,,,,,,,,,,,,,,,,,,,,,,,,,,,,,,,,,,,162,001,2024_Feb_07_1401,SpeechDraft1Carolyn_lessNoise_PlusLocalization,2021.2.3,59.95299515384036,
flex.wav,flex.mpg,flex,1,AV,Pink_Noise_1_1.wav,Pink_Noise_1_2.wav,,,,,,,,,,,,,,,0,86,86,69,,,,,,,,,,,,,,,,,,,,,,,481.3780445898883,None,482.8778526978567,None,484.2613993086852,None,flex,484.2613993086852,None,return,0.5776841347105801,484.3445937349461,None,,,,,,,,,,,,,,,,,,,,,,,,,,,,,,,,,,,,,,,162,001,2024_Feb_07_1401,SpeechDraft1Carolyn_lessNoise_PlusLocalization,2021.2.3,59.95299515384036,
groan.wav,groan.mpg,groan,3,A,Pink_Noise_3_1.wav,Pink_Noise_3_2.wav,,,,,,,,,,,,,,,0,87,87,48,,,,,,,,,,,,,,,,,,,,,,,484.945019505918,None,486.44533482473344,None,487.82812766870484,None,grown,487.82812766870484,None,return,4.154859185684472,487.91141449986026,None,,,,,,,,,,,,,,,,,,,,,,,,,,,,,,,,,,,,,,,162,001,2024_Feb_07_1401,SpeechDraft1Carolyn_lessNoise_PlusLocalization,2021.2.3,59.95299515384036,
script.wav,script.mpg,script,5,AV,Pink_Noise_5_1.wav,Pink_Noise_5_2.wav,,,,,,,,,,,,,,,0,88,88,107,,,,,,,,,,,,,,,,,,,,,,,492.09463261161,None,493.6109646069817,None,494.99466376472265,None,stripped,494.99466376472265,None,return,1.7963478253223002,495.0780936018564,None,,,,,,,,,,,,,,,,,,,,,,,,,,,,,,,,,,,,,,,162,001,2024_Feb_07_1401,SpeechDraft1Carolyn_lessNoise_PlusLocalization,2021.2.3,59.95299515384036,
blow.wav,blow.mpg,blow,3,AV,Pink_Noise_3_1.wav,Pink_Noise_3_2.wav,,,,,,,,,,,,,,,0,89,89,96,,,,,,,,,,,,,,,,,,,,,,,496.8947607767768,None,498.411056377925,None,499.7946651629172,None,blow,499.7946651629172,None,return,0.6282833721488714,499.8780040796846,None,,,,,,,,,,,,,,,,,,,,,,,,,,,,,,,,,,,,,,,162,001,2024_Feb_07_1401,SpeechDraft1Carolyn_lessNoise_PlusLocalization,2021.2.3,59.95299515384036,
eve.wav,eve.mpg,eve,2,A,Pink_Noise_2_1.wav,Pink_Noise_2_2.wav,,,,,,,,,,,,,,,0,90,90,53,,,,,,,,,,,,,,,,,,,,,,,500.5280325836502,None,502.0443052528426,None,503.41143883997574,None,eve,503.41143883997574,None,return,1.355626936070621,503.49476249469444,None,,,,,,,,,,,,,,,,,,,,,,,,,,,,,,,,,,,,,,,162,001,2024_Feb_07_1401,SpeechDraft1Carolyn_lessNoise_PlusLocalization,2021.2.3,59.95299515384036,
stain.wav,stain.mpg,stain,6,AV,Pink_Noise_6_1.wav,Pink_Noise_6_2.wav,,,,,,,,,,,,,,,0,91,91,111,,,,,,,,,,,,,,,,,,,,,,,504.8780341097154,None,506.3944935547188,None,507.7798145059496,None,stay,507.7798145059496,None,return,0.5809982940554619,507.8612884776667,None,,,,,,,,,,,,,,,,,,,,,,,,,,,,,,,,,,,,,,,162,001,2024_Feb_07_1401,SpeechDraft1Carolyn_lessNoise_PlusLocalization,2021.2.3,59.95299515384036,
bound.wav,bound.mpg,bound,2,AV,Pink_Noise_2_1.wav,Pink_Noise_2_2.wav,,,,,,,,,,,,,,,0,92,92,60,,,,,,,,,,,,,,,,,,,,,,,508.4613984320313,None,509.9777866587974,None,511.3614742658101,None,bound,511.3614742658101,None,return,0.7898020651191473,511.44472702685744,None,,,,,,,,,,,,,,,,,,,,,,,,,,,,,,,,,,,,,,,162,001,2024_Feb_07_1401,SpeechDraft1Carolyn_lessNoise_PlusLocalization,2021.2.3,59.95299515384036,
care.wav,care.mpg,care,6,A,Pink_Noise_6_1.wav,Pink_Noise_6_2.wav,,,,,,,,,,,,,,,0,93,93,28,,,,,,,,,,,,,,,,,,,,,,,512.2614896376617,None,513.762333414983,None,515.1448460058309,None,?,515.1448460058309,None,return,0.6383823659271002,515.2280236389488,None,,,,,,,,,,,,,,,,,,,,,,,,,,,,,,,,,,,,,,,162,001,2024_Feb_07_1401,SpeechDraft1Carolyn_lessNoise_PlusLocalization,2021.2.3,59.95299515384036,
dice.wav,dice.mpg,dice,5,AV,Pink_Noise_5_1.wav,Pink_Noise_5_2.wav,,,,,,,,,,,,,,,0,94,94,80,,,,,,,,,,,,,,,,,,,,,,,515.8948375736363,None,517.4110784078948,None,518.7947515835986,None,dunce,518.7947515835986,None,return,2.572160366922617,518.8782179616392,None,,,,,,,,,,,,,,,,,,,,,,,,,,,,,,,,,,,,,,,162,001,2024_Feb_07_1401,SpeechDraft1Carolyn_lessNoise_PlusLocalization,2021.2.3,59.95299515384036,
mold.wav,mold.mpg,mold,1,AV,Pink_Noise_1_1.wav,Pink_Noise_1_2.wav,,,,,,,,,,,,,,,0,95,95,85,,,,,,,,,,,,,,,,,,,,,,,521.47820480261,None,522.9944226336665,None,524.3782006800175,None,bald,524.3782006800175,None,return,4.092824100051075,524.4614470195957,None,,,,,,,,,,,,,,,,,,,,,,,,,,,,,,,,,,,,,,,162,001,2024_Feb_07_1401,SpeechDraft1Carolyn_lessNoise_PlusLocalization,2021.2.3,59.95299515384036,
clash.wav,clash.mpg,clash,2,AV,Pink_Noise_2_1.wav,Pink_Noise_2_2.wav,,,,,,,,,,,,,,,0,96,96,71,,,,,,,,,,,,,,,,,,,,,,,528.5781078189611,None,530.0791061068885,None,531.4614692637697,None,"clash
",531.4614692637697,None,return,0.6335732080042362,531.5447212290019,None,,,,,,,,,,,,,,,,,,,,,,,,,,,,,,,,,,,,,,,162,001,2024_Feb_07_1401,SpeechDraft1Carolyn_lessNoise_PlusLocalization,2021.2.3,59.95299515384036,
cuff.wav,cuff.mpg,cuff,4,AV,Pink_Noise_4_1.wav,Pink_Noise_4_2.wav,,,,,,,,,,,,,,,0,97,97,112,,,,,,,,,,,,,,,,,,,,,,,532.2114275358617,None,533.7277938919142,None,535.1113237296231,None,cuff,535.1113237296231,None,return,0.7434938778169453,535.1947842277586,None,,,,,,,,,,,,,,,,,,,,,,,,,,,,,,,,,,,,,,,162,001,2024_Feb_07_1401,SpeechDraft1Carolyn_lessNoise_PlusLocalization,2021.2.3,59.95299515384036,
crane.wav,crane.mpg,crane,6,A,Pink_Noise_6_1.wav,Pink_Noise_6_2.wav,,,,,,,,,,,,,,,0,98,98,50,,,,,,,,,,,,,,,,,,,,,,,535.9614800629206,None,537.4777557686903,None,538.8613189118914,None,?,538.8613189118914,None,return,2.4415562320500612,538.9447613167576,None,,,,,,,,,,,,,,,,,,,,,,,,,,,,,,,,,,,,,,,162,001,2024_Feb_07_1401,SpeechDraft1Carolyn_lessNoise_PlusLocalization,2021.2.3,59.95299515384036,
broil.wav,broil.mpg,broil,3,A,Pink_Noise_3_1.wav,Pink_Noise_3_2.wav,,,,,,,,,,,,,,,0,99,99,20,,,,,,,,,,,,,,,,,,,,,,,541.4114521760494,None,542.9278333857656,None,544.3114494769834,None,broil,544.3114494769834,None,return,1.0474148797802627,544.3949102708139,None,,,,,,,,,,,,,,,,,,,,,,,,,,,,,,,,,,,,,,,162,001,2024_Feb_07_1401,SpeechDraft1Carolyn_lessNoise_PlusLocalization,2021.2.3,59.95299515384036,
beach.wav,beach.mpg,beach,5,A,Pink_Noise_5_1.wav,Pink_Noise_5_2.wav,,,,,,,,,,,,,,,0,100,100,12,,,,,,,,,,,,,,,,,,,,,,,545.4614833048545,None,546.977660279721,None,548.3615231169388,None,witch,548.3615231169388,None,return,9.725503611844033,548.4447699990124,None,,,,,,,,,,,,,,,,,,,,,,,,,,,,,,,,,,,,,,,162,001,2024_Feb_07_1401,SpeechDraft1Carolyn_lessNoise_PlusLocalization,2021.2.3,59.95299515384036,
frog.wav,frog.mpg,frog,2,AV,Pink_Noise_2_1.wav,Pink_Noise_2_2.wav,,,,,,,,,,,,,,,0,101,101,66,,,,,,,,,,,,,,,,,,,,,,,558.1948779886588,None,559.711187700741,None,561.094919223804,None,"frog
",561.094919223804,None,return,2.2000908297486603,561.1781770857051,None,,,,,,,,,,,,,,,,,,,,,,,,,,,,,,,,,,,,,,,162,001,2024_Feb_07_1401,SpeechDraft1Carolyn_lessNoise_PlusLocalization,2021.2.3,59.95299515384036,
flank.wav,flank.mpg,flank,3,AV,Pink_Noise_3_1.wav,Pink_Noise_3_2.wav,,,,,,,,,,,,,,,0,102,102,99,,,,,,,,,,,,,,,,,,,,,,,563.4114716788754,None,564.9278543270193,None,566.3114986796863,None,flank,566.3114986796863,None,return,0.8637152751907706,566.3947261879221,None,,,,,,,,,,,,,,,,,,,,,,,,,,,,,,,,,,,,,,,162,001,2024_Feb_07_1401,SpeechDraft1Carolyn_lessNoise_PlusLocalization,2021.2.3,59.95299515384036,
cure.wav,cure.mpg,cure,5,A,Pink_Noise_5_1.wav,Pink_Noise_5_2.wav,,,,,,,,,,,,,,,0,103,103,54,,,,,,,,,,,,,,,,,,,,,,,567.2782178809866,None,568.7944163507782,None,570.1781168966554,None,muir,570.1781168966554,None,return,4.5648864191025496,570.2614909927361,None,,,,,,,,,,,,,,,,,,,,,,,,,,,,,,,,,,,,,,,162,001,2024_Feb_07_1401,SpeechDraft1Carolyn_lessNoise_PlusLocalization,2021.2.3,59.95299515384036,
ball.wav,ball.mpg,ball,4,AV,Pink_Noise_4_1.wav,Pink_Noise_4_2.wav,,,,,,,,,,,,,,,0,104,104,90,,,,,,,,,,,,,,,,,,,,,,,574.8448834479786,None,576.3611861788668,None,577.7448041648604,None,"ball
",577.7448041648604,None,return,0.5180963352322578,577.8281699647196,None,,,,,,,,,,,,,,,,,,,,,,,,,,,,,,,,,,,,,,,162,001,2024_Feb_07_1401,SpeechDraft1Carolyn_lessNoise_PlusLocalization,2021.2.3,59.95299515384036,
bill.wav,bill.mpg,bill,4,A,Pink_Noise_4_1.wav,Pink_Noise_4_2.wav,,,,,,,,,,,,,,,0,105,105,13,,,,,,,,,,,,,,,,,,,,,,,578.3782242769375,None,579.8945086207241,None,581.2782406685874,None,"built
",581.2782406685874,None,return,1.4008343401364982,581.3614944820292,None,,,,,,,,,,,,,,,,,,,,,,,,,,,,,,,,,,,,,,,162,001,2024_Feb_07_1401,SpeechDraft1Carolyn_lessNoise_PlusLocalization,2021.2.3,59.95299515384036,
swamp.wav,swamp.mpg,swamp,3,A,Pink_Noise_3_1.wav,Pink_Noise_3_2.wav,,,,,,,,,,,,,,,0,106,106,40,,,,,,,,,,,,,,,,,,,,,,,582.7948055607267,None,584.3111334457062,None,585.6949841976166,None,swamp,585.6949841976166,None,return,3.696001931093633,585.7783258748241,None,,,,,,,,,,,,,,,,,,,,,,,,,,,,,,,,,,,,,,,162,001,2024_Feb_07_1401,SpeechDraft1Carolyn_lessNoise_PlusLocalization,2021.2.3,59.95299515384036,
cart.wav,cart.mpg,cart,3,A,Pink_Noise_3_1.wav,Pink_Noise_3_2.wav,,,,,,,,,,,,,,,0,107,107,23,,,,,,,,,,,,,,,,,,,,,,,589.494841338601,None,591.011166093871,None,592.3948314739391,None,cart,592.3948314739391,None,return,1.6600794713012874,592.4781907820143,None,,,,,,,,,,,,,,,,,,,,,,,,,,,,,,,,,,,,,,,162,001,2024_Feb_07_1401,SpeechDraft1Carolyn_lessNoise_PlusLocalization,2021.2.3,59.95299515384036,
creek.wav,creek.mpg,creek,3,AV,Pink_Noise_3_1.wav,Pink_Noise_3_2.wav,,,,,,,,,,,,,,,0,108,108,87,,,,,,,,,,,,,,,,,,,,,,,594.161597635597,None,595.6777407126501,None,597.0613959818147,None,creek,597.0613959818147,None,return,1.1373842898756266,597.144912013784,None,,,,,,,,,,,,,,,,,,,,,,,,,,,,,,,,,,,,,,,162,001,2024_Feb_07_1401,SpeechDraft1Carolyn_lessNoise_PlusLocalization,2021.2.3,59.95299515384036,
dive.wav,dive.mpg,dive,2,A,Pink_Noise_2_1.wav,Pink_Noise_2_2.wav,,,,,,,,,,,,,,,0,109,109,6,,,,,,,,,,,,,,,,,,,,,,,598.3114782399498,None,599.8278426486067,None,601.2116060978733,None,died,601.2116060978733,None,return,1.4434174639172852,601.2948807268403,None,,,,,,,,,,,,,,,,,,,,,,,,,,,,,,,,,,,,,,,162,001,2024_Feb_07_1401,SpeechDraft1Carolyn_lessNoise_PlusLocalization,2021.2.3,59.95299515384036,
row.wav,row.mpg,row,4,AV,Pink_Noise_4_1.wav,Pink_Noise_4_2.wav,,,,,,,,,,,,,,,0,110,110,70,,,,,,,,,,,,,,,,,,,,,,,602.7615164848976,None,604.2778111277148,None,605.6617012727074,None,rowq,605.6617012727074,None,return,0.7134132380597293,605.744927871041,None,,,,,,,,,,,,,,,,,,,,,,,,,,,,,,,,,,,,,,,162,001,2024_Feb_07_1401,SpeechDraft1Carolyn_lessNoise_PlusLocalization,2021.2.3,59.95299515384036,
bug.wav,bug.mpg,bug,6,AV,Pink_Noise_6_1.wav,Pink_Noise_6_2.wav,,,,,,,,,,,,,,,0,111,111,103,,,,,,,,,,,,,,,,,,,,,,,606.4782177088782,None,607.9946236186661,None,609.3782956888899,None,muck,609.3782956888899,None,return,1.2287279777228832,609.4615840469487,None,,,,,,,,,,,,,,,,,,,,,,,,,,,,,,,,,,,,,,,162,001,2024_Feb_07_1401,SpeechDraft1Carolyn_lessNoise_PlusLocalization,2021.2.3,59.95299515384036,
floor.wav,floor.mpg,floor,1,A,Pink_Noise_1_1.wav,Pink_Noise_1_2.wav,,,,,,,,,,,,,,,0,112,112,29,,,,,,,,,,,,,,,,,,,,,,,610.7116922270507,None,612.2279047570191,None,613.611469104886,None,"floor
",613.611469104886,None,return,3.0192998498678207,613.694989984855,None,,,,,,,,,,,,,,,,,,,,,,,,,,,,,,,,,,,,,,,162,001,2024_Feb_07_1401,SpeechDraft1Carolyn_lessNoise_PlusLocalization,2021.2.3,59.95299515384036,
fable.wav,fable.mpg,fable,5,AV,Pink_Noise_5_1.wav,Pink_Noise_5_2.wav,,,,,,,,,,,,,,,0,113,113,118,,,,,,,,,,,,,,,,,,,,,,,616.7450088849291,None,618.2613389226608,None,619.6451844708063,None,fable,619.6451844708063,None,return,0.9062036322429776,619.7282581236213,None,,,,,,,,,,,,,,,,,,,,,,,,,,,,,,,,,,,,,,,162,001,2024_Feb_07_1401,SpeechDraft1Carolyn_lessNoise_PlusLocalization,2021.2.3,59.95299515384036,
cough.wav,cough.mpg,cough,3,A,Pink_Noise_3_1.wav,Pink_Noise_3_2.wav,,,,,,,,,,,,,,,0,114,114,19,,,,,,,,,,,,,,,,,,,,,,,620.6617090418003,None,622.1777984509245,None,623.5616004066542,None,cough,623.5616004066542,None,return,1.44533262681216,623.644948235713,None,,,,,,,,,,,,,,,,,,,,,,,,,,,,,,,,,,,,,,,162,001,2024_Feb_07_1401,SpeechDraft1Carolyn_lessNoise_PlusLocalization,2021.2.3,59.95299515384036,
fast.wav,fast.mpg,fast,1,A,Pink_Noise_1_1.wav,Pink_Noise_1_2.wav,,,,,,,,,,,,,,,0,115,115,49,,,,,,,,,,,,,,,,,,,,,,,625.1114907227457,None,626.627863754984,None,628.0116161839105,None,"fast
",628.0116161839105,None,return,1.0033205971121788,628.0949567658827,None,,,,,,,,,,,,,,,,,,,,,,,,,,,,,,,,,,,,,,,162,001,2024_Feb_07_1401,SpeechDraft1Carolyn_lessNoise_PlusLocalization,2021.2.3,59.95299515384036,
fifth.wav,fifth.mpg,fifth,4,AV,Pink_Noise_4_1.wav,Pink_Noise_4_2.wav,,,,,,,,,,,,,,,0,116,116,119,,,,,,,,,,,,,,,,,,,,,,,629.1282555637881,None,630.6444663959555,None,632.0282511790283,None,fifth,632.0282511790283,None,return,1.066682102624327,632.1116588129662,None,,,,,,,,,,,,,,,,,,,,,,,,,,,,,,,,,,,,,,,162,001,2024_Feb_07_1401,SpeechDraft1Carolyn_lessNoise_PlusLocalization,2021.2.3,59.95299515384036,
fond.wav,fond.mpg,fond,3,AV,Pink_Noise_3_1.wav,Pink_Noise_3_2.wav,,,,,,,,,,,,,,,0,117,117,110,,,,,,,,,,,,,,,,,,,,,,,633.1949017578736,None,634.7111028619111,None,636.0950934947468,None,find,636.0950934947468,None,return,1.232179774902761,636.1782623608597,None,,,,,,,,,,,,,,,,,,,,,,,,,,,,,,,,,,,,,,,162,001,2024_Feb_07_1401,SpeechDraft1Carolyn_lessNoise_PlusLocalization,2021.2.3,59.95299515384036,
layer.wav,layer.mpg,layer,6,A,Pink_Noise_6_1.wav,Pink_Noise_6_2.wav,,,,,,,,,,,,,,,0,118,118,8,,,,,,,,,,,,,,,,,,,,,,,637.4283055048436,None,638.9446033169515,None,640.3283708868548,None,?,640.3283708868548,None,return,0.5747221931815147,640.4115509819239,None,,,,,,,,,,,,,,,,,,,,,,,,,,,,,,,,,,,,,,,162,001,2024_Feb_07_1401,SpeechDraft1Carolyn_lessNoise_PlusLocalization,2021.2.3,59.95299515384036,
stone.wav,stone.mpg,stone,1,A,Pink_Noise_1_1.wav,Pink_Noise_1_2.wav,,,,,,,,,,,,,,,0,119,119,31,,,,,,,,,,,,,,,,,,,,,,,641.0116598056629,None,642.5278626056388,None,643.9118021200411,None,"stow
",643.9118021200411,None,return,1.5032849060371518,643.9949897476472,None,,,,,,,,,,,,,,,,,,,,,,,,,,,,,,,,,,,,,,,162,001,2024_Feb_07_1401,SpeechDraft1Carolyn_lessNoise_PlusLocalization,2021.2.3,59.95299515384036,
,,,,,,,,,,,,,,,,,,,,,,,,,,,,,,,,,,,,,,,,,,,,,,,,,,,,,,,,,,,,,,,,,,space,22.32657867576927,645.6117212679237,None,,,,,,,,,,,,,,,,,,,,,,,,,,,,,162,001,2024_Feb_07_1401,SpeechDraft1Carolyn_lessNoise_PlusLocalization,2021.2.3,59.95299515384036,
,,,,,,,,farLeft,-19.1,5,ch1Sound_localizationTask.wav,-19.1,"(667, 878)","(-293,-202)",-285,-338,,,,,,,,,0,0,0,0,,,,,,,,,,,,,,,,,,,,,,,,,,,,,,,,,,,,,,,,,,645.6117212679237,None,667.978105823975,None,669.0782694527879,None,670.0113105536439,None,1.2306878306878306,2.9352648267522454,670.0113105536439,None,,,,,,,,,,,,,,,,,162,001,2024_Feb_07_1401,SpeechDraft1Carolyn_lessNoise_PlusLocalization,2021.2.3,59.95299515384036,
,,,,,,,,center,0.0,6,ch1Sound_localizationTask.wav,0.0,"(952, 878)","(-8,-202)",0,-338,,,,,,,,,0,1,1,3,,,,,,,,,,,,,,,,,,,,,,,,,,,,,,,,,,,,,,,,,,,,672.945947302971,None,674.0447381739505,None,674.9780480009504,None,1.5629629629629629,1.4836293309926987,674.9780480009504,None,,,,,,,,,,,,,,,,,162,001,2024_Feb_07_1401,SpeechDraft1Carolyn_lessNoise_PlusLocalization,2021.2.3,59.95299515384036,
,,,,,,,,farRight,19.1,4,ch1Sound_localizationTask.wav,19.1,"(1237, 878)","(277,-202)",285,-338,,,,,,,,,0,2,2,6,,,,,,,,,,,,,,,,,,,,,,,,,,,,,,,,,,,,,,,,,,,,676.4782190378755,None,677.578042529989,None,678.5115483347327,None,1.8111111111111111,0.8659461648203433,678.5115483347327,None,,,,,,,,,,,,,,,,,162,001,2024_Feb_07_1401,SpeechDraft1Carolyn_lessNoise_PlusLocalization,2021.2.3,59.95299515384036,
,,,,,,,,center,0.0,6,ch1Sound_localizationTask.wav,0.0,"(952, 878)","(-8,-202)",0,-338,,,,,,,,,0,3,3,3,,,,,,,,,,,,,,,,,,,,,,,,,,,,,,,,,,,,,,,,,,,,679.3789908760227,None,680.4780486780219,None,681.4113260167651,None,1.4867724867724867,0.9669546722434461,681.4113260167651,None,,,,,,,,,,,,,,,,,162,001,2024_Feb_07_1401,SpeechDraft1Carolyn_lessNoise_PlusLocalization,2021.2.3,59.95299515384036,
,,,,,,,,nearRight,6.5,0,ch1Sound_localizationTask.wav,6.5,"(1047, 878)","(87, -202)",95,-338,,,,,,,,,0,4,4,4,,,,,,,,,,,,,,,,,,,,,,,,,,,,,,,,,,,,,,,,,,,,682.3950007967651,None,683.4947355147451,None,684.4279940128326,None,1.529100529100529,0.5324371559545398,684.4279940128326,None,,,,,,,,,,,,,,,,,162,001,2024_Feb_07_1401,SpeechDraft1Carolyn_lessNoise_PlusLocalization,2021.2.3,59.95299515384036,
,,,,,,,,farRight,19.1,4,ch1Sound_localizationTask.wav,19.1,"(1237, 878)","(277,-202)",285,-338,,,,,,,,,0,5,5,6,,,,,,,,,,,,,,,,,,,,,,,,,,,,,,,,,,,,,,,,,,,,684.9623973318376,None,686.0613549440168,None,686.9945102757774,None,1.7486772486772486,0.9661455587483943,686.9945102757774,None,,,,,,,,,,,,,,,,,162,001,2024_Feb_07_1401,SpeechDraft1Carolyn_lessNoise_PlusLocalization,2021.2.3,59.95299515384036,
,,,,,,,,nearRight,6.5,0,ch1Sound_localizationTask.wav,6.5,"(1047, 878)","(87, -202)",95,-338,,,,,,,,,0,6,6,4,,,,,,,,,,,,,,,,,,,,,,,,,,,,,,,,,,,,,,,,,,,,687.9626687266864,None,689.078154831659,None,689.9946813159622,None,1.528042328042328,0.8837020481005311,689.9946813159622,None,,,,,,,,,,,,,,,,,162,001,2024_Feb_07_1401,SpeechDraft1Carolyn_lessNoise_PlusLocalization,2021.2.3,59.95299515384036,
,,,,,,,,center,0.0,6,ch1Sound_localizationTask.wav,0.0,"(952, 878)","(-8,-202)",0,-338,,,,,,,,,1,0,7,3,,,,,,,,,,,,,,,,,,,,,,,,,,,,,,,,,,,,,,,,,,,,690.8949918048456,None,691.9948401818983,None,692.9280512006953,None,1.5052910052910053,0.4660677956417203,692.9280512006953,None,,,,,,,,,,,,,,,,,162,001,2024_Feb_07_1401,SpeechDraft1Carolyn_lessNoise_PlusLocalization,2021.2.3,59.95299515384036,
,,,,,,,,midLeft,-13.0,2,ch1Sound_localizationTask.wav,-13.0,"(762, 878)","(-198,-202)",-190,-338,,,,,,,,,1,1,8,1,,,,,,,,,,,,,,,,,,,,,,,,,,,,,,,,,,,,,,,,,,,,693.4117140248418,None,694.5114995986223,None,695.444552228786,None,1.3264550264550263,0.5007554348558187,695.444552228786,None,,,,,,,,,,,,,,,,,162,001,2024_Feb_07_1401,SpeechDraft1Carolyn_lessNoise_PlusLocalization,2021.2.3,59.95299515384036,
,,,,,,,,midLeft,-13.0,2,ch1Sound_localizationTask.wav,-13.0,"(762, 878)","(-198,-202)",-190,-338,,,,,,,,,1,2,9,1,,,,,,,,,,,,,,,,,,,,,,,,,,,,,,,,,,,,,,,,,,,,695.9616590496153,None,697.0612967167981,None,697.9948225277476,None,1.2740740740740741,0.4670255798846483,697.9948225277476,None,,,,,,,,,,,,,,,,,162,001,2024_Feb_07_1401,SpeechDraft1Carolyn_lessNoise_PlusLocalization,2021.2.3,59.95299515384036,
,,,,,,,,midRight,13.0,3,ch1Sound_localizationTask.wav,13.0,"(1142, 878)","(182, -202)",190,-338,,,,,,,,,1,3,10,5,,,,,,,,,,,,,,,,,,,,,,,,,,,,,,,,,,,,,,,,,,,,698.4634788916446,None,699.5783070228063,None,700.4946355517022,None,1.765079365079365,1.1657967041246593,700.4946355517022,None,,,,,,,,,,,,,,,,,162,001,2024_Feb_07_1401,SpeechDraft1Carolyn_lessNoise_PlusLocalization,2021.2.3,59.95299515384036,
,,,,,,,,nearRight,6.5,0,ch1Sound_localizationTask.wav,6.5,"(1047, 878)","(87, -202)",95,-338,,,,,,,,,1,4,11,4,,,,,,,,,,,,,,,,,,,,,,,,,,,,,,,,,,,,,,,,,,,,701.662189074792,None,702.7614219007082,None,703.6947418018244,None,1.5904761904761906,0.6170378960669041,703.6947418018244,None,,,,,,,,,,,,,,,,,162,001,2024_Feb_07_1401,SpeechDraft1Carolyn_lessNoise_PlusLocalization,2021.2.3,59.95299515384036,
,,,,,,,,midRight,13.0,3,ch1Sound_localizationTask.wav,13.0,"(1142, 878)","(182, -202)",190,-338,,,,,,,,,1,5,12,5,,,,,,,,,,,,,,,,,,,,,,,,,,,,,,,,,,,,,,,,,,,,704.3282620278187,None,705.427993980702,None,706.3615205297247,None,1.6936507936507936,0.9322269740514457,706.3615205297247,None,,,,,,,,,,,,,,,,,162,001,2024_Feb_07_1401,SpeechDraft1Carolyn_lessNoise_PlusLocalization,2021.2.3,59.95299515384036,
,,,,,,,,nearLeft,-6.5,1,ch1Sound_localizationTask.wav,-6.5,"(857, 878)","(-103,-202)",-95,-338,,,,,,,,,1,6,13,2,,,,,,,,,,,,,,,,,,,,,,,,,,,,,,,,,,,,,,,,,,,,707.2956474656239,None,708.3947135070339,None,709.3280716077425,None,1.4661375661375662,0.6171364272013307,709.3280716077425,None,,,,,,,,,,,,,,,,,162,001,2024_Feb_07_1401,SpeechDraft1Carolyn_lessNoise_PlusLocalization,2021.2.3,59.95299515384036,
,,,,,,,,farLeft,-19.1,5,ch1Sound_localizationTask.wav,-19.1,"(667, 878)","(-293,-202)",-285,-338,,,,,,,,,2,0,14,0,,,,,,,,,,,,,,,,,,,,,,,,,,,,,,,,,,,,,,,,,,,,709.9616782129742,None,711.0614928426221,None,711.9946146849543,None,1.247089947089947,0.6673782896250486,711.9946146849543,None,,,,,,,,,,,,,,,,,162,001,2024_Feb_07_1401,SpeechDraft1Carolyn_lessNoise_PlusLocalization,2021.2.3,59.95299515384036,
,,,,,,,,nearLeft,-6.5,1,ch1Sound_localizationTask.wav,-6.5,"(857, 878)","(-103,-202)",-95,-338,,,,,,,,,2,1,15,2,,,,,,,,,,,,,,,,,,,,,,,,,,,,,,,,,,,,,,,,,,,,712.6784356418066,None,713.7780679985881,None,714.7116600037552,None,1.4052910052910053,0.8498399811796844,714.7116600037552,None,,,,,,,,,,,,,,,,,162,001,2024_Feb_07_1401,SpeechDraft1Carolyn_lessNoise_PlusLocalization,2021.2.3,59.95299515384036,
,,,,,,,,farRight,19.1,4,ch1Sound_localizationTask.wav,19.1,"(1237, 878)","(277,-202)",285,-338,,,,,,,,,2,2,16,6,,,,,,,,,,,,,,,,,,,,,,,,,,,,,,,,,,,,,,,,,,,,715.5624495809898,None,716.6615684726276,None,717.5949757727794,None,1.7671957671957672,1.199675157200545,717.5949757727794,None,,,,,,,,,,,,,,,,,162,001,2024_Feb_07_1401,SpeechDraft1Carolyn_lessNoise_PlusLocalization,2021.2.3,59.95299515384036,
,,,,,,,,center,0.0,6,ch1Sound_localizationTask.wav,0.0,"(952, 878)","(-8,-202)",0,-338,,,,,,,,,2,3,17,3,,,,,,,,,,,,,,,,,,,,,,,,,,,,,,,,,,,,,,,,,,,,718.7966144229285,None,719.9114558859728,None,720.8281607436948,None,1.4375661375661375,1.4979476742446423,720.8281607436948,None,,,,,,,,,,,,,,,,,162,001,2024_Feb_07_1401,SpeechDraft1Carolyn_lessNoise_PlusLocalization,2021.2.3,59.95299515384036,
,,,,,,,,nearRight,6.5,0,ch1Sound_localizationTask.wav,6.5,"(1047, 878)","(87, -202)",95,-338,,,,,,,,,2,4,18,4,,,,,,,,,,,,,,,,,,,,,,,,,,,,,,,,,,,,,,,,,,,,722.3293437566608,None,723.4448490450159,None,724.3613096177578,None,1.5195767195767196,1.3489097896963358,724.3613096177578,None,,,,,,,,,,,,,,,,,162,001,2024_Feb_07_1401,SpeechDraft1Carolyn_lessNoise_PlusLocalization,2021.2.3,59.95299515384036,
,,,,,,,,farLeft,-19.1,5,ch1Sound_localizationTask.wav,-19.1,"(667, 878)","(-293,-202)",-285,-338,,,,,,,,,2,5,19,0,,,,,,,,,,,,,,,,,,,,,,,,,,,,,,,,,,,,,,,,,,,,725.7127066538669,None,726.8115331139416,None,727.7447563037276,None,1.326984126984127,1.1834452874027193,727.7447563037276,None,,,,,,,,,,,,,,,,,162,001,2024_Feb_07_1401,SpeechDraft1Carolyn_lessNoise_PlusLocalization,2021.2.3,59.95299515384036,
,,,,,,,,farLeft,-19.1,5,ch1Sound_localizationTask.wav,-19.1,"(667, 878)","(-293,-202)",-285,-338,,,,,,,,,2,6,20,0,,,,,,,,,,,,,,,,,,,,,,,,,,,,,,,,,,,,,,,,,,,,728.9449982838705,None,730.0447947178036,None,730.9780149520375,None,1.1735449735449737,0.5995509498752654,730.9780149520375,None,,,,,,,,,,,,,,,,,162,001,2024_Feb_07_1401,SpeechDraft1Carolyn_lessNoise_PlusLocalization,2021.2.3,59.95299515384036,
,,,,,,,,nearRight,6.5,0,ch1Sound_localizationTask.wav,6.5,"(1047, 878)","(87, -202)",95,-338,,,,,,,,,3,0,21,4,,,,,,,,,,,,,,,,,,,,,,,,,,,,,,,,,,,,,,,,,,,,731.5793055337854,None,732.6780154360458,None,733.6114212926477,None,1.585185185185185,1.5334609658457339,733.6114212926477,None,,,,,,,,,,,,,,,,,162,001,2024_Feb_07_1401,SpeechDraft1Carolyn_lessNoise_PlusLocalization,2021.2.3,59.95299515384036,
,,,,,,,,nearRight,6.5,0,ch1Sound_localizationTask.wav,6.5,"(1047, 878)","(87, -202)",95,-338,,,,,,,,,3,1,22,4,,,,,,,,,,,,,,,,,,,,,,,,,,,,,,,,,,,,,,,,,,,,735.1617644629441,None,736.2615371318534,None,737.1947717089206,None,1.5878306878306878,0.5687619308009744,737.1947717089206,None,,,,,,,,,,,,,,,,,162,001,2024_Feb_07_1401,SpeechDraft1Carolyn_lessNoise_PlusLocalization,2021.2.3,59.95299515384036,
,,,,,,,,midRight,13.0,3,ch1Sound_localizationTask.wav,13.0,"(1142, 878)","(182, -202)",190,-338,,,,,,,,,3,2,23,5,,,,,,,,,,,,,,,,,,,,,,,,,,,,,,,,,,,,,,,,,,,,737.7786166509613,None,738.8781553898007,None,739.8115392308682,None,1.8253968253968254,0.6506270286627114,739.8115392308682,None,,,,,,,,,,,,,,,,,162,001,2024_Feb_07_1401,SpeechDraft1Carolyn_lessNoise_PlusLocalization,2021.2.3,59.95299515384036,
,,,,,,,,midLeft,-13.0,2,ch1Sound_localizationTask.wav,-13.0,"(762, 878)","(-198,-202)",-190,-338,,,,,,,,,3,3,24,1,,,,,,,,,,,,,,,,,,,,,,,,,,,,,,,,,,,,,,,,,,,,740.4784854738973,None,741.5782532240264,None,742.5114160068333,None,1.2968253968253969,1.0173269123770297,742.5114160068333,None,,,,,,,,,,,,,,,,,162,001,2024_Feb_07_1401,SpeechDraft1Carolyn_lessNoise_PlusLocalization,2021.2.3,59.95299515384036,
,,,,,,,,nearLeft,-6.5,1,ch1Sound_localizationTask.wav,-6.5,"(857, 878)","(-103,-202)",-95,-338,,,,,,,,,3,4,25,2,,,,,,,,,,,,,,,,,,,,,,,,,,,,,,,,,,,,,,,,,,,,743.5453539057635,None,744.6447090688162,None,745.5781706846319,None,1.5042328042328044,0.817456899676472,745.5781706846319,None,,,,,,,,,,,,,,,,,162,001,2024_Feb_07_1401,SpeechDraft1Carolyn_lessNoise_PlusLocalization,2021.2.3,59.95299515384036,
,,,,,,,,nearRight,6.5,0,ch1Sound_localizationTask.wav,6.5,"(1047, 878)","(87, -202)",95,-338,,,,,,,,,3,5,26,4,,,,,,,,,,,,,,,,,,,,,,,,,,,,,,,,,,,,,,,,,,,,746.4119884870015,None,747.5115463747643,None,748.4448475139216,None,1.4936507936507937,0.5516266552731395,748.4448475139216,None,,,,,,,,,,,,,,,,,162,001,2024_Feb_07_1401,SpeechDraft1Carolyn_lessNoise_PlusLocalization,2021.2.3,59.95299515384036,
,,,,,,,,nearLeft,-6.5,1,ch1Sound_localizationTask.wav,-6.5,"(857, 878)","(-103,-202)",-95,-338,,,,,,,,,3,6,27,2,,,,,,,,,,,,,,,,,,,,,,,,,,,,,,,,,,,,,,,,,,,,749.0117167788558,None,750.1114758169279,None,751.0449172849767,None,1.464021164021164,0.5172245069406927,751.0449172849767,None,,,,,,,,,,,,,,,,,162,001,2024_Feb_07_1401,SpeechDraft1Carolyn_lessNoise_PlusLocalization,2021.2.3,59.95299515384036,
,,,,,,,,center,0.0,6,ch1Sound_localizationTask.wav,0.0,"(952, 878)","(-8,-202)",0,-338,,,,,,,,,4,0,28,3,,,,,,,,,,,,,,,,,,,,,,,,,,,,,,,,,,,,,,,,,,,,751.5784914949909,None,752.6781848329119,None,753.6113902446814,None,1.4804232804232804,0.39964180532842875,753.6113902446814,None,,,,,,,,,,,,,,,,,162,001,2024_Feb_07_1401,SpeechDraft1Carolyn_lessNoise_PlusLocalization,2021.2.3,59.95299515384036,
,,,,,,,,farLeft,-19.1,5,ch1Sound_localizationTask.wav,-19.1,"(667, 878)","(-293,-202)",-285,-338,,,,,,,,,4,1,29,0,,,,,,,,,,,,,,,,,,,,,,,,,,,,,,,,,,,,,,,,,,,,754.0284139076248,None,755.128088268917,None,756.0615280009806,None,1.2788359788359789,0.7174982479773462,756.0615280009806,None,,,,,,,,,,,,,,,,,162,001,2024_Feb_07_1401,SpeechDraft1Carolyn_lessNoise_PlusLocalization,2021.2.3,59.95299515384036,
,,,,,,,,midLeft,-13.0,2,ch1Sound_localizationTask.wav,-13.0,"(762, 878)","(-198,-202)",-190,-338,,,,,,,,,4,2,30,1,,,,,,,,,,,,,,,,,,,,,,,,,,,,,,,,,,,,,,,,,,,,756.7952038249932,None,757.8947909516282,None,758.8281472586095,None,1.24021164021164,1.1998627712018788,758.8281472586095,None,,,,,,,,,,,,,,,,,162,001,2024_Feb_07_1401,SpeechDraft1Carolyn_lessNoise_PlusLocalization,2021.2.3,59.95299515384036,
,,,,,,,,farRight,19.1,4,ch1Sound_localizationTask.wav,19.1,"(1237, 878)","(277,-202)",285,-338,,,,,,,,,4,3,31,6,,,,,,,,,,,,,,,,,,,,,,,,,,,,,,,,,,,,,,,,,,,,760.030404844787,None,761.1448013200425,None,762.06156164594,None,1.8248677248677247,0.5666914959438145,762.06156164594,None,,,,,,,,,,,,,,,,,162,001,2024_Feb_07_1401,SpeechDraft1Carolyn_lessNoise_PlusLocalization,2021.2.3,59.95299515384036,
,,,,,,,,farRight,19.1,4,ch1Sound_localizationTask.wav,19.1,"(1237, 878)","(277,-202)",285,-338,,,,,,,,,4,4,32,6,,,,,,,,,,,,,,,,,,,,,,,,,,,,,,,,,,,,,,,,,,,,762.6452469676733,None,763.7447776477784,None,764.6781746228226,None,1.7322751322751322,0.6334401820786297,764.6781746228226,None,,,,,,,,,,,,,,,,,162,001,2024_Feb_07_1401,SpeechDraft1Carolyn_lessNoise_PlusLocalization,2021.2.3,59.95299515384036,
,,,,,,,,nearLeft,-6.5,1,ch1Sound_localizationTask.wav,-6.5,"(857, 878)","(-103,-202)",-95,-338,,,,,,,,,4,5,33,2,,,,,,,,,,,,,,,,,,,,,,,,,,,,,,,,,,,,,,,,,,,,765.3283252208494,None,766.4282430028543,None,767.361373509746,None,1.474074074074074,0.7831586990505457,767.361373509746,None,,,,,,,,,,,,,,,,,162,001,2024_Feb_07_1401,SpeechDraft1Carolyn_lessNoise_PlusLocalization,2021.2.3,59.95299515384036,
,,,,,,,,nearLeft,-6.5,1,ch1Sound_localizationTask.wav,-6.5,"(857, 878)","(-103,-202)",-95,-338,,,,,,,,,4,6,34,2,,,,,,,,,,,,,,,,,,,,,,,,,,,,,,,,,,,,,,,,,,,,768.1467765327543,None,769.2615199047141,None,770.1780926007777,None,1.4433862433862434,0.5340746468864381,770.1780926007777,None,,,,,,,,,,,,,,,,,162,001,2024_Feb_07_1401,SpeechDraft1Carolyn_lessNoise_PlusLocalization,2021.2.3,59.95299515384036,
,,,,,,,,midLeft,-13.0,2,ch1Sound_localizationTask.wav,-13.0,"(762, 878)","(-198,-202)",-190,-338,,,,,,,,,5,0,35,1,,,,,,,,,,,,,,,,,,,,,,,,,,,,,,,,,,,,,,,,,,,,770.7297857305966,None,771.8448364147916,None,772.761442092713,None,1.3285714285714285,0.7155024539679289,772.761442092713,None,,,,,,,,,,,,,,,,,162,001,2024_Feb_07_1401,SpeechDraft1Carolyn_lessNoise_PlusLocalization,2021.2.3,59.95299515384036,
,,,,,,,,nearLeft,-6.5,1,ch1Sound_localizationTask.wav,-6.5,"(857, 878)","(-103,-202)",-95,-338,,,,,,,,,5,1,36,2,,,,,,,,,,,,,,,,,,,,,,,,,,,,,,,,,,,,,,,,,,,,773.4788569519296,None,774.578244549688,None,775.5115534206852,None,1.3783068783068784,0.6325456341728568,775.5115534206852,None,,,,,,,,,,,,,,,,,162,001,2024_Feb_07_1401,SpeechDraft1Carolyn_lessNoise_PlusLocalization,2021.2.3,59.95299515384036,
,,,,,,,,midRight,13.0,3,ch1Sound_localizationTask.wav,13.0,"(1142, 878)","(182, -202)",190,-338,,,,,,,,,5,2,37,5,,,,,,,,,,,,,,,,,,,,,,,,,,,,,,,,,,,,,,,,,,,,776.1462133256719,None,777.2614775700495,None,778.1782230506651,None,1.71005291005291,0.999972159974277,778.1782230506651,None,,,,,,,,,,,,,,,,,162,001,2024_Feb_07_1401,SpeechDraft1Carolyn_lessNoise_PlusLocalization,2021.2.3,59.95299515384036,
,,,,,,,,midRight,13.0,3,ch1Sound_localizationTask.wav,13.0,"(1142, 878)","(182, -202)",190,-338,,,,,,,,,5,3,38,5,,,,,,,,,,,,,,,,,,,,,,,,,,,,,,,,,,,,,,,,,,,,779.1951775900088,None,780.2949412828311,None,781.2285557286814,None,1.715873015873016,0.6800848990678787,781.2285557286814,None,,,,,,,,,,,,,,,,,162,001,2024_Feb_07_1401,SpeechDraft1Carolyn_lessNoise_PlusLocalization,2021.2.3,59.95299515384036,
,,,,,,,,center,0.0,6,ch1Sound_localizationTask.wav,0.0,"(952, 878)","(-8,-202)",0,-338,,,,,,,,,5,4,39,3,,,,,,,,,,,,,,,,,,,,,,,,,,,,,,,,,,,,,,,,,,,,781.9118912587874,None,783.011442056857,None,783.9447906799614,None,1.488888888888889,0.8661755151115358,783.9447906799614,None,,,,,,,,,,,,,,,,,162,001,2024_Feb_07_1401,SpeechDraft1Carolyn_lessNoise_PlusLocalization,2021.2.3,59.95299515384036,
,,,,,,,,midLeft,-13.0,2,ch1Sound_localizationTask.wav,-13.0,"(762, 878)","(-198,-202)",-190,-338,,,,,,,,,5,5,40,1,,,,,,,,,,,,,,,,,,,,,,,,,,,,,,,,,,,,,,,,,,,,784.8130671707913,None,785.9282635590062,None,786.8449662388302,None,1.3354497354497354,0.7160590887069702,786.8449662388302,None,,,,,,,,,,,,,,,,,162,001,2024_Feb_07_1401,SpeechDraft1Carolyn_lessNoise_PlusLocalization,2021.2.3,59.95299515384036,
,,,,,,,,center,0.0,6,ch1Sound_localizationTask.wav,0.0,"(952, 878)","(-8,-202)",0,-338,,,,,,,,,5,6,41,3,,,,,,,,,,,,,,,,,,,,,,,,,,,,,,,,,,,,,,,,,,,,787.5627426556312,None,788.6615045438521,None,789.5948569830507,None,1.4867724867724867,0.7676516501232982,789.5948569830507,None,,,,,,,,,,,,,,,,,162,001,2024_Feb_07_1401,SpeechDraft1Carolyn_lessNoise_PlusLocalization,2021.2.3,59.95299515384036,
,,,,,,,,midLeft,-13.0,2,ch1Sound_localizationTask.wav,-13.0,"(762, 878)","(-198,-202)",-190,-338,,,,,,,,,6,0,42,1,,,,,,,,,,,,,,,,,,,,,,,,,,,,,,,,,,,,,,,,,,,,790.3786131069064,None,791.4781896346249,None,792.4115582709201,None,1.355026455026455,0.6663938467390835,792.4115582709201,None,,,,,,,,,,,,,,,,,162,001,2024_Feb_07_1401,SpeechDraft1Carolyn_lessNoise_PlusLocalization,2021.2.3,59.95299515384036,
,,,,,,,,midRight,13.0,3,ch1Sound_localizationTask.wav,13.0,"(1142, 878)","(182, -202)",190,-338,,,,,,,,,6,1,43,5,,,,,,,,,,,,,,,,,,,,,,,,,,,,,,,,,,,,,,,,,,,,793.0951430737041,None,794.1947620236315,None,795.128289683722,None,1.6264550264550266,0.6347670992836356,795.128289683722,None,,,,,,,,,,,,,,,,,162,001,2024_Feb_07_1401,SpeechDraft1Carolyn_lessNoise_PlusLocalization,2021.2.3,59.95299515384036,
,,,,,,,,farRight,19.1,4,ch1Sound_localizationTask.wav,19.1,"(1237, 878)","(277,-202)",285,-338,,,,,,,,,6,2,44,6,,,,,,,,,,,,,,,,,,,,,,,,,,,,,,,,,,,,,,,,,,,,795.7784890430048,None,796.8783468250185,None,797.8115454628132,None,1.7608465608465609,0.9002904379740357,797.8115454628132,None,,,,,,,,,,,,,,,,,162,001,2024_Feb_07_1401,SpeechDraft1Carolyn_lessNoise_PlusLocalization,2021.2.3,59.95299515384036,
,,,,,,,,farLeft,-19.1,5,ch1Sound_localizationTask.wav,-19.1,"(667, 878)","(-293,-202)",-285,-338,,,,,,,,,6,3,45,0,,,,,,,,,,,,,,,,,,,,,,,,,,,,,,,,,,,,,,,,,,,,798.7287257327698,None,799.8283061380498,None,800.7615544437431,None,1.2185185185185186,0.850186756812036,800.7615544437431,None,,,,,,,,,,,,,,,,,162,001,2024_Feb_07_1401,SpeechDraft1Carolyn_lessNoise_PlusLocalization,2021.2.3,59.95299515384036,
,,,,,,,,center,0.0,6,ch1Sound_localizationTask.wav,0.0,"(952, 878)","(-8,-202)",0,-338,,,,,,,,,6,4,46,3,,,,,,,,,,,,,,,,,,,,,,,,,,,,,,,,,,,,,,,,,,,,801.6286717359908,None,802.7282270318829,None,803.6615705317818,None,1.4978835978835978,0.8499947609379888,803.6615705317818,None,,,,,,,,,,,,,,,,,162,001,2024_Feb_07_1401,SpeechDraft1Carolyn_lessNoise_PlusLocalization,2021.2.3,59.95299515384036,
,,,,,,,,farRight,19.1,4,ch1Sound_localizationTask.wav,19.1,"(1237, 878)","(277,-202)",285,-338,,,,,,,,,6,5,47,6,,,,,,,,,,,,,,,,,,,,,,,,,,,,,,,,,,,,,,,,,,,,804.5285441447049,None,805.6282278760336,None,806.5614655707031,None,1.71005291005291,0.8170102750882506,806.5614655707031,None,,,,,,,,,,,,,,,,,162,001,2024_Feb_07_1401,SpeechDraft1Carolyn_lessNoise_PlusLocalization,2021.2.3,59.95299515384036,
,,,,,,,,nearLeft,-6.5,1,ch1Sound_localizationTask.wav,-6.5,"(857, 878)","(-103,-202)",-95,-338,,,,,,,,,6,6,48,2,,,,,,,,,,,,,,,,,,,,,,,,,,,,,,,,,,,,,,,,,,,,807.3953656009398,None,808.4949785936624,None,809.4285023678094,None,1.4132275132275132,0.7180640045553446,809.4285023678094,None,,,,,,,,,,,,,,,,,162,001,2024_Feb_07_1401,SpeechDraft1Carolyn_lessNoise_PlusLocalization,2021.2.3,59.95299515384036,
,,,,,,,,farLeft,-19.1,5,ch1Sound_localizationTask.wav,-19.1,"(667, 878)","(-293,-202)",-285,-338,,,,,,,,,7,0,49,0,,,,,,,,,,,,,,,,,,,,,,,,,,,,,,,,,,,,,,,,,,,,810.1618932127021,None,811.261574162636,None,812.195011659991,None,1.2412698412698413,0.6830767379142344,812.195011659991,None,,,,,,,,,,,,,,,,,162,001,2024_Feb_07_1401,SpeechDraft1Carolyn_lessNoise_PlusLocalization,2021.2.3,59.95299515384036,
,,,,,,,,midLeft,-13.0,2,ch1Sound_localizationTask.wav,-13.0,"(762, 878)","(-198,-202)",-190,-338,,,,,,,,,7,1,50,1,,,,,,,,,,,,,,,,,,,,,,,,,,,,,,,,,,,,,,,,,,,,812.8953392338008,None,813.994829850737,None,814.9281547917053,None,1.3386243386243386,0.8832510951906443,814.9281547917053,None,,,,,,,,,,,,,,,,,162,001,2024_Feb_07_1401,SpeechDraft1Carolyn_lessNoise_PlusLocalization,2021.2.3,59.95299515384036,
,,,,,,,,farRight,19.1,4,ch1Sound_localizationTask.wav,19.1,"(1237, 878)","(277,-202)",285,-338,,,,,,,,,7,2,51,6,,,,,,,,,,,,,,,,,,,,,,,,,,,,,,,,,,,,,,,,,,,,815.8128788387403,None,816.9114939547144,None,817.8450544606894,None,1.6682539682539683,0.6163675333373249,817.8450544606894,None,,,,,,,,,,,,,,,,,162,001,2024_Feb_07_1401,SpeechDraft1Carolyn_lessNoise_PlusLocalization,2021.2.3,59.95299515384036,
,,,,,,,,midRight,13.0,3,ch1Sound_localizationTask.wav,13.0,"(1142, 878)","(182, -202)",190,-338,,,,,,,,,7,3,52,5,,,,,,,,,,,,,,,,,,,,,,,,,,,,,,,,,,,,,,,,,,,,818.4625800456852,None,819.5615772139281,None,820.4949588677846,None,1.7322751322751322,2.733520850073546,820.4949588677846,None,,,,,,,,,,,,,,,,,162,001,2024_Feb_07_1401,SpeechDraft1Carolyn_lessNoise_PlusLocalization,2021.2.3,59.95299515384036,
,,,,,,,,nearRight,6.5,0,ch1Sound_localizationTask.wav,6.5,"(1047, 878)","(87, -202)",95,-338,,,,,,,,,7,4,53,4,,,,,,,,,,,,,,,,,,,,,,,,,,,,,,,,,,,,,,,,,,,,823.229660528712,None,824.3449590746313,None,825.2616164078936,None,1.5153439153439154,0.9497362617403269,825.2616164078936,None,,,,,,,,,,,,,,,,,162,001,2024_Feb_07_1401,SpeechDraft1Carolyn_lessNoise_PlusLocalization,2021.2.3,59.95299515384036,
,,,,,,,,midRight,13.0,3,ch1Sound_localizationTask.wav,13.0,"(1142, 878)","(182, -202)",190,-338,,,,,,,,,7,5,54,5,,,,,,,,,,,,,,,,,,,,,,,,,,,,,,,,,,,,,,,,,,,,826.2129713986069,None,827.3281809189357,None,828.2450052457862,None,1.6433862433862434,0.5167150073684752,828.2450052457862,None,,,,,,,,,,,,,,,,,162,001,2024_Feb_07_1401,SpeechDraft1Carolyn_lessNoise_PlusLocalization,2021.2.3,59.95299515384036,
,,,,,,,,farLeft,-19.1,5,ch1Sound_localizationTask.wav,-19.1,"(667, 878)","(-293,-202)",-285,-338,,,,,,,,,7,6,55,0,,,,,,,,,,,,,,,,,,,,,,,,,,,,,,,,,,,,,,,,,,,,828.7785094357096,None,829.87817281764,None,830.8115257467143,None,1.1936507936507936,0.6498001208528876,830.8115257467143,None,,,,,,,,,,,,,,,,,162,001,2024_Feb_07_1401,SpeechDraft1Carolyn_lessNoise_PlusLocalization,2021.2.3,59.95299515384036,
,,,,,,,,,,,,,,,,,,,,,,,,,,,,,,,,,,,,,,,,,,,,,,,,,,,,,,,,,,,,,,,,,,,,,,,,,,,,,,,,,,space,18.649211660027504,831.5452316249721,None,,,,,,,,,,,,,162,001,2024_Feb_07_1401,SpeechDraft1Carolyn_lessNoise_PlusLocalization,2021.2.3,59.95299515384036,
,,,,,,,,midRight,13.0,3,ch1Sound_localizationTask.wav,13.0,"(1142, 878)","(182, -202)",190,-338,,,,,,,,,,,,,0,0,0,5,,,,,,,,,,,,,,,,,,,,,,,,,,,,,,,,,,,,,,,,850.228400151711,None,,,853.2616728036664,None,1.596825396825397,1.7029477078467607,853.2616728036664,None,,,,,831.5452316249721,None,851.2285387800075,None,851.4119512429461,851.4285420398228,,,,,,,162,001,2024_Feb_07_1401,SpeechDraft1Carolyn_lessNoise_PlusLocalization,2021.2.3,59.95299515384036,
,,,,,,,,midLeft,-13.0,2,ch1Sound_localizationTask.wav,-13.0,"(762, 878)","(-198,-202)",-190,-338,,,,,,,,,,,,,0,1,1,1,,,,,,,,,,,,,,,,,,,,,,,,,,,,,,,,,,,,,,,,854.963415578939,None,,,857.994822378736,None,1.3851851851851853,1.6321091959252954,857.994822378736,None,,,,,,,855.9786377176642,None,856.1618952839635,856.1786381830461,,,,,,,162,001,2024_Feb_07_1401,SpeechDraft1Carolyn_lessNoise_PlusLocalization,2021.2.3,59.95299515384036,
,,,,,,,,nearRight,6.5,0,ch1Sound_localizationTask.wav,6.5,"(1047, 878)","(87, -202)",95,-338,,,,,,,,,,,,,0,2,2,4,,,,,,,,,,,,,,,,,,,,,,,,,,,,,,,,,,,,,,,,859.6304112910293,None,,,862.6616835249588,None,1.5571428571428572,0.9161986480467021,862.6616835249588,None,,,,,,,860.6452496605925,None,860.8285841089673,860.8452029549517,,,,,,,162,001,2024_Feb_07_1401,SpeechDraft1Carolyn_lessNoise_PlusLocalization,2021.2.3,59.95299515384036,
,,,,,,,,center,0.0,6,ch1Sound_localizationTask.wav,0.0,"(952, 878)","(-8,-202)",0,-338,,,,,,,,,,,,,0,3,3,3,,,,,,,,,,,,,,,,,,,,,,,,,,,,,,,,,,,,,,,,863.595247878693,None,,,866.6116915447637,None,1.4947089947089947,0.899467664770782,866.6116915447637,None,,,,,,,864.5951504637487,None,864.7786017856561,864.7952491967008,,,,,,,162,001,2024_Feb_07_1401,SpeechDraft1Carolyn_lessNoise_PlusLocalization,2021.2.3,59.95299515384036,
,,,,,,,,farRight,19.1,4,ch1Sound_localizationTask.wav,19.1,"(1237, 878)","(277,-202)",285,-338,,,,,,,,,,,,,0,4,4,6,,,,,,,,,,,,,,,,,,,,,,,,,,,,,,,,,,,,,,,,867.5285773747601,None,,,870.5449568526819,None,1.6391534391534393,0.732737042941153,870.5449568526819,None,,,,,,,868.5285179549828,None,868.7119071567431,868.7285537635908,,,,,,,162,001,2024_Feb_07_1401,SpeechDraft1Carolyn_lessNoise_PlusLocalization,2021.2.3,59.95299515384036,
,,,,,,,,center,0.0,6,ch1Sound_localizationTask.wav,0.0,"(952, 878)","(-8,-202)",0,-338,,,,,,,,,,,,,0,5,5,3,,,,,,,,,,,,,,,,,,,,,,,,,,,,,,,,,,,,,,,,871.2800215757452,None,,,874.3115840689279,None,1.498941798941799,0.9491192931309342,874.3115840689279,None,,,,,,,872.2953318445943,None,872.4786840798333,872.4953189757653,,,,,,,162,001,2024_Feb_07_1401,SpeechDraft1Carolyn_lessNoise_PlusLocalization,2021.2.3,59.95299515384036,
,,,,,,,,farLeft,-19.1,5,ch1Sound_localizationTask.wav,-19.1,"(667, 878)","(-293,-202)",-285,-338,,,,,,,,,,,,,0,6,6,0,,,,,,,,,,,,,,,,,,,,,,,,,,,,,,,,,,,,,,,,875.2630678717978,None,,,878.2950528846122,None,1.3391534391534392,1.1174022927880287,878.2950528846122,None,,,,,,,876.2786295190454,None,876.4620922016911,876.4785588718951,,,,,,,162,001,2024_Feb_07_1401,SpeechDraft1Carolyn_lessNoise_PlusLocalization,2021.2.3,59.95299515384036,
,,,,,,,,nearRight,6.5,0,ch1Sound_localizationTask.wav,6.5,"(1047, 878)","(87, -202)",95,-338,,,,,,,,,,,,,1,0,7,4,,,,,,,,,,,,,,,,,,,,,,,,,,,,,,,,,,,,,,,,879.4287258498371,None,,,882.4448586199433,None,1.560846560846561,0.8831913168542087,882.4448586199433,None,,,,,,,880.4285980588757,None,880.6119380197488,880.6286067129113,,,,,,,162,001,2024_Feb_07_1401,SpeechDraft1Carolyn_lessNoise_PlusLocalization,2021.2.3,59.95299515384036,
,,,,,,,,nearRight,6.5,0,ch1Sound_localizationTask.wav,6.5,"(1047, 878)","(87, -202)",95,-338,,,,,,,,,,,,,1,1,8,4,,,,,,,,,,,,,,,,,,,,,,,,,,,,,,,,,,,,,,,,883.3297486267984,None,,,886.3614563499577,None,1.5492063492063493,0.915920787025243,886.3614563499577,None,,,,,,,884.3453551596031,None,884.5286405077204,884.5453168200329,,,,,,,162,001,2024_Feb_07_1401,SpeechDraft1Carolyn_lessNoise_PlusLocalization,2021.2.3,59.95299515384036,
,,,,,,,,center,0.0,6,ch1Sound_localizationTask.wav,0.0,"(952, 878)","(-8,-202)",0,-338,,,,,,,,,,,,,1,2,9,3,,,,,,,,,,,,,,,,,,,,,,,,,,,,,,,,,,,,,,,,887.279616039712,None,,,890.2950682728551,None,1.4936507936507937,1.4321927870623767,890.2950682728551,None,,,,,,,888.2785724089481,None,888.4618926546536,888.4785739476793,,,,,,,162,001,2024_Feb_07_1401,SpeechDraft1Carolyn_lessNoise_PlusLocalization,2021.2.3,59.95299515384036,
,,,,,,,,midLeft,-13.0,2,ch1Sound_localizationTask.wav,-13.0,"(762, 878)","(-198,-202)",-190,-338,,,,,,,,,,,,,1,3,10,1,,,,,,,,,,,,,,,,,,,,,,,,,,,,,,,,,,,,,,,,891.7290619779378,None,,,894.7449386739172,None,1.3936507936507936,1.8500281986780465,894.7449386739172,None,,,,,,,892.7285711718723,None,892.9119940479286,892.9285970916972,,,,,,,162,001,2024_Feb_07_1401,SpeechDraft1Carolyn_lessNoise_PlusLocalization,2021.2.3,59.95299515384036,
,,,,,,,,midLeft,-13.0,2,ch1Sound_localizationTask.wav,-13.0,"(762, 878)","(-198,-202)",-190,-338,,,,,,,,,,,,,1,4,11,1,,,,,,,,,,,,,,,,,,,,,,,,,,,,,,,,,,,,,,,,896.6121472087689,None,,,899.6284428988583,None,1.398941798941799,1.365928886923939,899.6284428988583,None,,,,,,,897.6120049068704,None,897.7957628336735,897.8120377687737,,,,,,,162,001,2024_Feb_07_1401,SpeechDraft1Carolyn_lessNoise_PlusLocalization,2021.2.3,59.95299515384036,
,,,,,,,,midLeft,-13.0,2,ch1Sound_localizationTask.wav,-13.0,"(762, 878)","(-198,-202)",-190,-338,,,,,,,,,,,,,1,5,12,1,,,,,,,,,,,,,,,,,,,,,,,,,,,,,,,,,,,,,,,,900.9973772596568,None,,,904.0284785567783,None,1.3947089947089948,0.9328720485791564,904.0284785567783,None,,,,,,,902.0120427040383,None,902.1952847037464,902.211982190609,,,,,,,162,001,2024_Feb_07_1401,SpeechDraft1Carolyn_lessNoise_PlusLocalization,2021.2.3,59.95299515384036,
,,,,,,,,midLeft,-13.0,2,ch1Sound_localizationTask.wav,-13.0,"(762, 878)","(-198,-202)",-190,-338,,,,,,,,,,,,,1,6,13,1,,,,,,,,,,,,,,,,,,,,,,,,,,,,,,,,,,,,,,,,904.9636627738364,None,,,907.9950103247538,None,1.3925925925925926,1.2163761742413044,907.9950103247538,None,,,,,,,905.9787021549419,None,906.1619950626045,906.1786452378146,,,,,,,162,001,2024_Feb_07_1401,SpeechDraft1Carolyn_lessNoise_PlusLocalization,2021.2.3,59.95299515384036,
,,,,,,,,farRight,19.1,4,ch1Sound_localizationTask.wav,19.1,"(1237, 878)","(277,-202)",285,-338,,,,,,,,,,,,,2,0,14,6,,,,,,,,,,,,,,,,,,,,,,,,,,,,,,,,,,,,,,,,909.2288784310222,None,,,912.2450781287625,None,1.6492063492063491,1.450384525116533,912.2450781287625,None,,,,,,,910.2285887137987,None,910.4119631606154,910.4286343986169,,,,,,,162,001,2024_Feb_07_1401,SpeechDraft1Carolyn_lessNoise_PlusLocalization,2021.2.3,59.95299515384036,
,,,,,,,,center,0.0,6,ch1Sound_localizationTask.wav,0.0,"(952, 878)","(-8,-202)",0,-338,,,,,,,,,,,,,2,1,15,3,,,,,,,,,,,,,,,,,,,,,,,,,,,,,,,,,,,,,,,,913.7118752365932,None,,,916.7283571059816,None,1.488888888888889,1.366246910765767,916.7283571059816,None,,,,,,,914.7119868500158,None,914.8953535659239,914.9119482235983,,,,,,,162,001,2024_Feb_07_1401,SpeechDraft1Carolyn_lessNoise_PlusLocalization,2021.2.3,59.95299515384036,
,,,,,,,,nearLeft,-6.5,1,ch1Sound_localizationTask.wav,-6.5,"(857, 878)","(-103,-202)",-95,-338,,,,,,,,,,,,,2,2,16,2,,,,,,,,,,,,,,,,,,,,,,,,,,,,,,,,,,,,,,,,918.0969540430233,None,,,921.1284168870188,None,1.4386243386243387,0.8996874182485044,921.1284168870188,None,,,,,,,919.1121016498655,None,919.2953605386429,919.3119910010137,,,,,,,162,001,2024_Feb_07_1401,SpeechDraft1Carolyn_lessNoise_PlusLocalization,2021.2.3,59.95299515384036,
,,,,,,,,farLeft,-19.1,5,ch1Sound_localizationTask.wav,-19.1,"(667, 878)","(-293,-202)",-285,-338,,,,,,,,,,,,,2,3,17,0,,,,,,,,,,,,,,,,,,,,,,,,,,,,,,,,,,,,,,,,922.0304655898362,None,,,925.0617703809403,None,1.3476190476190477,1.534504507202655,925.0617703809403,None,,,,,,,923.0454074866138,None,923.2285679630004,923.2453104048036,,,,,,,162,001,2024_Feb_07_1401,SpeechDraft1Carolyn_lessNoise_PlusLocalization,2021.2.3,59.95299515384036,
,,,,,,,,midRight,13.0,3,ch1Sound_localizationTask.wav,13.0,"(1142, 878)","(182, -202)",190,-338,,,,,,,,,,,,,2,4,18,5,,,,,,,,,,,,,,,,,,,,,,,,,,,,,,,,,,,,,,,,926.6122390138917,None,,,929.6285071638413,None,1.5920634920634922,1.2820645258761942,929.6285071638413,None,,,,,,,927.6120589650236,None,927.795735348016,927.8120366060175,,,,,,,162,001,2024_Feb_07_1401,SpeechDraft1Carolyn_lessNoise_PlusLocalization,2021.2.3,59.95299515384036,
,,,,,,,,nearRight,6.5,0,ch1Sound_localizationTask.wav,6.5,"(1047, 878)","(87, -202)",95,-338,,,,,,,,,,,,,2,5,19,4,,,,,,,,,,,,,,,,,,,,,,,,,,,,,,,,,,,,,,,,930.913028165698,None,,,933.945069486741,None,1.541798941798942,0.9496831698343158,933.945069486741,None,,,,,,,931.9286900889128,None,932.1120142517611,932.1287257820368,,,,,,,162,001,2024_Feb_07_1401,SpeechDraft1Carolyn_lessNoise_PlusLocalization,2021.2.3,59.95299515384036,
,,,,,,,,farLeft,-19.1,5,ch1Sound_localizationTask.wav,-19.1,"(667, 878)","(-293,-202)",-285,-338,,,,,,,,,,,,,2,6,20,0,,,,,,,,,,,,,,,,,,,,,,,,,,,,,,,,,,,,,,,,934.912016724702,None,,,937.9283995577134,None,1.3354497354497354,1.5178379327990115,937.9283995577134,None,,,,,,,935.9119893028401,None,936.0953504508361,936.1119764880277,,,,,,,162,001,2024_Feb_07_1401,SpeechDraft1Carolyn_lessNoise_PlusLocalization,2021.2.3,59.95299515384036,
,,,,,,,,farRight,19.1,4,ch1Sound_localizationTask.wav,19.1,"(1237, 878)","(277,-202)",285,-338,,,,,,,,,,,,,3,0,21,6,,,,,,,,,,,,,,,,,,,,,,,,,,,,,,,,,,,,,,,,939.4623625809327,None,,,942.4784910129383,None,1.644973544973545,1.1489357552491128,942.4784910129383,None,,,,,,,940.4620074168779,None,940.6453397236764,940.6619851556607,,,,,,,162,001,2024_Feb_07_1401,SpeechDraft1Carolyn_lessNoise_PlusLocalization,2021.2.3,59.95299515384036,
,,,,,,,,farRight,19.1,4,ch1Sound_localizationTask.wav,19.1,"(1237, 878)","(277,-202)",285,-338,,,,,,,,,,,,,3,1,22,6,,,,,,,,,,,,,,,,,,,,,,,,,,,,,,,,,,,,,,,,943.6305767637677,None,,,946.66192000499,None,1.6349206349206349,1.2488056519068778,946.66192000499,None,,,,,,,944.6454656096175,None,944.8286394895986,944.8453017040156,,,,,,,162,001,2024_Feb_07_1401,SpeechDraft1Carolyn_lessNoise_PlusLocalization,2021.2.3,59.95299515384036,
,,,,,,,,farLeft,-19.1,5,ch1Sound_localizationTask.wav,-19.1,"(667, 878)","(-293,-202)",-285,-338,,,,,,,,,,,,,3,2,23,0,,,,,,,,,,,,,,,,,,,,,,,,,,,,,,,,,,,,,,,,947.9127498436719,None,,,950.9283246546984,None,1.348148148148148,1.1664819554425776,950.9283246546984,None,,,,,,,948.9119954039343,None,949.0954135698266,949.1120964246802,,,,,,,162,001,2024_Feb_07_1401,SpeechDraft1Carolyn_lessNoise_PlusLocalization,2021.2.3,59.95299515384036,
,,,,,,,,nearLeft,-6.5,1,ch1Sound_localizationTask.wav,-6.5,"(857, 878)","(-103,-202)",-95,-338,,,,,,,,,,,,,3,3,24,2,,,,,,,,,,,,,,,,,,,,,,,,,,,,,,,,,,,,,,,,952.112063143868,None,,,955.128438891843,None,1.4232804232804233,1.5160186300054193,955.128438891843,None,,,,,,,953.1120234937407,None,953.295378615614,953.3120813197456,,,,,,,162,001,2024_Feb_07_1401,SpeechDraft1Carolyn_lessNoise_PlusLocalization,2021.2.3,59.95299515384036,
,,,,,,,,farRight,19.1,4,ch1Sound_localizationTask.wav,19.1,"(1237, 878)","(277,-202)",285,-338,,,,,,,,,,,,,3,4,25,6,,,,,,,,,,,,,,,,,,,,,,,,,,,,,,,,,,,,,,,,956.646267469041,None,,,959.6618461078033,None,1.6576719576719576,1.283602220006287,959.6618461078033,None,,,,,,,957.6453757979907,None,957.8287373417988,957.8453775397502,,,,,,,162,001,2024_Feb_07_1401,SpeechDraft1Carolyn_lessNoise_PlusLocalization,2021.2.3,59.95299515384036,
,,,,,,,,midRight,13.0,3,ch1Sound_localizationTask.wav,13.0,"(1142, 878)","(182, -202)",190,-338,,,,,,,,,,,,,3,5,26,5,,,,,,,,,,,,,,,,,,,,,,,,,,,,,,,,,,,,,,,,960.9620629278943,None,,,963.9783650548197,None,1.5931216931216932,1.3820344558916986,963.9783650548197,None,,,,,,,961.9621762596071,None,962.1454885699786,962.1620454275981,,,,,,,162,001,2024_Feb_07_1401,SpeechDraft1Carolyn_lessNoise_PlusLocalization,2021.2.3,59.95299515384036,
,,,,,,,,nearLeft,-6.5,1,ch1Sound_localizationTask.wav,-6.5,"(857, 878)","(-103,-202)",-95,-338,,,,,,,,,,,,,3,6,27,2,,,,,,,,,,,,,,,,,,,,,,,,,,,,,,,,,,,,,,,,965.3624518276192,None,,,968.3784853857942,None,1.4328042328042327,1.034069140907377,968.3784853857942,None,,,,,,,966.3620183547027,None,966.5453980290331,966.5620622318238,,,,,,,162,001,2024_Feb_07_1401,SpeechDraft1Carolyn_lessNoise_PlusLocalization,2021.2.3,59.95299515384036,
,,,,,,,,farRight,19.1,4,ch1Sound_localizationTask.wav,19.1,"(1237, 878)","(277,-202)",285,-338,,,,,,,,,,,,,4,0,28,6,,,,,,,,,,,,,,,,,,,,,,,,,,,,,,,,,,,,,,,,969.4289230876602,None,,,972.4450271199457,None,1.6455026455026456,1.3993053049780428,972.4450271199457,None,,,,,,,970.4287325697951,None,970.612053155899,970.6287523177452,,,,,,,162,001,2024_Feb_07_1401,SpeechDraft1Carolyn_lessNoise_PlusLocalization,2021.2.3,59.95299515384036,
,,,,,,,,nearLeft,-6.5,1,ch1Sound_localizationTask.wav,-6.5,"(857, 878)","(-103,-202)",-95,-338,,,,,,,,,,,,,4,1,29,2,,,,,,,,,,,,,,,,,,,,,,,,,,,,,,,,,,,,,,,,973.8464693026617,None,,,976.8618966690265,None,1.4412698412698413,1.282726048026234,976.8618966690265,None,,,,,,,974.8453990807757,None,975.0287170857191,975.0454054116271,,,,,,,162,001,2024_Feb_07_1401,SpeechDraft1Carolyn_lessNoise_PlusLocalization,2021.2.3,59.95299515384036,
,,,,,,,,nearRight,6.5,0,ch1Sound_localizationTask.wav,6.5,"(1047, 878)","(87, -202)",95,-338,,,,,,,,,,,,,4,2,30,4,,,,,,,,,,,,,,,,,,,,,,,,,,,,,,,,,,,,,,,,978.1463840128854,None,,,981.1617720359936,None,1.5597883597883597,0.9820638867095113,981.1617720359936,None,,,,,,,979.1455064057373,None,979.3287101159804,979.3454431355931,,,,,,,162,001,2024_Feb_07_1401,SpeechDraft1Carolyn_lessNoise_PlusLocalization,2021.2.3,59.95299515384036,
,,,,,,,,farLeft,-19.1,5,ch1Sound_localizationTask.wav,-19.1,"(667, 878)","(-293,-202)",-285,-338,,,,,,,,,,,,,4,3,31,0,,,,,,,,,,,,,,,,,,,,,,,,,,,,,,,,,,,,,,,,982.1454265387729,None,,,985.1616524276324,None,1.3333333333333333,1.2826261050067842,985.1616524276324,None,,,,,,,983.1454847389832,None,983.3286973848008,983.3454528488219,,,,,,,162,001,2024_Feb_07_1401,SpeechDraft1Carolyn_lessNoise_PlusLocalization,2021.2.3,59.95299515384036,
,,,,,,,,midRight,13.0,3,ch1Sound_localizationTask.wav,13.0,"(1142, 878)","(182, -202)",190,-338,,,,,,,,,,,,,4,4,32,5,,,,,,,,,,,,,,,,,,,,,,,,,,,,,,,,,,,,,,,,986.4469187557697,None,,,989.4784775599837,None,1.5857142857142859,1.4326352691277862,989.4784775599837,None,,,,,,,987.4620691109449,None,987.6454393318854,987.6620843638666,,,,,,,162,001,2024_Feb_07_1401,SpeechDraft1Carolyn_lessNoise_PlusLocalization,2021.2.3,59.95299515384036,
,,,,,,,,center,0.0,6,ch1Sound_localizationTask.wav,0.0,"(952, 878)","(-8,-202)",0,-338,,,,,,,,,,,,,4,5,33,3,,,,,,,,,,,,,,,,,,,,,,,,,,,,,,,,,,,,,,,,990.9129292177968,None,,,993.9283488178626,None,1.4968253968253968,1.3325092382729053,993.9283488178626,None,,,,,,,991.9120628796518,None,992.0954384198412,992.1120751285926,,,,,,,162,001,2024_Feb_07_1401,SpeechDraft1Carolyn_lessNoise_PlusLocalization,2021.2.3,59.95299515384036,
,,,,,,,,center,0.0,6,ch1Sound_localizationTask.wav,0.0,"(952, 878)","(-8,-202)",0,-338,,,,,,,,,,,,,4,6,34,3,,,,,,,,,,,,,,,,,,,,,,,,,,,,,,,,,,,,,,,,995.26306456374,None,,,998.2951993769966,None,1.5005291005291004,0.9661214048974216,998.2951993769966,None,,,,,,,996.2787648267113,None,996.4620594987646,996.4787872186862,,,,,,,162,001,2024_Feb_07_1401,SpeechDraft1Carolyn_lessNoise_PlusLocalization,2021.2.3,59.95299515384036,
,,,,,,,,farRight,19.1,4,ch1Sound_localizationTask.wav,19.1,"(1237, 878)","(277,-202)",285,-338,,,,,,,,,,,,,5,0,35,6,,,,,,,,,,,,,,,,,,,,,,,,,,,,,,,,,,,,,,,,999.2786783776246,None,,,1002.295172446873,None,1.6544973544973545,1.0661199912428856,1002.295172446873,None,,,,,,,1000.2787351999432,None,1000.4621685286984,1000.4787565218285,,,,,,,162,001,2024_Feb_07_1401,SpeechDraft1Carolyn_lessNoise_PlusLocalization,2021.2.3,59.95299515384036,
,,,,,,,,midLeft,-13.0,2,ch1Sound_localizationTask.wav,-13.0,"(762, 878)","(-198,-202)",-190,-338,,,,,,,,,,,,,5,1,36,1,,,,,,,,,,,,,,,,,,,,,,,,,,,,,,,,,,,,,,,,1003.3632810385898,None,,,1006.3951787846163,None,1.3904761904761904,0.9177824668586254,1006.3951787846163,None,,,,,,,1004.3788374969736,None,1004.5621513468213,1004.5787357306108,,,,,,,162,001,2024_Feb_07_1401,SpeechDraft1Carolyn_lessNoise_PlusLocalization,2021.2.3,59.95299515384036,
,,,,,,,,midLeft,-13.0,2,ch1Sound_localizationTask.wav,-13.0,"(762, 878)","(-198,-202)",-190,-338,,,,,,,,,,,,,5,2,37,1,,,,,,,,,,,,,,,,,,,,,,,,,,,,,,,,,,,,,,,,1007.3288299487904,None,,,1010.3452040678822,None,1.3904761904761904,0.8162680002860725,1010.3452040678822,None,,,,,,,1008.3288849107921,None,1008.512220073957,1008.5288325236179,,,,,,,162,001,2024_Feb_07_1401,SpeechDraft1Carolyn_lessNoise_PlusLocalization,2021.2.3,59.95299515384036,
,,,,,,,,nearLeft,-6.5,1,ch1Sound_localizationTask.wav,-6.5,"(857, 878)","(-103,-202)",-95,-338,,,,,,,,,,,,,5,3,38,2,,,,,,,,,,,,,,,,,,,,,,,,,,,,,,,,,,,,,,,,1011.1641429178417,None,,,1014.1951871197671,None,1.4216931216931217,1.5002934928052127,1014.1951871197671,None,,,,,,,1012.1787611530162,None,1012.3621335658245,1012.3788012177683,,,,,,,162,001,2024_Feb_07_1401,SpeechDraft1Carolyn_lessNoise_PlusLocalization,2021.2.3,59.95299515384036,
,,,,,,,,farLeft,-19.1,5,ch1Sound_localizationTask.wav,-19.1,"(667, 878)","(-293,-202)",-285,-338,,,,,,,,,,,,,5,4,39,0,,,,,,,,,,,,,,,,,,,,,,,,,,,,,,,,,,,,,,,,1015.71228935197,None,,,1018.7284902678803,None,1.3206349206349206,1.1164975040592253,1018.7284902678803,None,,,,,,,1016.7121878229082,None,1016.8955523977056,1016.9121721736155,,,,,,,162,001,2024_Feb_07_1401,SpeechDraft1Carolyn_lessNoise_PlusLocalization,2021.2.3,59.95299515384036,
,,,,,,,,midRight,13.0,3,ch1Sound_localizationTask.wav,13.0,"(1142, 878)","(182, -202)",190,-338,,,,,,,,,,,,,5,5,40,5,,,,,,,,,,,,,,,,,,,,,,,,,,,,,,,,,,,,,,,,1019.8624047478661,None,,,1022.8787178117782,None,1.5962962962962963,1.266685533337295,1022.8787178117782,None,,,,,,,1020.8621245799586,None,1021.0456236028112,1021.0620524249971,,,,,,,162,001,2024_Feb_07_1401,SpeechDraft1Carolyn_lessNoise_PlusLocalization,2021.2.3,59.95299515384036,
,,,,,,,,farRight,19.1,4,ch1Sound_localizationTask.wav,19.1,"(1237, 878)","(277,-202)",285,-338,,,,,,,,,,,,,5,6,41,6,,,,,,,,,,,,,,,,,,,,,,,,,,,,,,,,,,,,,,,,1024.1622273898683,None,,,1027.1784761706367,None,1.6555555555555554,1.1990887341089547,1027.1784761706367,None,,,,,,,1025.162227824796,None,1025.345493458677,1025.3620956167579,,,,,,,162,001,2024_Feb_07_1401,SpeechDraft1Carolyn_lessNoise_PlusLocalization,2021.2.3,59.95299515384036,
,,,,,,,,nearRight,6.5,0,ch1Sound_localizationTask.wav,6.5,"(1047, 878)","(87, -202)",95,-338,,,,,,,,,,,,,6,0,42,4,,,,,,,,,,,,,,,,,,,,,,,,,,,,,,,,,,,,,,,,1028.3799652396701,None,,,1031.4118171888404,None,1.5571428571428572,1.6826458820141852,1031.4118171888404,None,,,,,,,1029.3955762400292,None,1029.578755761031,1029.5955407996662,,,,,,,162,001,2024_Feb_07_1401,SpeechDraft1Carolyn_lessNoise_PlusLocalization,2021.2.3,59.95299515384036,
,,,,,,,,nearLeft,-6.5,1,ch1Sound_localizationTask.wav,-6.5,"(857, 878)","(-103,-202)",-95,-338,,,,,,,,,,,,,6,1,43,2,,,,,,,,,,,,,,,,,,,,,,,,,,,,,,,,,,,,,,,,1033.0965538918972,None,,,1036.111875409726,None,1.4417989417989419,1.2828888040967286,1036.111875409726,None,,,,,,,1034.095536287874,None,1034.278911598958,1034.2954827710055,,,,,,,162,001,2024_Feb_07_1401,SpeechDraft1Carolyn_lessNoise_PlusLocalization,2021.2.3,59.95299515384036,
,,,,,,,,nearRight,6.5,0,ch1Sound_localizationTask.wav,6.5,"(1047, 878)","(87, -202)",95,-338,,,,,,,,,,,,,6,2,44,4,,,,,,,,,,,,,,,,,,,,,,,,,,,,,,,,,,,,,,,,1037.412106087897,None,,,1040.4284689007327,None,1.5597883597883597,1.365590389817953,1040.4284689007327,None,,,,,,,1038.41230716696,None,1038.5954482518137,1038.6122365798801,,,,,,,162,001,2024_Feb_07_1401,SpeechDraft1Carolyn_lessNoise_PlusLocalization,2021.2.3,59.95299515384036,
,,,,,,,,midRight,13.0,3,ch1Sound_localizationTask.wav,13.0,"(1142, 878)","(182, -202)",190,-338,,,,,,,,,,,,,6,3,45,5,,,,,,,,,,,,,,,,,,,,,,,,,,,,,,,,,,,,,,,,1041.796397374943,None,,,1044.8118283106014,None,1.602116402116402,1.2157930741086602,1044.8118283106014,None,,,,,,,1042.7955715777352,None,1042.9789450108074,1042.9956435468048,,,,,,,162,001,2024_Feb_07_1401,SpeechDraft1Carolyn_lessNoise_PlusLocalization,2021.2.3,59.95299515384036,
,,,,,,,,farLeft,-19.1,5,ch1Sound_localizationTask.wav,-19.1,"(667, 878)","(-293,-202)",-285,-338,,,,,,,,,,,,,6,4,46,0,,,,,,,,,,,,,,,,,,,,,,,,,,,,,,,,,,,,,,,,1046.029658949934,None,,,1049.0452149356715,None,1.3603174603174604,1.3837390411645174,1049.0452149356715,None,,,,,,,1047.028820937965,None,1047.2121635559015,1047.2288019666448,,,,,,,162,001,2024_Feb_07_1401,SpeechDraft1Carolyn_lessNoise_PlusLocalization,2021.2.3,59.95299515384036,
,,,,,,,,nearLeft,-6.5,1,ch1Sound_localizationTask.wav,-6.5,"(857, 878)","(-103,-202)",-95,-338,,,,,,,,,,,,,6,5,47,2,,,,,,,,,,,,,,,,,,,,,,,,,,,,,,,,,,,,,,,,1050.4456612518989,None,,,1053.4619419286028,None,1.447089947089947,1.2822322929278016,1053.4619419286028,None,,,,,,,1051.445535699837,None,1051.628852242604,1051.6453839070164,,,,,,,162,001,2024_Feb_07_1401,SpeechDraft1Carolyn_lessNoise_PlusLocalization,2021.2.3,59.95299515384036,
,,,,,,,,midLeft,-13.0,2,ch1Sound_localizationTask.wav,-13.0,"(762, 878)","(-198,-202)",-190,-338,,,,,,,,,,,,,6,6,48,1,,,,,,,,,,,,,,,,,,,,,,,,,,,,,,,,,,,,,,,,1054.7459286856465,None,,,1057.7620897218585,None,1.3952380952380952,1.8828082922846079,1057.7620897218585,None,,,,,,,1055.7455036039464,None,1055.9288299526088,1055.945659542922,,,,,,,162,001,2024_Feb_07_1401,SpeechDraft1Carolyn_lessNoise_PlusLocalization,2021.2.3,59.95299515384036,
,,,,,,,,nearLeft,-6.5,1,ch1Sound_localizationTask.wav,-6.5,"(857, 878)","(-103,-202)",-95,-338,,,,,,,,,,,,,7,0,49,2,,,,,,,,,,,,,,,,,,,,,,,,,,,,,,,,,,,,,,,,1059.646975880023,None,,,1062.6786303999834,None,1.4343915343915343,1.032634919974953,1062.6786303999834,None,,,,,,,1060.6622117268853,None,1060.8455366538838,1060.8621975556016,,,,,,,162,001,2024_Feb_07_1401,SpeechDraft1Carolyn_lessNoise_PlusLocalization,2021.2.3,59.95299515384036,
,,,,,,,,center,0.0,6,ch1Sound_localizationTask.wav,0.0,"(952, 878)","(-8,-202)",0,-338,,,,,,,,,,,,,7,1,50,3,,,,,,,,,,,,,,,,,,,,,,,,,,,,,,,,,,,,,,,,1063.7130346889608,None,,,1066.7284259418957,None,1.5010582010582012,1.6328095011413097,1066.7284259418957,None,,,,,,,1064.7121973116882,None,1064.895471144002,1064.9121107617393,,,,,,,162,001,2024_Feb_07_1401,SpeechDraft1Carolyn_lessNoise_PlusLocalization,2021.2.3,59.95299515384036,
,,,,,,,,center,0.0,6,ch1Sound_localizationTask.wav,0.0,"(952, 878)","(-8,-202)",0,-338,,,,,,,,,,,,,7,2,51,3,,,,,,,,,,,,,,,,,,,,,,,,,,,,,,,,,,,,,,,,1068.3789464849979,None,,,1071.395088790916,None,1.498941798941799,1.8328232918865979,1071.395088790916,None,,,,,,,1069.3787527410313,None,1069.562110548839,1069.5787961767055,,,,,,,162,001,2024_Feb_07_1401,SpeechDraft1Carolyn_lessNoise_PlusLocalization,2021.2.3,59.95299515384036,
,,,,,,,,farLeft,-19.1,5,ch1Sound_localizationTask.wav,-19.1,"(667, 878)","(-293,-202)",-285,-338,,,,,,,,,,,,,7,3,52,0,,,,,,,,,,,,,,,,,,,,,,,,,,,,,,,,,,,,,,,,1073.2303039347753,None,,,1076.2619896046817,None,1.361904761904762,1.4023215756751597,1076.2619896046817,None,,,,,,,1074.2455370249227,None,1074.4289470165968,1074.445537225809,,,,,,,162,001,2024_Feb_07_1401,SpeechDraft1Carolyn_lessNoise_PlusLocalization,2021.2.3,59.95299515384036,
,,,,,,,,midRight,13.0,3,ch1Sound_localizationTask.wav,13.0,"(1142, 878)","(182, -202)",190,-338,,,,,,,,,,,,,7,4,53,5,,,,,,,,,,,,,,,,,,,,,,,,,,,,,,,,,,,,,,,,1077.6956285010092,None,,,1080.7119430326857,None,1.6142857142857143,1.6823915299028158,1080.7119430326857,None,,,,,,,1078.6954911546782,None,1078.8788969018497,1078.8955421098508,,,,,,,162,001,2024_Feb_07_1401,SpeechDraft1Carolyn_lessNoise_PlusLocalization,2021.2.3,59.95299515384036,
,,,,,,,,nearRight,6.5,0,ch1Sound_localizationTask.wav,6.5,"(1047, 878)","(87, -202)",95,-338,,,,,,,,,,,,,7,5,54,4,,,,,,,,,,,,,,,,,,,,,,,,,,,,,,,,,,,,,,,,1082.4123346819542,None,,,1085.4284086418338,None,1.546031746031746,1.0168753359466791,1085.4284086418338,None,,,,,,,1083.4123766128905,None,1083.5956296417862,1083.6122449040413,,,,,,,162,001,2024_Feb_07_1401,SpeechDraft1Carolyn_lessNoise_PlusLocalization,2021.2.3,59.95299515384036,
,,,,,,,,midRight,13.0,3,ch1Sound_localizationTask.wav,13.0,"(1142, 878)","(182, -202)",190,-338,,,,,,,,,,,,,7,6,55,5,,,,,,,,,,,,,,,,,,,,,,,,,,,,,,,,,,,,,,,,1086.4620748287998,None,,,1089.4785997536965,None,1.5962962962962963,1.4326031738892198,1089.4785997536965,None,,,,,,,1087.462239912711,None,1087.6455900347792,1087.662243542727,,,,,,,162,001,2024_Feb_07_1401,SpeechDraft1Carolyn_lessNoise_PlusLocalization,2021.2.3,59.95299515384036,
,,,,,,,,,,,,,,,,,,,,,,,,,,,,,,,,,,,,,,,,,,,,,,,,,,,,,,,,,,,,,,,,,,,,,,,,,,,,,,,,,,,,,,,,,,,,1090.9289620066993,None,c,115.83392436010763,1091.9123615296558,None,162,001,2024_Feb_07_1401,SpeechDraft1Carolyn_lessNoise_PlusLocalization,2021.2.3,59.95299515384036,
