{"meta_data":{"additional_headers":{},"game_name":"Recollect","version":"2.53.01","user_name":"162","organization":"braingamecenter","study":"mpl2_2022_11","session_number":0,"device_id":"74342D95-EE82-45E3-8ADF-48FB3203C5DD"},"data":[{"stage":"Practice","trial":0,"sequence":"6F","letter_input":"F","number_input":"6","is_correct":true,"presentation_start_time":1707338622556.06,"presentation_end_time":1707338625558.78,"response_time":1707338632022.82},{"stage":"Practice","trial":1,"sequence":"G4","letter_input":"G","number_input":"4","is_correct":true,"presentation_start_time":1707338633552.47,"presentation_end_time":1707338636555.26,"response_time":1707338642916.18},{"stage":"Practice","trial":2,"sequence":"3W5","letter_input":"W","number_input":"35","is_correct":true,"presentation_start_time":1707338644448.91,"presentation_end_time":1707338648951.08,"response_time":1707338654645.56},{"stage":"Practice","trial":3,"sequence":"T7L","letter_input":"LT","number_input":"7","is_correct":true,"presentation_start_time":1707338656178.25,"presentation_end_time":1707338660680.65,"response_time":1707338667741.25},{"stage":"Practice","trial":4,"sequence":"9J1","letter_input":"J","number_input":"19","is_correct":true,"presentation_start_time":1707338669274.02,"presentation_end_time":1707338673776.15,"response_time":1707338681819.95},{"stage":"Calibration","trial":0,"sequence":"H3","letter_input":"H","number_input":"3","is_correct":true,"presentation_start_time":1707338692349.69,"presentation_end_time":1707338695352.49,"response_time":1707338698897.66},{"stage":"Calibration","trial":1,"sequence":"8Y","letter_input":"Y","number_input":"8","is_correct":true,"presentation_start_time":1707338700430.39,"presentation_end_time":1707338703433.17,"response_time":1707338707761.4},{"stage":"Calibration","trial":2,"sequence":"H4D","letter_input":"DH","number_input":"4","is_correct":true,"presentation_start_time":1707338709294.08,"presentation_end_time":1707338713796.08,"response_time":1707338719757.39},{"stage":"Calibration","trial":3,"sequence":"8J1","letter_input":"J","number_input":"18","is_correct":true,"presentation_start_time":1707338721290.08,"presentation_end_time":1707338725792.33,"response_time":1707338733119.71},{"stage":"Calibration","trial":4,"sequence":"W6E2","letter_input":"EW","number_input":"26","is_correct":true,"presentation_start_time":1707338734652.35,"presentation_end_time":1707338740654.24,"response_time":1707338746848.43},{"stage":"Calibration","trial":5,"sequence":"7J5D","letter_input":"DJ","number_input":"57","is_correct":true,"presentation_start_time":1707338748381.17,"presentation_end_time":1707338754383.03,"response_time":1707338763093.07},{"stage":"Calibration","trial":6,"sequence":"Y6N1H","letter_input":"HNY","number_input":"16","is_correct":true,"presentation_start_time":1707338764625.79,"presentation_end_time":1707338772127.03,"response_time":1707338786668.68},{"stage":"Calibration","trial":7,"sequence":"9V5R3","letter_input":"RV","number_input":"359","is_correct":true,"presentation_start_time":1707338788201.31,"presentation_end_time":1707338795702.63,"response_time":1707338806478.75},{"stage":"Calibration","trial":8,"sequence":"M7S4P1","letter_input":"MPS","number_input":"147","is_correct":true,"presentation_start_time":1707338808011.62,"presentation_end_time":1707338817012.32,"response_time":1707338829137.96},{"stage":"Calibration","trial":9,"sequence":"8H5A2J","letter_input":"AHJ","number_input":"258","is_correct":true,"presentation_start_time":1707338830670.69,"presentation_end_time":1707338839671.42,"response_time":1707338854796.11},{"stage":"Calibration","trial":10,"sequence":"G4B1V6L","letter_input":"BGHL","number_input":"146","is_correct":false,"presentation_start_time":1707338856328.83,"presentation_end_time":1707338866829,"response_time":1707338894732.93},{"stage":"Calibration","trial":11,"sequence":"9C7J5F2","letter_input":"CFJL","number_input":"2579","is_correct":false,"presentation_start_time":1707338896265.64,"presentation_end_time":1707338906765.91,"response_time":1707338932437.17}]}