{"meta_data":{"additional_headers":{},"game_name":"Recollect","version":"2.53.01","user_name":"162","organization":"braingamecenter","study":"mpl2_2022_11","session_number":0,"device_id":"74342D95-EE82-45E3-8ADF-48FB3203C5DD"},"data":[{"trial":0,"action":1,"button_pressed":4,"time_out":false,"dwell_time":48.7138671875,"response_time":1707338242484.62},{"trial":0,"action":1,"button_pressed":11,"time_out":false,"dwell_time":15.01806640625,"response_time":1707338242566.43},{"trial":0,"action":9,"button_pressed":-1,"time_out":false,"dwell_time":91.6708984375,"response_time":1707338243393.66},{"trial":1,"action":1,"button_pressed":6,"time_out":false,"dwell_time":12.5458984375,"response_time":1707338252762.76},{"trial":1,"action":1,"button_pressed":5,"time_out":false,"dwell_time":48.33203125,"response_time":1707338253213.96},{"trial":1,"action":1,"button_pressed":4,"time_out":false,"dwell_time":30.346923828125,"response_time":1707338253446.6},{"trial":1,"action":9,"button_pressed":-1,"time_out":false,"dwell_time":64.239990234375,"response_time":1707338253797.12},{"trial":2,"action":1,"button_pressed":3,"time_out":false,"dwell_time":31.302978515625,"response_time":1707338265843.44},{"trial":2,"action":1,"button_pressed":5,"time_out":false,"dwell_time":47.62109375,"response_time":1707338266175.68},{"trial":2,"action":1,"button_pressed":9,"time_out":false,"dwell_time":47.368896484375,"response_time":1707338266393.11},{"trial":2,"action":1,"button_pressed":2,"time_out":false,"dwell_time":30.315185546875,"response_time":1707338266625.51},{"trial":2,"action":9,"button_pressed":-1,"time_out":false,"dwell_time":30.87109375,"response_time":1707338267142.51},{"trial":3,"action":1,"button_pressed":4,"time_out":false,"dwell_time":64.003173828125,"response_time":1707338281653.66},{"trial":3,"action":1,"button_pressed":11,"time_out":false,"dwell_time":47.77392578125,"response_time":1707338281854.09},{"trial":3,"action":1,"button_pressed":5,"time_out":false,"dwell_time":64.672119140625,"response_time":1707338282137.34},{"trial":3,"action":1,"button_pressed":3,"time_out":false,"dwell_time":80.717041015625,"response_time":1707338282420.67},{"trial":3,"action":1,"button_pressed":9,"time_out":false,"dwell_time":47.64111328125,"response_time":1707338282820.95},{"trial":3,"action":9,"button_pressed":-1,"time_out":false,"dwell_time":48.39404296875,"response_time":1707338283737},{"trial":4,"action":1,"button_pressed":8,"time_out":false,"dwell_time":130.760986328125,"response_time":1707338300947.27},{"trial":4,"action":1,"button_pressed":0,"time_out":false,"dwell_time":79.89306640625,"response_time":1707338301430.37},{"trial":4,"action":1,"button_pressed":3,"time_out":false,"dwell_time":63.42919921875,"response_time":1707338301880.44},{"trial":4,"action":1,"button_pressed":9,"time_out":false,"dwell_time":46.64306640625,"response_time":1707338302263.67},{"trial":4,"action":1,"button_pressed":1,"time_out":false,"dwell_time":79.720947265625,"response_time":1707338304096.06},{"trial":4,"action":1,"button_pressed":5,"time_out":false,"dwell_time":64.570068359375,"response_time":1707338304596.47},{"trial":4,"action":9,"button_pressed":-1,"time_out":false,"dwell_time":64.636962890625,"response_time":1707338305262.81},{"trial":5,"action":1,"button_pressed":11,"time_out":false,"dwell_time":97.3759765625,"response_time":1707338322390.86},{"trial":5,"action":1,"button_pressed":8,"time_out":false,"dwell_time":81.18310546875,"response_time":1707338322557.38},{"trial":5,"action":1,"button_pressed":6,"time_out":false,"dwell_time":46.713134765625,"response_time":1707338322923.63},{"trial":5,"action":1,"button_pressed":4,"time_out":false,"dwell_time":64.2939453125,"response_time":1707338323073.38},{"trial":5,"action":1,"button_pressed":1,"time_out":false,"dwell_time":47.612060546875,"response_time":1707338323257.45},{"trial":5,"action":1,"button_pressed":10,"time_out":false,"dwell_time":47.381103515625,"response_time":1707338323406.83},{"trial":5,"action":9,"button_pressed":-1,"time_out":false,"dwell_time":16.505859375,"response_time":1707338324089.68},{"trial":6,"action":1,"button_pressed":9,"time_out":false,"dwell_time":31.287109375,"response_time":1707338343733.6},{"trial":6,"action":1,"button_pressed":7,"time_out":false,"dwell_time":80.9990234375,"response_time":1707338344200.1},{"trial":6,"action":1,"button_pressed":4,"time_out":false,"dwell_time":30.302978515625,"response_time":1707338344733.05},{"trial":6,"action":1,"button_pressed":1,"time_out":false,"dwell_time":80.666015625,"response_time":1707338345249.12},{"trial":6,"action":1,"button_pressed":11,"time_out":false,"dwell_time":64.6640625,"response_time":1707338345633.05},{"trial":6,"action":1,"button_pressed":6,"time_out":false,"dwell_time":48.2919921875,"response_time":1707338345900.14},{"trial":6,"action":1,"button_pressed":8,"time_out":false,"dwell_time":63.828125,"response_time":1707338346232.14},{"trial":6,"action":9,"button_pressed":-1,"time_out":false,"dwell_time":64.530029296875,"response_time":1707338346982.33},{"trial":7,"action":1,"button_pressed":8,"time_out":false,"dwell_time":80.421875,"response_time":1707338368825.69},{"trial":7,"action":1,"button_pressed":9,"time_out":false,"dwell_time":62.716064453125,"response_time":1707338369374.5},{"trial":7,"action":1,"button_pressed":2,"time_out":false,"dwell_time":97.4208984375,"response_time":1707338370074.28},{"trial":7,"action":1,"button_pressed":10,"time_out":false,"dwell_time":79.553955078125,"response_time":1707338370524.13},{"trial":7,"action":1,"button_pressed":4,"time_out":false,"dwell_time":46.72705078125,"response_time":1707338371091.03},{"trial":7,"action":1,"button_pressed":1,"time_out":false,"dwell_time":80.658935546875,"response_time":1707338371423.99},{"trial":7,"action":1,"button_pressed":5,"time_out":false,"dwell_time":62.95703125,"response_time":1707338371756.9},{"trial":7,"action":9,"button_pressed":-1,"time_out":false,"dwell_time":130.91796875,"response_time":1707338373124.49},{"trial":8,"action":1,"button_pressed":1,"time_out":false,"dwell_time":47.81494140625,"response_time":1707338395349.8},{"trial":8,"action":1,"button_pressed":10,"time_out":false,"dwell_time":46.74609375,"response_time":1707338395966.1},{"trial":8,"action":1,"button_pressed":0,"time_out":false,"dwell_time":63.533935546875,"response_time":1707338396565.42},{"trial":8,"action":1,"button_pressed":3,"time_out":false,"dwell_time":97.0458984375,"response_time":1707338398264.88},{"trial":8,"action":1,"button_pressed":4,"time_out":false,"dwell_time":79.64794921875,"response_time":1707338400497.53},{"trial":8,"action":1,"button_pressed":2,"time_out":false,"dwell_time":80.10791015625,"response_time":1707338401663.78},{"trial":8,"action":1,"button_pressed":7,"time_out":false,"dwell_time":113.10888671875,"response_time":1707338401930.62},{"trial":8,"action":1,"button_pressed":9,"time_out":false,"dwell_time":30.0419921875,"response_time":1707338402130.89},{"trial":8,"action":9,"button_pressed":-1,"time_out":false,"dwell_time":163.612060546875,"response_time":1707338403747.05},{"trial":9,"action":1,"button_pressed":9,"time_out":false,"dwell_time":47.132080078125,"response_time":1707338421241.7},{"trial":9,"action":1,"button_pressed":1,"time_out":false,"dwell_time":113.810791015625,"response_time":1707338421524.06},{"trial":9,"action":1,"button_pressed":2,"time_out":false,"dwell_time":63.4169921875,"response_time":1707338421741.07},{"trial":9,"action":1,"button_pressed":8,"time_out":false,"dwell_time":46.572998046875,"response_time":1707338422274.1},{"trial":9,"action":1,"button_pressed":6,"time_out":false,"dwell_time":63.87109375,"response_time":1707338422490.63},{"trial":9,"action":1,"button_pressed":11,"time_out":false,"dwell_time":64.44384765625,"response_time":1707338422657.74},{"trial":9,"action":9,"button_pressed":-1,"time_out":false,"dwell_time":98.166015625,"response_time":1707338428073.03},{"trial":10,"action":1,"button_pressed":11,"time_out":false,"dwell_time":30.14697265625,"response_time":1707338447632.55},{"trial":10,"action":1,"button_pressed":4,"time_out":false,"dwell_time":64.384033203125,"response_time":1707338448215.56},{"trial":10,"action":1,"button_pressed":3,"time_out":false,"dwell_time":46.9541015625,"response_time":1707338448465.6},{"trial":10,"action":1,"button_pressed":10,"time_out":false,"dwell_time":96.154052734375,"response_time":1707338448815.01},{"trial":10,"action":1,"button_pressed":2,"time_out":false,"dwell_time":130.677978515625,"response_time":1707338449149.16},{"trial":10,"action":1,"button_pressed":8,"time_out":false,"dwell_time":80.503173828125,"response_time":1707338449332.34},{"trial":10,"action":1,"button_pressed":1,"time_out":false,"dwell_time":64.4130859375,"response_time":1707338449532.15},{"trial":10,"action":9,"button_pressed":-1,"time_out":false,"dwell_time":81.843994140625,"response_time":1707338450132.37},{"trial":11,"action":1,"button_pressed":7,"time_out":false,"dwell_time":48.717041015625,"response_time":1707338472491.76},{"trial":11,"action":1,"button_pressed":2,"time_out":false,"dwell_time":64.35986328125,"response_time":1707338474373.82},{"trial":11,"action":1,"button_pressed":3,"time_out":false,"dwell_time":64.333984375,"response_time":1707338474807.12},{"trial":11,"action":1,"button_pressed":4,"time_out":false,"dwell_time":47.718994140625,"response_time":1707338475023.49},{"trial":11,"action":1,"button_pressed":1,"time_out":false,"dwell_time":30.066162109375,"response_time":1707338475540},{"trial":11,"action":1,"button_pressed":10,"time_out":false,"dwell_time":63.654052734375,"response_time":1707338477023.15},{"trial":11,"action":1,"button_pressed":5,"time_out":false,"dwell_time":81.826904296875,"response_time":1707338477823.07},{"trial":11,"action":1,"button_pressed":8,"time_out":false,"dwell_time":47.6171875,"response_time":1707338478156.58},{"trial":11,"action":1,"button_pressed":8,"time_out":false,"dwell_time":47.27197265625,"response_time":1707338479222.02},{"trial":11,"action":1,"button_pressed":8,"time_out":false,"dwell_time":63.1630859375,"response_time":1707338480171.3},{"trial":11,"action":1,"button_pressed":8,"time_out":false,"dwell_time":80.842041015625,"response_time":1707338480838.44},{"trial":11,"action":1,"button_pressed":8,"time_out":false,"dwell_time":80.43994140625,"response_time":1707338481021.04},{"trial":11,"action":1,"button_pressed":8,"time_out":false,"dwell_time":97.18896484375,"response_time":1707338481204.37},{"trial":11,"action":1,"button_pressed":8,"time_out":false,"dwell_time":113.195068359375,"response_time":1707338481387.84},{"trial":11,"action":1,"button_pressed":8,"time_out":false,"dwell_time":96.94482421875,"response_time":1707338481621.53},{"trial":11,"action":1,"button_pressed":8,"time_out":false,"dwell_time":80.5400390625,"response_time":1707338481804.21},{"trial":11,"action":1,"button_pressed":8,"time_out":false,"dwell_time":380.610107421875,"response_time":1707338482254.21},{"trial":11,"action":1,"button_pressed":8,"time_out":false,"dwell_time":63.44091796875,"response_time":1707338482404.21},{"trial":11,"action":1,"button_pressed":8,"time_out":false,"dwell_time":96.696044921875,"response_time":1707338483137.12},{"trial":11,"action":1,"button_pressed":8,"time_out":false,"dwell_time":80.6611328125,"response_time":1707338483303.69},{"trial":11,"action":1,"button_pressed":8,"time_out":false,"dwell_time":12.926025390625,"response_time":1707338483453.56},{"trial":11,"action":0,"button_pressed":-1,"time_out":false,"dwell_time":148.129150390625,"response_time":1707338489352.53},{"trial":11,"action":1,"button_pressed":7,"time_out":false,"dwell_time":63.657958984375,"response_time":1707338490284.58},{"trial":11,"action":1,"button_pressed":2,"time_out":false,"dwell_time":30.190185546875,"response_time":1707338492901.04},{"trial":11,"action":1,"button_pressed":3,"time_out":false,"dwell_time":64.48193359375,"response_time":1707338493501.07},{"trial":11,"action":1,"button_pressed":1,"time_out":false,"dwell_time":63.048095703125,"response_time":1707338494366.69},{"trial":11,"action":1,"button_pressed":10,"time_out":false,"dwell_time":64.2890625,"response_time":1707338495416.87},{"trial":11,"action":1,"button_pressed":5,"time_out":false,"dwell_time":113.7080078125,"response_time":1707338495832.74},{"trial":11,"action":1,"button_pressed":8,"time_out":false,"dwell_time":63.01708984375,"response_time":1707338495932.82},{"trial":11,"action":9,"button_pressed":-1,"time_out":false,"dwell_time":65.22412109375,"response_time":1707338496717.15},{"trial":12,"action":1,"button_pressed":9,"time_out":false,"dwell_time":31.81689453125,"response_time":1707338518893.26},{"trial":12,"action":1,"button_pressed":7,"time_out":false,"dwell_time":30.876953125,"response_time":1707338519376.12},{"trial":12,"action":1,"button_pressed":4,"time_out":false,"dwell_time":48.090087890625,"response_time":1707338519842.62},{"trial":12,"action":1,"button_pressed":10,"time_out":false,"dwell_time":30.06005859375,"response_time":1707338520175.26},{"trial":12,"action":1,"button_pressed":3,"time_out":false,"dwell_time":47.35498046875,"response_time":1707338520691.61},{"trial":12,"action":1,"button_pressed":8,"time_out":false,"dwell_time":130.990966796875,"response_time":1707338521075.34},{"trial":12,"action":1,"button_pressed":5,"time_out":false,"dwell_time":80.59619140625,"response_time":1707338521341.08},{"trial":12,"action":1,"button_pressed":11,"time_out":false,"dwell_time":47.406982421875,"response_time":1707338521508.1},{"trial":12,"action":9,"button_pressed":-1,"time_out":false,"dwell_time":32.465087890625,"response_time":1707338522275.79},{"trial":13,"action":1,"button_pressed":7,"time_out":false,"dwell_time":64.7041015625,"response_time":1707338546866.79},{"trial":13,"action":1,"button_pressed":1,"time_out":false,"dwell_time":47.554931640625,"response_time":1707338547300.26},{"trial":13,"action":1,"button_pressed":10,"time_out":false,"dwell_time":80.308837890625,"response_time":1707338547615.72},{"trial":13,"action":1,"button_pressed":0,"time_out":false,"dwell_time":47.287109375,"response_time":1707338548299.1},{"trial":13,"action":1,"button_pressed":9,"time_out":false,"dwell_time":63.43701171875,"response_time":1707338549599.11},{"trial":13,"action":1,"button_pressed":6,"time_out":false,"dwell_time":47.447998046875,"response_time":1707338550015.28},{"trial":13,"action":1,"button_pressed":8,"time_out":false,"dwell_time":63.7548828125,"response_time":1707338550232.26},{"trial":13,"action":1,"button_pressed":2,"time_out":false,"dwell_time":30.85693359375,"response_time":1707338550532.57},{"trial":13,"action":9,"button_pressed":-1,"time_out":false,"dwell_time":16.7138671875,"response_time":1707338552980.82},{"trial":14,"action":1,"button_pressed":6,"time_out":false,"dwell_time":64.76123046875,"response_time":1707338578589.78},{"trial":14,"action":1,"button_pressed":7,"time_out":false,"dwell_time":30.136962890625,"response_time":1707338578755.91},{"trial":14,"action":1,"button_pressed":8,"time_out":false,"dwell_time":63.5009765625,"response_time":1707338579205.23},{"trial":14,"action":1,"button_pressed":10,"time_out":false,"dwell_time":47.74609375,"response_time":1707338580189.53},{"trial":14,"action":1,"button_pressed":4,"time_out":false,"dwell_time":63.619873046875,"response_time":1707338580621.38},{"trial":14,"action":1,"button_pressed":11,"time_out":false,"dwell_time":46.9580078125,"response_time":1707338581371.66},{"trial":14,"action":1,"button_pressed":1,"time_out":false,"dwell_time":63.52001953125,"response_time":1707338581854.29},{"trial":14,"action":1,"button_pressed":3,"time_out":false,"dwell_time":79.9150390625,"response_time":1707338582087.76},{"trial":14,"action":1,"button_pressed":2,"time_out":false,"dwell_time":46.7490234375,"response_time":1707338582654.61},{"trial":14,"action":9,"button_pressed":-1,"time_out":false,"dwell_time":65.407958984375,"response_time":1707338584954.65}]}