{"meta_data":{"additional_headers":{},"game_name":"Recollect","version":"2.53.01","user_name":"163","organization":"braingamecenter","study":"mpl2_2022_11","session_number":0,"device_id":"74342D95-EE82-45E3-8ADF-48FB3203C5DD"},"data":[{"trial":0,"action":1,"button_pressed":1,"time_out":false,"dwell_time":48.10009765625,"response_time":1707942835516.54},{"trial":0,"action":1,"button_pressed":5,"time_out":false,"dwell_time":48.673095703125,"response_time":1707942835999.54},{"trial":0,"action":9,"button_pressed":-1,"time_out":false,"dwell_time":59.609130859375,"response_time":1707942836610.11},{"trial":1,"action":1,"button_pressed":2,"time_out":false,"dwell_time":31.3349609375,"response_time":1707942846078.99},{"trial":1,"action":1,"button_pressed":4,"time_out":false,"dwell_time":48.281005859375,"response_time":1707942846545.97},{"trial":1,"action":1,"button_pressed":1,"time_out":false,"dwell_time":30.39599609375,"response_time":1707942846994.99},{"trial":1,"action":9,"button_pressed":-1,"time_out":false,"dwell_time":48.382080078125,"response_time":1707942847529.25},{"trial":2,"action":1,"button_pressed":8,"time_out":false,"dwell_time":30.7060546875,"response_time":1707942859357.67},{"trial":2,"action":1,"button_pressed":1,"time_out":false,"dwell_time":47.68212890625,"response_time":1707942859907.25},{"trial":2,"action":1,"button_pressed":3,"time_out":false,"dwell_time":47.35205078125,"response_time":1707942860174.11},{"trial":2,"action":1,"button_pressed":11,"time_out":false,"dwell_time":48.580810546875,"response_time":1707942860624.4},{"trial":2,"action":9,"button_pressed":-1,"time_out":false,"dwell_time":31.016845703125,"response_time":1707942861273.92},{"trial":3,"action":1,"button_pressed":10,"time_out":false,"dwell_time":48.95703125,"response_time":1707942875802.87},{"trial":3,"action":1,"button_pressed":5,"time_out":false,"dwell_time":63.322021484375,"response_time":1707942876367.95},{"trial":3,"action":1,"button_pressed":3,"time_out":false,"dwell_time":63.890869140625,"response_time":1707942876901.67},{"trial":3,"action":1,"button_pressed":6,"time_out":false,"dwell_time":47.920166015625,"response_time":1707942877168.87},{"trial":3,"action":1,"button_pressed":2,"time_out":false,"dwell_time":30.989013671875,"response_time":1707942877717.8},{"trial":3,"action":9,"button_pressed":-1,"time_out":false,"dwell_time":30.85205078125,"response_time":1707942878184.72},{"trial":4,"action":1,"button_pressed":3,"time_out":false,"dwell_time":64.487060546875,"response_time":1707942895161.94},{"trial":4,"action":1,"button_pressed":7,"time_out":false,"dwell_time":47.921875,"response_time":1707942895562.73},{"trial":4,"action":1,"button_pressed":10,"time_out":false,"dwell_time":63.921875,"response_time":1707942896178.41},{"trial":4,"action":1,"button_pressed":4,"time_out":false,"dwell_time":63.97900390625,"response_time":1707942896527.69},{"trial":4,"action":1,"button_pressed":2,"time_out":false,"dwell_time":47.7548828125,"response_time":1707942896845.51},{"trial":4,"action":1,"button_pressed":9,"time_out":false,"dwell_time":47.60302734375,"response_time":1707942897195.06},{"trial":4,"action":9,"button_pressed":-1,"time_out":false,"dwell_time":16.68896484375,"response_time":1707942897794.37},{"trial":5,"action":1,"button_pressed":9,"time_out":false,"dwell_time":48.01708984375,"response_time":1707942915339.33},{"trial":5,"action":1,"button_pressed":1,"time_out":false,"dwell_time":64.737060546875,"response_time":1707942915655.33},{"trial":5,"action":1,"button_pressed":2,"time_out":false,"dwell_time":64.134033203125,"response_time":1707942916154.43},{"trial":5,"action":1,"button_pressed":8,"time_out":false,"dwell_time":64.3349609375,"response_time":1707942916438.5},{"trial":5,"action":1,"button_pressed":11,"time_out":false,"dwell_time":46.902099609375,"response_time":1707942916837.89},{"trial":5,"action":1,"button_pressed":3,"time_out":false,"dwell_time":47.941162109375,"response_time":1707942917854.31},{"trial":5,"action":9,"button_pressed":-1,"time_out":false,"dwell_time":16.581787109375,"response_time":1707942919220.3},{"trial":6,"action":1,"button_pressed":3,"time_out":false,"dwell_time":64.996826171875,"response_time":1707942931400.26},{"trial":6,"action":1,"button_pressed":5,"time_out":false,"dwell_time":63.97607421875,"response_time":1707942931765.93},{"trial":6,"action":1,"button_pressed":9,"time_out":false,"dwell_time":64.669189453125,"response_time":1707942932383.03},{"trial":6,"action":1,"button_pressed":2,"time_out":false,"dwell_time":31.39990234375,"response_time":1707942932849.51},{"trial":6,"action":9,"button_pressed":-1,"time_out":false,"dwell_time":49.3779296875,"response_time":1707942933650.21},{"trial":7,"action":1,"button_pressed":4,"time_out":false,"dwell_time":48.559814453125,"response_time":1707942948112.25},{"trial":7,"action":1,"button_pressed":11,"time_out":false,"dwell_time":47.7548828125,"response_time":1707942948560.65},{"trial":7,"action":1,"button_pressed":5,"time_out":false,"dwell_time":47.672119140625,"response_time":1707942949061.27},{"trial":7,"action":1,"button_pressed":3,"time_out":false,"dwell_time":47.695068359375,"response_time":1707942949443.65},{"trial":7,"action":1,"button_pressed":9,"time_out":false,"dwell_time":47.906005859375,"response_time":1707942949761.2},{"trial":7,"action":9,"button_pressed":-1,"time_out":false,"dwell_time":64.5380859375,"response_time":1707942951109.75},{"trial":8,"action":1,"button_pressed":11,"time_out":false,"dwell_time":81.51708984375,"response_time":1707942967854.53},{"trial":8,"action":1,"button_pressed":8,"time_out":false,"dwell_time":63.93408203125,"response_time":1707942968370.92},{"trial":8,"action":1,"button_pressed":6,"time_out":false,"dwell_time":47.923828125,"response_time":1707942968787.96},{"trial":8,"action":1,"button_pressed":1,"time_out":false,"dwell_time":47.030029296875,"response_time":1707942969403.66},{"trial":8,"action":1,"button_pressed":10,"time_out":false,"dwell_time":46.97705078125,"response_time":1707942969786.77},{"trial":8,"action":1,"button_pressed":1,"time_out":false,"dwell_time":47.580078125,"response_time":1707942970819.53},{"trial":8,"action":1,"button_pressed":10,"time_out":false,"dwell_time":47.233154296875,"response_time":1707942971452.82},{"trial":8,"action":1,"button_pressed":4,"time_out":false,"dwell_time":63.9091796875,"response_time":1707942972036.16},{"trial":8,"action":1,"button_pressed":4,"time_out":false,"dwell_time":81.426025390625,"response_time":1707942972702.53},{"trial":8,"action":1,"button_pressed":10,"time_out":false,"dwell_time":47.828857421875,"response_time":1707942973285.57},{"trial":8,"action":1,"button_pressed":10,"time_out":false,"dwell_time":47.907958984375,"response_time":1707942973868.72},{"trial":8,"action":0,"button_pressed":-1,"time_out":false,"dwell_time":48.06396484375,"response_time":1707942974419.43},{"trial":8,"action":1,"button_pressed":11,"time_out":false,"dwell_time":63.802978515625,"response_time":1707942975084.37},{"trial":8,"action":1,"button_pressed":8,"time_out":false,"dwell_time":47.809814453125,"response_time":1707942975535.49},{"trial":8,"action":1,"button_pressed":6,"time_out":false,"dwell_time":64.701904296875,"response_time":1707942975918.12},{"trial":8,"action":1,"button_pressed":1,"time_out":false,"dwell_time":64.092041015625,"response_time":1707942976834.11},{"trial":8,"action":1,"button_pressed":4,"time_out":false,"dwell_time":64.06591796875,"response_time":1707942977167.11},{"trial":8,"action":1,"button_pressed":10,"time_out":false,"dwell_time":48.504150390625,"response_time":1707942977518.11},{"trial":8,"action":9,"button_pressed":-1,"time_out":false,"dwell_time":47.80712890625,"response_time":1707942978117.7},{"trial":9,"action":1,"button_pressed":0,"time_out":false,"dwell_time":64.96484375,"response_time":1707942995045.16},{"trial":9,"action":1,"button_pressed":3,"time_out":false,"dwell_time":47.7939453125,"response_time":1707942995545.4},{"trial":9,"action":1,"button_pressed":4,"time_out":false,"dwell_time":31.118896484375,"response_time":1707942995778.57},{"trial":9,"action":1,"button_pressed":11,"time_out":false,"dwell_time":46.9140625,"response_time":1707942996427.55},{"trial":9,"action":1,"button_pressed":5,"time_out":false,"dwell_time":46.890869140625,"response_time":1707942996994.2},{"trial":9,"action":1,"button_pressed":7,"time_out":false,"dwell_time":63.7470703125,"response_time":1707942997527.42},{"trial":9,"action":0,"button_pressed":-1,"time_out":false,"dwell_time":14.905029296875,"response_time":1707942998161.41},{"trial":9,"action":1,"button_pressed":0,"time_out":false,"dwell_time":63.174072265625,"response_time":1707942999092.88},{"trial":9,"action":1,"button_pressed":3,"time_out":false,"dwell_time":64.6318359375,"response_time":1707942999343.59},{"trial":9,"action":1,"button_pressed":4,"time_out":false,"dwell_time":47.032958984375,"response_time":1707942999543.28},{"trial":9,"action":1,"button_pressed":11,"time_out":false,"dwell_time":47.72998046875,"response_time":1707942999993.71},{"trial":9,"action":1,"button_pressed":5,"time_out":false,"dwell_time":64.64892578125,"response_time":1707943000426.55},{"trial":9,"action":1,"button_pressed":7,"time_out":false,"dwell_time":30.362060546875,"response_time":1707943000926.16},{"trial":9,"action":9,"button_pressed":-1,"time_out":false,"dwell_time":48.303955078125,"response_time":1707943001610.45}]}