{"meta_data":{"additional_headers":{},"game_name":"Recollect","version":"2.53.01","user_name":"163","organization":"braingamecenter","study":"mpl2_2022_11","session_number":0,"device_id":"74342D95-EE82-45E3-8ADF-48FB3203C5DD"},"data":[{"stage":"Practice","trial":0,"sequence":"6F","letter_input":"F","number_input":"6","is_correct":true,"presentation_start_time":1707943014752.86,"presentation_end_time":1707943017755.79,"response_time":1707943023436.55},{"stage":"Practice","trial":1,"sequence":"G4","letter_input":"G","number_input":"4","is_correct":true,"presentation_start_time":1707943024966.04,"presentation_end_time":1707943027968.77,"response_time":1707943032730.21},{"stage":"Practice","trial":2,"sequence":"3W5","letter_input":"W","number_input":"35","is_correct":true,"presentation_start_time":1707943034262.88,"presentation_end_time":1707943038765.21,"response_time":1707943042893.36},{"stage":"Practice","trial":3,"sequence":"T7L","letter_input":"LT","number_input":"3","is_correct":false,"presentation_start_time":1707943044426.1,"presentation_end_time":1707943048928.15,"response_time":1707943053656.37},{"stage":"Practice","trial":4,"sequence":"9J1","letter_input":"J","number_input":"19","is_correct":true,"presentation_start_time":1707943056688.65,"presentation_end_time":1707943061190.84,"response_time":1707943066518.71},{"stage":"Calibration","trial":0,"sequence":"J3","letter_input":"J","number_input":"3","is_correct":true,"presentation_start_time":1707943069967.46,"presentation_end_time":1707943072970.27,"response_time":1707943076881.86},{"stage":"Calibration","trial":1,"sequence":"1C","letter_input":"C","number_input":"1","is_correct":true,"presentation_start_time":1707943078414.64,"presentation_end_time":1707943081417.38,"response_time":1707943085162.33},{"stage":"Calibration","trial":2,"sequence":"V9E","letter_input":"EV","number_input":"9","is_correct":true,"presentation_start_time":1707943086695.09,"presentation_end_time":1707943091197.53,"response_time":1707943097574.87},{"stage":"Calibration","trial":3,"sequence":"8M2","letter_input":"M","number_input":"28","is_correct":true,"presentation_start_time":1707943099107.57,"presentation_end_time":1707943103609.6,"response_time":1707943107788.19},{"stage":"Calibration","trial":4,"sequence":"Z9C3","letter_input":"CZ","number_input":"39","is_correct":true,"presentation_start_time":1707943109320.72,"presentation_end_time":1707943115322.52,"response_time":1707943122782.99},{"stage":"Calibration","trial":5,"sequence":"7T1J","letter_input":"JT","number_input":"17","is_correct":true,"presentation_start_time":1707943124315.69,"presentation_end_time":1707943130317.31,"response_time":1707943134345.73},{"stage":"Calibration","trial":6,"sequence":"G8B6L","letter_input":"LBG","number_input":"69","is_correct":false,"presentation_start_time":1707943135878.49,"presentation_end_time":1707943143379.77,"response_time":1707943156854.78},{"stage":"Calibration","trial":7,"sequence":"9S3N1","letter_input":"NS","number_input":"139","is_correct":true,"presentation_start_time":1707943158387.52,"presentation_end_time":1707943165888.68,"response_time":1707943170217.01},{"stage":"Calibration","trial":8,"sequence":"Z4G2C8","letter_input":"CGZ","number_input":"248","is_correct":true,"presentation_start_time":1707943171749.61,"presentation_end_time":1707943180750.28,"response_time":1707943188693.95},{"stage":"Calibration","trial":9,"sequence":"5A9Y7V","letter_input":"AGY","number_input":"579","is_correct":false,"presentation_start_time":1707943190226.67,"presentation_end_time":1707943199227.24,"response_time":1707943206038.04},{"stage":"Calibration","trial":10,"sequence":"W3C1H6F","letter_input":"CHW","number_input":"139","is_correct":false,"presentation_start_time":1707943207570.74,"presentation_end_time":1707943218071.04,"response_time":1707943222632.43},{"stage":"Calibration","trial":11,"sequence":"7Z2V9D5","letter_input":"TVY","number_input":"256","is_correct":false,"presentation_start_time":1707943224165.16,"presentation_end_time":1707943234665.53,"response_time":1707943239243.54}]}