{"meta_data":{"additional_headers":{},"game_name":"Recollect","version":"2.53.01","user_name":"164","organization":"braingamecenter","study":"mpl2_2022_11","session_number":0,"device_id":"74342D95-EE82-45E3-8ADF-48FB3203C5DD"},"data":[{"trial":0,"action":1,"button_pressed":6,"time_out":false,"dwell_time":64.43310546875,"response_time":1708121121410.81},{"trial":0,"action":1,"button_pressed":10,"time_out":false,"dwell_time":47.33984375,"response_time":1708121121843.63},{"trial":0,"action":9,"button_pressed":-1,"time_out":false,"dwell_time":74.093017578125,"response_time":1708121122652.92},{"trial":1,"action":1,"button_pressed":6,"time_out":false,"dwell_time":98.10009765625,"response_time":1708121131874.14},{"trial":1,"action":1,"button_pressed":5,"time_out":false,"dwell_time":97.277099609375,"response_time":1708121132572.97},{"trial":1,"action":1,"button_pressed":4,"time_out":false,"dwell_time":30.376953125,"response_time":1708121133156.62},{"trial":1,"action":9,"button_pressed":-1,"time_out":false,"dwell_time":14.115234375,"response_time":1708121133906.7},{"trial":2,"action":1,"button_pressed":1,"time_out":false,"dwell_time":12.966064453125,"response_time":1708121146068.93},{"trial":2,"action":1,"button_pressed":6,"time_out":false,"dwell_time":46.842041015625,"response_time":1708121146552.2},{"trial":2,"action":1,"button_pressed":5,"time_out":false,"dwell_time":98.01708984375,"response_time":1708121147169.01},{"trial":2,"action":1,"button_pressed":10,"time_out":false,"dwell_time":63.570068359375,"response_time":1708121147735.24},{"trial":2,"action":9,"button_pressed":-1,"time_out":false,"dwell_time":47.509033203125,"response_time":1708121148468.7},{"trial":3,"action":1,"button_pressed":10,"time_out":false,"dwell_time":63.10400390625,"response_time":1708121162996.48},{"trial":3,"action":1,"button_pressed":5,"time_out":false,"dwell_time":80.381103515625,"response_time":1708121163546.15},{"trial":3,"action":1,"button_pressed":3,"time_out":false,"dwell_time":47.089111328125,"response_time":1708121164146.54},{"trial":3,"action":1,"button_pressed":6,"time_out":false,"dwell_time":64.47900390625,"response_time":1708121164380},{"trial":3,"action":1,"button_pressed":2,"time_out":false,"dwell_time":47.59814453125,"response_time":1708121164862.82},{"trial":3,"action":9,"button_pressed":-1,"time_out":false,"dwell_time":64.364990234375,"response_time":1708121165263.3},{"trial":4,"action":1,"button_pressed":11,"time_out":false,"dwell_time":64.22802734375,"response_time":1708121182373.44},{"trial":4,"action":1,"button_pressed":4,"time_out":false,"dwell_time":97.587890625,"response_time":1708121182906.8},{"trial":4,"action":1,"button_pressed":3,"time_out":false,"dwell_time":81.093994140625,"response_time":1708121184240.02},{"trial":4,"action":1,"button_pressed":2,"time_out":false,"dwell_time":47.18505859375,"response_time":1708121184706.69},{"trial":4,"action":1,"button_pressed":10,"time_out":false,"dwell_time":80.9208984375,"response_time":1708121185189.78},{"trial":4,"action":1,"button_pressed":6,"time_out":false,"dwell_time":47.375,"response_time":1708121185556.02},{"trial":4,"action":9,"button_pressed":-1,"time_out":false,"dwell_time":198.48486328125,"response_time":1708121188955.6},{"trial":5,"action":1,"button_pressed":2,"time_out":false,"dwell_time":64.131103515625,"response_time":1708121206415.58},{"trial":5,"action":1,"button_pressed":6,"time_out":false,"dwell_time":63.56494140625,"response_time":1708121207615},{"trial":5,"action":1,"button_pressed":11,"time_out":false,"dwell_time":46.911865234375,"response_time":1708121210214.58},{"trial":5,"action":1,"button_pressed":7,"time_out":false,"dwell_time":47.694091796875,"response_time":1708121210564.65},{"trial":5,"action":1,"button_pressed":10,"time_out":false,"dwell_time":46.614013671875,"response_time":1708121211081.09},{"trial":5,"action":9,"button_pressed":-1,"time_out":false,"dwell_time":16.39404296875,"response_time":1708121212230.45},{"trial":6,"action":1,"button_pressed":8,"time_out":false,"dwell_time":64.06689453125,"response_time":1708121224477.11},{"trial":6,"action":1,"button_pressed":1,"time_out":false,"dwell_time":63.406982421875,"response_time":1708121224926.68},{"trial":6,"action":1,"button_pressed":3,"time_out":false,"dwell_time":81.1650390625,"response_time":1708121225209.95},{"trial":6,"action":1,"button_pressed":11,"time_out":false,"dwell_time":64.19287109375,"response_time":1708121225643.07},{"trial":6,"action":9,"button_pressed":-1,"time_out":false,"dwell_time":14.920166015625,"response_time":1708121226509.66},{"trial":7,"action":1,"button_pressed":9,"time_out":false,"dwell_time":63.76904296875,"response_time":1708121240888.16},{"trial":7,"action":1,"button_pressed":0,"time_out":false,"dwell_time":81.333984375,"response_time":1708121241271.38},{"trial":7,"action":1,"button_pressed":2,"time_out":false,"dwell_time":98.087890625,"response_time":1708121241654.6},{"trial":7,"action":1,"button_pressed":1,"time_out":false,"dwell_time":63.44482421875,"response_time":1708121242287.58},{"trial":7,"action":1,"button_pressed":6,"time_out":false,"dwell_time":46.8349609375,"response_time":1708121242720.68},{"trial":7,"action":9,"button_pressed":-1,"time_out":false,"dwell_time":48.225830078125,"response_time":1708121243537.44},{"trial":8,"action":1,"button_pressed":1,"time_out":false,"dwell_time":64.1259765625,"response_time":1708121260547.72},{"trial":8,"action":1,"button_pressed":9,"time_out":false,"dwell_time":79.9228515625,"response_time":1708121261014.83},{"trial":8,"action":1,"button_pressed":5,"time_out":false,"dwell_time":113.950927734375,"response_time":1708121261464.14},{"trial":8,"action":1,"button_pressed":6,"time_out":false,"dwell_time":97.740966796875,"response_time":1708121262047.83},{"trial":8,"action":1,"button_pressed":7,"time_out":false,"dwell_time":46.89111328125,"response_time":1708121262247.77},{"trial":8,"action":1,"button_pressed":2,"time_out":false,"dwell_time":30.861083984375,"response_time":1708121262781.39},{"trial":8,"action":9,"button_pressed":-1,"time_out":false,"dwell_time":80.490966796875,"response_time":1708121263797.11},{"trial":9,"action":1,"button_pressed":9,"time_out":false,"dwell_time":80.701904296875,"response_time":1708121283341.07},{"trial":9,"action":1,"button_pressed":7,"time_out":false,"dwell_time":80.544189453125,"response_time":1708121283740.96},{"trial":9,"action":1,"button_pressed":4,"time_out":false,"dwell_time":63.907958984375,"response_time":1708121284173.22},{"trial":9,"action":1,"button_pressed":1,"time_out":false,"dwell_time":65.41015625,"response_time":1708121284771.68},{"trial":9,"action":1,"button_pressed":11,"time_out":false,"dwell_time":63.85693359375,"response_time":1708121285306.18},{"trial":9,"action":1,"button_pressed":8,"time_out":false,"dwell_time":30.06298828125,"response_time":1708121286039.75},{"trial":9,"action":9,"button_pressed":-1,"time_out":false,"dwell_time":64.47900390625,"response_time":1708121287323.32},{"trial":10,"action":1,"button_pressed":11,"time_out":false,"dwell_time":46.989990234375,"response_time":1708121306883.02},{"trial":10,"action":1,"button_pressed":4,"time_out":false,"dwell_time":46.89990234375,"response_time":1708121307299.37},{"trial":10,"action":1,"button_pressed":3,"time_out":false,"dwell_time":46.76708984375,"response_time":1708121307599.3},{"trial":10,"action":1,"button_pressed":2,"time_out":false,"dwell_time":131.215087890625,"response_time":1708121308082.71},{"trial":10,"action":1,"button_pressed":10,"time_out":false,"dwell_time":79.43212890625,"response_time":1708121308631.84},{"trial":10,"action":1,"button_pressed":8,"time_out":false,"dwell_time":64.472900390625,"response_time":1708121309049.16},{"trial":10,"action":1,"button_pressed":1,"time_out":false,"dwell_time":48.166015625,"response_time":1708121309516.02},{"trial":10,"action":9,"button_pressed":-1,"time_out":false,"dwell_time":47.422119140625,"response_time":1708121310698.79}]}