{"meta_data":{"additional_headers":{},"game_name":"Recollect","version":"2.53.01","user_name":"164","organization":"braingamecenter","study":"mpl2_2022_11","session_number":0,"device_id":"74342D95-EE82-45E3-8ADF-48FB3203C5DD"},"data":[{"stage":"Practice","trial":0,"sequence":"6F","letter_input":"F","number_input":"6","is_correct":true,"presentation_start_time":1708121345751.6,"presentation_end_time":1708121348754.41,"response_time":1708121356400.03},{"stage":"Practice","trial":1,"sequence":"G4","letter_input":"G","number_input":"4","is_correct":true,"presentation_start_time":1708121357930.9,"presentation_end_time":1708121360933.57,"response_time":1708121366361.56},{"stage":"Practice","trial":2,"sequence":"3W5","letter_input":"W","number_input":"35","is_correct":true,"presentation_start_time":1708121367894.33,"presentation_end_time":1708121372396.62,"response_time":1708121380740.27},{"stage":"Practice","trial":3,"sequence":"T7L","letter_input":"LT","number_input":"7","is_correct":true,"presentation_start_time":1708121382272.86,"presentation_end_time":1708121386775.34,"response_time":1708121392719.56},{"stage":"Practice","trial":4,"sequence":"9J1","letter_input":"J","number_input":"19","is_correct":true,"presentation_start_time":1708121394252.32,"presentation_end_time":1708121398754.57,"response_time":1708121405332.15},{"stage":"Calibration","trial":0,"sequence":"5W","letter_input":"W","number_input":"5","is_correct":true,"presentation_start_time":1708121423093,"presentation_end_time":1708121426095.74,"response_time":1708121431273.5},{"stage":"Calibration","trial":1,"sequence":"M8","letter_input":"M","number_input":"8","is_correct":true,"presentation_start_time":1708121432806.41,"presentation_end_time":1708121435809.11,"response_time":1708121440453.96},{"stage":"Calibration","trial":2,"sequence":"7N1","letter_input":"N","number_input":"17","is_correct":true,"presentation_start_time":1708121441986.71,"presentation_end_time":1708121446488.86,"response_time":1708121451716.97},{"stage":"Calibration","trial":3,"sequence":"R5J","letter_input":"JR","number_input":"5","is_correct":true,"presentation_start_time":1708121453249.66,"presentation_end_time":1708121457751.97,"response_time":1708121464696.04},{"stage":"Calibration","trial":4,"sequence":"6Z1E","letter_input":"EZ","number_input":"16","is_correct":true,"presentation_start_time":1708121466228.73,"presentation_end_time":1708121472230.38,"response_time":1708121482040.22},{"stage":"Calibration","trial":5,"sequence":"N8A3","letter_input":"AN","number_input":"38","is_correct":true,"presentation_start_time":1708121483572.94,"presentation_end_time":1708121489574.75,"response_time":1708121500917.39},{"stage":"Calibration","trial":6,"sequence":"5G2B9","letter_input":"BG","number_input":"259","is_correct":true,"presentation_start_time":1708121502450.11,"presentation_end_time":1708121509951.66,"response_time":1708121528225.17},{"stage":"Calibration","trial":7,"sequence":"F3V1T","letter_input":"FTV","number_input":"13","is_correct":true,"presentation_start_time":1708121529757.8,"presentation_end_time":1708121537259.13,"response_time":1708121555632.85},{"stage":"Calibration","trial":8,"sequence":"9G7D5Q","letter_input":"DQ","number_input":"3579","is_correct":false,"presentation_start_time":1708121557165.46,"presentation_end_time":1708121566166.28,"response_time":1708121607765.62},{"stage":"Calibration","trial":9,"sequence":"H2F8W4","letter_input":"HJW","number_input":"248","is_correct":false,"presentation_start_time":1708121609298.38,"presentation_end_time":1708121618299.26,"response_time":1708121645686.48}]}