Audio_Only_Files,Video_Files,Original_Word_List,noiseLevelCode,conditionCodes,noiseLevelFile1,noiseLevelFile2,InstrTextVar,targetSpeakerName,targetSpeakerEccen,targetSpkrChannel,targetSpkrSound,targetVisualDegrees,visStimLoc,visStimLoc2,visStimW,visStimH,practiceTrials.thisRepN,practiceTrials.thisTrialN,practiceTrials.thisN,practiceTrials.thisIndex,trials.thisRepN,trials.thisTrialN,trials.thisN,trials.thisIndex,audLocalLoop.thisRepN,audLocalLoop.thisTrialN,audLocalLoop.thisN,audLocalLoop.thisIndex,visualLocalLoop.thisRepN,visualLocalLoop.thisTrialN,visualLocalLoop.thisN,visualLocalLoop.thisIndex,letsGoAlready.keys,letsGoAlready.rt,letsGoAlready.started,letsGoAlready.stopped,text_2.started,text_2.stopped,text_3.started,text_3.stopped,key_resp_2.keys,key_resp_2.rt,key_resp_2.started,key_resp_2.stopped,text_5.started,text_5.stopped,fixCross.started,fixCross.stopped,fixCross2.started,fixCross2.stopped,answerPrompt.started,answerPrompt.stopped,getAnswer.text,getAnswer.started,getAnswer.stopped,goToNext.keys,goToNext.rt,goToNext.started,goToNext.stopped,stretchBreakTxrt.started,stretchBreakTxrt.stopped,key_resp_3.keys,key_resp_3.rt,key_resp_3.started,key_resp_3.stopped,letsGoLocal.keys,letsGoLocal.rt,letsGoLocal.started,letsGoLocal.stopped,text_4.started,text_4.stopped,prepFixTxt.started,prepFixTxt.stopped,prepFixTxt_2.started,prepFixTxt_2.stopped,respPromptLocal.started,respPromptLocal.stopped,slider.response,slider.rt,slider.started,slider.stopped,letsGoLocal_2.keys,letsGoLocal_2.rt,letsGoLocal_2.started,letsGoLocal_2.stopped,text_7.started,text_7.stopped,prepFixTxt_3.started,prepFixTxt_3.stopped,grating.started,grating.stopped,participant,session,date,expName,psychopyVersion,frameRate,
,,,,,,,,,,,,,,,,,,,,,,,,,,,,,,,,,space,5.233062748797238,13.364851992111653,None,,,,,,,,,,,,,,,,,,,,,,,,,,,,,,,,,,,,,,,,,,,,,,,,,,,,,,,,164,001,2024_Feb_16_1525,SpeechDraft1Carolyn_lessNoise_PlusLocalization,2021.2.3,60.02720545908866,
,,,,,,,,,,,,,,,,,,,,,,,,,,,,,,,,,,,,,13.364851992111653,None,18.7153352862224,None,space,8.108068563975394,18.897698550019413,None,,,,,,,,,,,,,,,,,,,,,,,,,,,,,,,,,,,,,,,,,,,,,,,,164,001,2024_Feb_16_1525,SpeechDraft1Carolyn_lessNoise_PlusLocalization,2021.2.3,60.02720545908866,
ash.wav,ash.mpg,ash,1,A,Pink_Noise_1_1.wav,Pink_Noise_1_2.wav,"This is an example of an

AUDIO trial",,,,,,,,,,0,0,0,0,,,,,,,,,,,,,,,,,,,,,,,,,27.047361868899316,None,28.04764172108844,None,31.231238486245275,None,32.614520880859345,None,"ash
",32.614520880859345,None,return,2.8840640177950263,32.69770220806822,None,,,,,,,,,,,,,,,,,,,,,,,,,,,,,,,,,164,001,2024_Feb_16_1525,SpeechDraft1Carolyn_lessNoise_PlusLocalization,2021.2.3,60.02720545908866,
ash.wav,ash.mpg,ash,1,AV,Pink_Noise_1_1.wav,Pink_Noise_1_2.wav,"This is an example of an

AUDIO + VIDEO  trial",,,,,,,,,,0,1,1,1,,,,,,,,,,,,,,,,,,,,,,,,,35.63076576311141,None,36.63111663982272,None,38.13085159100592,None,39.51424314407632,None,ash,39.51424314407632,None,return,1.77603611163795,39.59771836688742,None,,,,,,,,,,,,,,,,,,,,,,,,,,,,,,,,,164,001,2024_Feb_16_1525,SpeechDraft1Carolyn_lessNoise_PlusLocalization,2021.2.3,60.02720545908866,
,,,,,,,,,,,,,,,,,,,,,,,,,,,,,,,,,,,,,,,,,,,,,,,,,,,,,,,,,,,,41.41403671493754,None,space,12.656096018850803,41.59768663207069,None,,,,,,,,,,,,,,,,,,,,,,,,,,,164,001,2024_Feb_16_1525,SpeechDraft1Carolyn_lessNoise_PlusLocalization,2021.2.3,60.02720545908866,
gone.wav,gone.mpg,gone,6,A,Pink_Noise_6_1.wav,Pink_Noise_6_2.wav,,,,,,,,,,,,,,,0,0,0,26,,,,,,,,,,,,,,,,,,,,,,,54.31411283509806,None,55.79799233097583,None,57.181078114081174,None,"hi
",57.181078114081174,None,return,1.2693759710527956,57.26439072424546,None,,,,,,,,,,,,,,,,,,,,,,,,,,,,,,,,,164,001,2024_Feb_16_1525,SpeechDraft1Carolyn_lessNoise_PlusLocalization,2021.2.3,60.02720545908866,
blame.wav,blame.mpg,blame,3,AV,Pink_Noise_3_1.wav,Pink_Noise_3_2.wav,,,,,,,,,,,,,,,0,1,1,93,,,,,,,,,,,,,,,,,,,,,,,58.56437203194946,None,60.06415214110166,None,61.44764033285901,None,play,61.44764033285901,None,return,2.554893843829632,61.530993348918855,None,,,,,,,,,,,,,,,,,,,,,,,,,,,,,,,,,164,001,2024_Feb_16_1525,SpeechDraft1Carolyn_lessNoise_PlusLocalization,2021.2.3,60.02720545908866,
chalk.wav,chalk.mpg,chalk,3,A,Pink_Noise_3_1.wav,Pink_Noise_3_2.wav,,,,,,,,,,,,,,,0,2,2,17,,,,,,,,,,,,,,,,,,,,,,,64.11431866697967,None,65.61407158104703,None,66.99774417700246,None,chalk,66.99774417700246,None,return,1.9647017163224518,67.08106567384675,None,,,,,,,,,,,,,,,,,,,,,,,,,,,,,,,,,164,001,2024_Feb_16_1525,SpeechDraft1Carolyn_lessNoise_PlusLocalization,2021.2.3,60.02720545908866,
bug.wav,bug.mpg,bug,4,A,Pink_Noise_4_1.wav,Pink_Noise_4_2.wav,,,,,,,,,,,,,,,0,3,3,42,,,,,,,,,,,,,,,,,,,,,,,69.06438057683408,None,70.56402372196317,None,71.9477878632024,None,bug,71.9477878632024,None,return,12.710660501848906,72.03110303822905,None,,,,,,,,,,,,,,,,,,,,,,,,,,,,,,,,,164,001,2024_Feb_16_1525,SpeechDraft1Carolyn_lessNoise_PlusLocalization,2021.2.3,60.02720545908866,
fail.wav,fail.mpg,fail,1,A,Pink_Noise_1_1.wav,Pink_Noise_1_2.wav,,,,,,,,,,,,,,,0,4,4,57,,,,,,,,,,,,,,,,,,,,,,,84.76463926723227,None,86.26414541108534,None,87.64782852586359,None,fail,87.64782852586359,None,return,0.89066306874156,87.7311081639491,None,,,,,,,,,,,,,,,,,,,,,,,,,,,,,,,,,164,001,2024_Feb_16_1525,SpeechDraft1Carolyn_lessNoise_PlusLocalization,2021.2.3,60.02720545908866,
fine.wav,fine.mpg,fine,5,A,Pink_Noise_5_1.wav,Pink_Noise_5_2.wav,,,,,,,,,,,,,,,0,5,5,55,,,,,,,,,,,,,,,,,,,,,,,88.64782404201105,None,90.14741832204163,None,91.53118708124384,None,size,91.53118708124384,None,return,4.639467012137175,91.61438003694639,None,,,,,,,,,,,,,,,,,,,,,,,,,,,,,,,,,164,001,2024_Feb_16_1525,SpeechDraft1Carolyn_lessNoise_PlusLocalization,2021.2.3,60.02720545908866,
born.wav,born.mpg,born,6,A,Pink_Noise_6_1.wav,Pink_Noise_6_2.wav,,,,,,,,,,,,,,,0,6,6,52,,,,,,,,,,,,,,,,,,,,,,,96.28111026016995,None,97.78085315180942,None,99.16455078311265,None,say,99.16455078311265,None,return,1.7899979259818792,99.24784839898348,None,,,,,,,,,,,,,,,,,,,,,,,,,,,,,,,,,164,001,2024_Feb_16_1525,SpeechDraft1Carolyn_lessNoise_PlusLocalization,2021.2.3,60.02720545908866,
gem.wav,gem.mpg,gem,3,A,Pink_Noise_3_1.wav,Pink_Noise_3_2.wav,,,,,,,,,,,,,,,0,7,7,8,,,,,,,,,,,,,,,,,,,,,,,101.06444859318435,None,102.56421647313982,None,103.94788542715833,None,joke,103.94788542715833,None,return,3.2067506690509617,104.03112147282809,None,,,,,,,,,,,,,,,,,,,,,,,,,,,,,,,,,164,001,2024_Feb_16_1525,SpeechDraft1Carolyn_lessNoise_PlusLocalization,2021.2.3,60.02720545908866,
eat.wav,eat.mpg,eat,2,A,Pink_Noise_2_1.wav,Pink_Noise_2_2.wav,,,,,,,,,,,,,,,0,8,8,1,,,,,,,,,,,,,,,,,,,,,,,107.26442815503106,None,108.7641146061942,None,110.14771729288623,None,it,110.14771729288623,None,return,0.8305766191333532,110.23119860421866,None,,,,,,,,,,,,,,,,,,,,,,,,,,,,,,,,,164,001,2024_Feb_16_1525,SpeechDraft1Carolyn_lessNoise_PlusLocalization,2021.2.3,60.02720545908866,
blur.wav,blur.mpg,blur,3,AV,Pink_Noise_3_1.wav,Pink_Noise_3_2.wav,,,,,,,,,,,,,,,0,9,9,103,,,,,,,,,,,,,,,,,,,,,,,111.08119271602482,None,112.5814102278091,None,113.96442356519401,None,"blur
",113.96442356519401,None,return,2.717928623780608,114.04782008985057,None,,,,,,,,,,,,,,,,,,,,,,,,,,,,,,,,,164,001,2024_Feb_16_1525,SpeechDraft1Carolyn_lessNoise_PlusLocalization,2021.2.3,60.02720545908866,
grand.wav,grand.mpg,grand,5,A,Pink_Noise_5_1.wav,Pink_Noise_5_2.wav,,,,,,,,,,,,,,,0,10,10,36,,,,,,,,,,,,,,,,,,,,,,,116.79784901998937,None,118.29749864898622,None,119.68116351123899,None,France,119.68116351123899,None,return,2.1371848043054342,119.76459006825462,None,,,,,,,,,,,,,,,,,,,,,,,,,,,,,,,,,164,001,2024_Feb_16_1525,SpeechDraft1Carolyn_lessNoise_PlusLocalization,2021.2.3,60.02720545908866,
cane.wav,cane.mpg,cane,1,A,Pink_Noise_1_1.wav,Pink_Noise_1_2.wav,,,,,,,,,,,,,,,0,11,11,18,,,,,,,,,,,,,,,,,,,,,,,121.93114340305328,None,123.43090981198475,None,124.81448008213192,None,cane,124.81448008213192,None,return,1.0597847951576114,124.89797320403159,None,,,,,,,,,,,,,,,,,,,,,,,,,,,,,,,,,164,001,2024_Feb_16_1525,SpeechDraft1Carolyn_lessNoise_PlusLocalization,2021.2.3,60.02720545908866,
faith.wav,faith.mpg,faith,3,AV,Pink_Noise_3_1.wav,Pink_Noise_3_2.wav,,,,,,,,,,,,,,,0,12,12,100,,,,,,,,,,,,,,,,,,,,,,,125.98124301619828,None,127.48102392023429,None,128.8644620589912,None,faith,128.8644620589912,None,return,1.1379498830065131,128.9478143681772,None,,,,,,,,,,,,,,,,,,,,,,,,,,,,,,,,,164,001,2024_Feb_16_1525,SpeechDraft1Carolyn_lessNoise_PlusLocalization,2021.2.3,60.02720545908866,
frog.wav,frog.mpg,frog,6,AV,Pink_Noise_6_1.wav,Pink_Noise_6_2.wav,,,,,,,,,,,,,,,0,13,13,67,,,,,,,,,,,,,,,,,,,,,,,130.11446572793648,None,131.61422151885927,None,132.997717584949,None,"frog
",132.997717584949,None,return,0.9006011737510562,133.08116825297475,None,,,,,,,,,,,,,,,,,,,,,,,,,,,,,,,,,164,001,2024_Feb_16_1525,SpeechDraft1Carolyn_lessNoise_PlusLocalization,2021.2.3,60.02720545908866,
lost.wav,lost.mpg,lost,4,AV,Pink_Noise_4_1.wav,Pink_Noise_4_2.wav,,,,,,,,,,,,,,,0,14,14,118,,,,,,,,,,,,,,,,,,,,,,,134.01461936812848,None,135.5142276668921,None,136.89775907807052,None,lost,136.89775907807052,None,return,1.8567572669126093,136.98114895122126,None,,,,,,,,,,,,,,,,,,,,,,,,,,,,,,,,,164,001,2024_Feb_16_1525,SpeechDraft1Carolyn_lessNoise_PlusLocalization,2021.2.3,60.02720545908866,
beef.wav,beef.mpg,beef,4,AV,Pink_Noise_4_1.wav,Pink_Noise_4_2.wav,,,,,,,,,,,,,,,0,15,15,111,,,,,,,,,,,,,,,,,,,,,,,138.8644722579047,None,140.36428244085982,None,141.74772569024935,None,beef,141.74772569024935,None,return,1.326585364062339,141.83118324587122,None,,,,,,,,,,,,,,,,,,,,,,,,,,,,,,,,,164,001,2024_Feb_16_1525,SpeechDraft1Carolyn_lessNoise_PlusLocalization,2021.2.3,60.02720545908866,
brake.wav,brake.mpg,brake,4,AV,Pink_Noise_4_1.wav,Pink_Noise_4_2.wav,,,,,,,,,,,,,,,0,16,16,102,,,,,,,,,,,,,,,,,,,,,,,143.18123086821288,None,144.68090319819748,None,146.06454074801877,None,break,146.06454074801877,None,return,1.8900157809257507,146.1478485101834,None,,,,,,,,,,,,,,,,,,,,,,,,,,,,,,,,,164,001,2024_Feb_16_1525,SpeechDraft1Carolyn_lessNoise_PlusLocalization,2021.2.3,60.02720545908866,
brisk.wav,brisk.mpg,brisk,2,AV,Pink_Noise_2_1.wav,Pink_Noise_2_2.wav,,,,,,,,,,,,,,,0,17,17,89,,,,,,,,,,,,,,,,,,,,,,,148.06456346111372,None,149.56422315724194,None,150.9477710928768,None,brisk,150.9477710928768,None,return,1.5665948470123112,151.03120684903115,None,,,,,,,,,,,,,,,,,,,,,,,,,,,,,,,,,164,001,2024_Feb_16_1525,SpeechDraft1Carolyn_lessNoise_PlusLocalization,2021.2.3,60.02720545908866,
rod.wav,rod.mpg,rod,6,A,Pink_Noise_6_1.wav,Pink_Noise_6_2.wav,,,,,,,,,,,,,,,0,18,18,5,,,,,,,,,,,,,,,,,,,,,,,152.61450279597193,None,154.13126101717353,None,155.51450306316838,None,rise,155.51450306316838,None,return,0.9998859888873994,155.59789715707302,None,,,,,,,,,,,,,,,,,,,,,,,,,,,,,,,,,164,001,2024_Feb_16_1525,SpeechDraft1Carolyn_lessNoise_PlusLocalization,2021.2.3,60.02720545908866,
clock.wav,clock.mpg,clock,4,AV,Pink_Noise_4_1.wav,Pink_Noise_4_2.wav,,,,,,,,,,,,,,,0,19,19,71,,,,,,,,,,,,,,,,,,,,,,,156.6145108519122,None,158.11424295185134,None,159.49787209415808,None,clocks,159.49787209415808,None,return,3.096630143932998,159.5812590541318,None,,,,,,,,,,,,,,,,,,,,,,,,,,,,,,,,,164,001,2024_Feb_16_1525,SpeechDraft1Carolyn_lessNoise_PlusLocalization,2021.2.3,60.02720545908866,
duck.wav,duck.mpg,duck,6,A,Pink_Noise_6_1.wav,Pink_Noise_6_2.wav,,,,,,,,,,,,,,,0,20,20,50,,,,,,,,,,,,,,,,,,,,,,,162.6979680559598,None,164.19772264687344,None,165.58112222421914,None,"jump
",165.58112222421914,None,return,3.853207420092076,165.66457130387425,None,,,,,,,,,,,,,,,,,,,,,,,,,,,,,,,,,164,001,2024_Feb_16_1525,SpeechDraft1Carolyn_lessNoise_PlusLocalization,2021.2.3,60.02720545908866,
foil.wav,foil.mpg,foil,2,AV,Pink_Noise_2_1.wav,Pink_Noise_2_2.wav,,,,,,,,,,,,,,,0,21,21,77,,,,,,,,,,,,,,,,,,,,,,,169.54777833307162,None,171.04763484280556,None,172.43113783281296,None,foil,172.43113783281296,None,return,2.371281425934285,172.51452167984098,None,,,,,,,,,,,,,,,,,,,,,,,,,,,,,,,,,164,001,2024_Feb_16_1525,SpeechDraft1Carolyn_lessNoise_PlusLocalization,2021.2.3,60.02720545908866,
please.wav,please.mpg,please,5,A,Pink_Noise_5_1.wav,Pink_Noise_5_2.wav,,,,,,,,,,,,,,,0,22,22,47,,,,,,,,,,,,,,,,,,,,,,,174.91450818115845,None,176.41424264525995,None,177.79797835601494,None,frees,177.79797835601494,None,return,4.156653314363211,177.88123533083126,None,,,,,,,,,,,,,,,,,,,,,,,,,,,,,,,,,164,001,2024_Feb_16_1525,SpeechDraft1Carolyn_lessNoise_PlusLocalization,2021.2.3,60.02720545908866,
broil.wav,broil.mpg,broil,4,AV,Pink_Noise_4_1.wav,Pink_Noise_4_2.wav,,,,,,,,,,,,,,,0,23,23,79,,,,,,,,,,,,,,,,,,,,,,,182.06453155819327,None,183.56421427894384,None,184.947741238866,None,broil,184.947741238866,None,return,4.030658243224025,185.0311533678323,None,,,,,,,,,,,,,,,,,,,,,,,,,,,,,,,,,164,001,2024_Feb_16_1525,SpeechDraft1Carolyn_lessNoise_PlusLocalization,2021.2.3,60.02720545908866,
blimp.wav,blimp.mpg,blimp,5,A,Pink_Noise_5_1.wav,Pink_Noise_5_2.wav,,,,,,,,,,,,,,,0,24,24,59,,,,,,,,,,,,,,,,,,,,,,,189.08125820290297,None,190.59773240517825,None,191.9812381020747,None,lips,191.9812381020747,None,return,1.557151400949806,192.06465639080852,None,,,,,,,,,,,,,,,,,,,,,,,,,,,,,,,,,164,001,2024_Feb_16_1525,SpeechDraft1Carolyn_lessNoise_PlusLocalization,2021.2.3,60.02720545908866,
dog.wav,dog.mpg,dog,1,A,Pink_Noise_1_1.wav,Pink_Noise_1_2.wav,,,,,,,,,,,,,,,0,25,25,38,,,,,,,,,,,,,,,,,,,,,,,193.64806822920218,None,195.14757078513503,None,196.5312685649842,None,dog,196.5312685649842,None,return,0.9910586159676313,196.6147321802564,None,,,,,,,,,,,,,,,,,,,,,,,,,,,,,,,,,164,001,2024_Feb_16_1525,SpeechDraft1Carolyn_lessNoise_PlusLocalization,2021.2.3,60.02720545908866,
flu.wav,flu.mpg,flu,3,AV,Pink_Noise_3_1.wav,Pink_Noise_3_2.wav,,,,,,,,,,,,,,,0,26,26,86,,,,,,,,,,,,,,,,,,,,,,,197.63125713495538,None,199.13095642905682,None,200.51448033982888,None,flu,200.51448033982888,None,return,0.9278954709880054,200.59786251792684,None,,,,,,,,,,,,,,,,,,,,,,,,,,,,,,,,,164,001,2024_Feb_16_1525,SpeechDraft1Carolyn_lessNoise_PlusLocalization,2021.2.3,60.02720545908866,
flesh.wav,flesh.mpg,flesh,1,AV,Pink_Noise_1_1.wav,Pink_Noise_1_2.wav,,,,,,,,,,,,,,,0,27,27,107,,,,,,,,,,,,,,,,,,,,,,,201.5479160710238,None,203.04757356084883,None,204.43123209290206,None,"flesh
",204.43123209290206,None,return,1.2671328871510923,204.51463003410026,None,,,,,,,,,,,,,,,,,,,,,,,,,,,,,,,,,164,001,2024_Feb_16_1525,SpeechDraft1Carolyn_lessNoise_PlusLocalization,2021.2.3,60.02720545908866,
client.wav,client.mpg,client,4,AV,Pink_Noise_4_1.wav,Pink_Noise_4_2.wav,,,,,,,,,,,,,,,0,28,28,104,,,,,,,,,,,,,,,,,,,,,,,205.81473238905892,None,207.31449331110343,None,208.69792658416554,None,client,208.69792658416554,None,return,1.6322937682271004,208.78152798721567,None,,,,,,,,,,,,,,,,,,,,,,,,,,,,,,,,,164,001,2024_Feb_16_1525,SpeechDraft1Carolyn_lessNoise_PlusLocalization,2021.2.3,60.02720545908866,
else.wav,else.mpg,else,2,AV,Pink_Noise_2_1.wav,Pink_Noise_2_2.wav,,,,,,,,,,,,,,,0,29,29,109,,,,,,,,,,,,,,,,,,,,,,,210.43133458821103,None,211.9309297921136,None,213.3145472370088,None,else,213.3145472370088,None,return,3.7757716299965978,213.39798479015008,None,,,,,,,,,,,,,,,,,,,,,,,,,,,,,,,,,164,001,2024_Feb_16_1525,SpeechDraft1Carolyn_lessNoise_PlusLocalization,2021.2.3,60.02720545908866,
bride.wav,bride.mpg,bride,2,A,Pink_Noise_2_1.wav,Pink_Noise_2_2.wav,,,,,,,,,,,,,,,0,30,30,9,,,,,,,,,,,,,,,,,,,,,,,217.19789314316586,None,218.71441120514646,None,220.09812641516328,None,bride,220.09812641516328,None,return,1.2084864983335137,220.18127024918795,None,,,,,,,,,,,,,,,,,,,,,,,,,,,,,,,,,164,001,2024_Feb_16_1525,SpeechDraft1Carolyn_lessNoise_PlusLocalization,2021.2.3,60.02720545908866,
cliff.wav,cliff.mpg,cliff,5,A,Pink_Noise_5_1.wav,Pink_Noise_5_2.wav,,,,,,,,,,,,,,,0,31,31,23,,,,,,,,,,,,,,,,,,,,,,,221.43093931814656,None,222.94772686902434,None,224.33128816680983,None,bush,224.33128816680983,None,return,2.2152519929222763,224.41461468301713,None,,,,,,,,,,,,,,,,,,,,,,,,,,,,,,,,,164,001,2024_Feb_16_1525,SpeechDraft1Carolyn_lessNoise_PlusLocalization,2021.2.3,60.02720545908866,
chess.wav,chess.mpg,chess,5,AV,Pink_Noise_5_1.wav,Pink_Noise_5_2.wav,,,,,,,,,,,,,,,0,32,32,66,,,,,,,,,,,,,,,,,,,,,,,226.64795226603746,None,228.14948930917308,None,229.53127677598968,None,"chest
",229.53127677598968,None,return,1.1351783983409405,229.61459312215447,None,,,,,,,,,,,,,,,,,,,,,,,,,,,,,,,,,164,001,2024_Feb_16_1525,SpeechDraft1Carolyn_lessNoise_PlusLocalization,2021.2.3,60.02720545908866,
cry.wav,cry.mpg,cry,3,AV,Pink_Noise_3_1.wav,Pink_Noise_3_2.wav,,,,,,,,,,,,,,,0,33,33,76,,,,,,,,,,,,,,,,,,,,,,,230.78140057297423,None,232.28103401325643,None,233.66481268405914,None,cry,233.66481268405914,None,return,3.2257632459513843,233.74800216499716,None,,,,,,,,,,,,,,,,,,,,,,,,,,,,,,,,,164,001,2024_Feb_16_1525,SpeechDraft1Carolyn_lessNoise_PlusLocalization,2021.2.3,60.02720545908866,
bun.wav,bun.mpg,bun,1,AV,Pink_Noise_1_1.wav,Pink_Noise_1_2.wav,,,,,,,,,,,,,,,0,34,34,65,,,,,,,,,,,,,,,,,,,,,,,236.99794893385842,None,238.49767918419093,None,239.8814339931123,None,bun,239.8814339931123,None,return,1.1211143429391086,239.96465137414634,None,,,,,,,,,,,,,,,,,,,,,,,,,,,,,,,,,164,001,2024_Feb_16_1525,SpeechDraft1Carolyn_lessNoise_PlusLocalization,2021.2.3,60.02720545908866,
sake.wav,sake.mpg,sake,5,A,Pink_Noise_5_1.wav,Pink_Noise_5_2.wav,,,,,,,,,,,,,,,0,35,35,7,,,,,,,,,,,,,,,,,,,,,,,241.11466355016455,None,242.61439766082913,None,243.99794024787843,None,"snake
",243.99794024787843,None,return,1.4844170082360506,244.08135142922401,None,,,,,,,,,,,,,,,,,,,,,,,,,,,,,,,,,164,001,2024_Feb_16_1525,SpeechDraft1Carolyn_lessNoise_PlusLocalization,2021.2.3,60.02720545908866,
gust.wav,gust.mpg,gust,5,AV,Pink_Noise_5_1.wav,Pink_Noise_5_2.wav,,,,,,,,,,,,,,,0,36,36,116,,,,,,,,,,,,,,,,,,,,,,,245.5981044638902,None,247.11446187924594,None,248.49790854100138,None,gust,248.49790854100138,None,return,0.7762185307219625,248.5815398171544,None,,,,,,,,,,,,,,,,,,,,,,,,,,,,,,,,,164,001,2024_Feb_16_1525,SpeechDraft1Carolyn_lessNoise_PlusLocalization,2021.2.3,60.02720545908866,
carve.wav,carve.mpg,carve,2,AV,Pink_Noise_2_1.wav,Pink_Noise_2_2.wav,,,,,,,,,,,,,,,0,37,37,117,,,,,,,,,,,,,,,,,,,,,,,249.38138922397047,None,250.88091364409775,None,252.26457531517372,None,carve,252.26457531517372,None,return,1.3136488213203847,252.34819696797058,None,,,,,,,,,,,,,,,,,,,,,,,,,,,,,,,,,164,001,2024_Feb_16_1525,SpeechDraft1Carolyn_lessNoise_PlusLocalization,2021.2.3,60.02720545908866,
cramp.wav,cramp.mpg,cramp,2,AV,Pink_Noise_2_1.wav,Pink_Noise_2_2.wav,,,,,,,,,,,,,,,0,38,38,78,,,,,,,,,,,,,,,,,,,,,,,253.68138481024653,None,255.18109923414886,None,256.56466095289215,None,cramp,256.56466095289215,None,return,1.1658365530893207,256.6480133170262,None,,,,,,,,,,,,,,,,,,,,,,,,,,,,,,,,,164,001,2024_Feb_16_1525,SpeechDraft1Carolyn_lessNoise_PlusLocalization,2021.2.3,60.02720545908866,
round.wav,round.mpg,round,5,A,Pink_Noise_5_1.wav,Pink_Noise_5_2.wav,,,,,,,,,,,,,,,0,39,39,35,,,,,,,,,,,,,,,,,,,,,,,257.8312782482244,None,259.3478681151755,None,260.7313374732621,None,drive,260.7313374732621,None,return,2.143062232993543,260.81468600500375,None,,,,,,,,,,,,,,,,,,,,,,,,,,,,,,,,,164,001,2024_Feb_16_1525,SpeechDraft1Carolyn_lessNoise_PlusLocalization,2021.2.3,60.02720545908866,
truck.wav,truck.mpg,truck,6,A,Pink_Noise_6_1.wav,Pink_Noise_6_2.wav,,,,,,,,,,,,,,,0,40,40,11,,,,,,,,,,,,,,,,,,,,,,,262.98127005714923,None,264.4810855858959,None,265.8647070149891,None,trust,265.8647070149891,None,return,1.0417506573721766,265.94800552306697,None,,,,,,,,,,,,,,,,,,,,,,,,,,,,,,,,,164,001,2024_Feb_16_1525,SpeechDraft1Carolyn_lessNoise_PlusLocalization,2021.2.3,60.02720545908866,
edge.wav,edge.mpg,edge,3,A,Pink_Noise_3_1.wav,Pink_Noise_3_2.wav,,,,,,,,,,,,,,,0,41,41,44,,,,,,,,,,,,,,,,,,,,,,,267.0146539770067,None,268.5144292069599,None,269.89803566783667,None,edge,269.89803566783667,None,return,1.808267155662179,269.98149400623515,None,,,,,,,,,,,,,,,,,,,,,,,,,,,,,,,,,164,001,2024_Feb_16_1525,SpeechDraft1Carolyn_lessNoise_PlusLocalization,2021.2.3,60.02720545908866,
tart.wav,tart.mpg,tart,6,A,Pink_Noise_6_1.wav,Pink_Noise_6_2.wav,,,,,,,,,,,,,,,0,42,42,12,,,,,,,,,,,,,,,,,,,,,,,271.8146840631962,None,273.3310763919726,None,274.7147338022478,None,touch,274.7147338022478,None,return,2.5277261049486697,274.7980327010155,None,,,,,,,,,,,,,,,,,,,,,,,,,,,,,,,,,164,001,2024_Feb_16_1525,SpeechDraft1Carolyn_lessNoise_PlusLocalization,2021.2.3,60.02720545908866,
smack.wav,smack.mpg,smack,5,AV,Pink_Noise_5_1.wav,Pink_Noise_5_2.wav,,,,,,,,,,,,,,,0,43,43,75,,,,,,,,,,,,,,,,,,,,,,,277.3480904698372,None,278.86449320288375,None,280.247876459267,None,smash,280.247876459267,None,return,4.362395920325071,280.3313577249646,None,,,,,,,,,,,,,,,,,,,,,,,,,,,,,,,,,164,001,2024_Feb_16_1525,SpeechDraft1Carolyn_lessNoise_PlusLocalization,2021.2.3,60.02720545908866,
spray.wav,spray.mpg,spray,2,A,Pink_Noise_2_1.wav,Pink_Noise_2_2.wav,,,,,,,,,,,,,,,0,44,44,24,,,,,,,,,,,,,,,,,,,,,,,284.7146772798151,None,286.21443135803565,None,287.59820662019774,None,spray,287.59820662019774,None,return,1.7324587660841644,287.68136732513085,None,,,,,,,,,,,,,,,,,,,,,,,,,,,,,,,,,164,001,2024_Feb_16_1525,SpeechDraft1Carolyn_lessNoise_PlusLocalization,2021.2.3,60.02720545908866,
chain.wav,chain.mpg,chain,1,A,Pink_Noise_1_1.wav,Pink_Noise_1_2.wav,,,,,,,,,,,,,,,0,45,45,28,,,,,,,,,,,,,,,,,,,,,,,289.43136140704155,None,290.94775615399703,None,292.33145422814414,None,chain,292.33145422814414,None,return,2.5268671857193112,292.4148895149119,None,,,,,,,,,,,,,,,,,,,,,,,,,,,,,,,,,164,001,2024_Feb_16_1525,SpeechDraft1Carolyn_lessNoise_PlusLocalization,2021.2.3,60.02720545908866,
chore.wav,chore.mpg,chore,6,AV,Pink_Noise_6_1.wav,Pink_Noise_6_2.wav,,,,,,,,,,,,,,,0,46,46,112,,,,,,,,,,,,,,,,,,,,,,,294.96480567893013,None,296.48108258098364,None,297.8646875140257,None,choice,297.8646875140257,None,return,3.80968966614455,297.94807540113106,None,,,,,,,,,,,,,,,,,,,,,,,,,,,,,,,,,164,001,2024_Feb_16_1525,SpeechDraft1Carolyn_lessNoise_PlusLocalization,2021.2.3,60.02720545908866,
blot.wav,blot.mpg,blot,5,AV,Pink_Noise_5_1.wav,Pink_Noise_5_2.wav,,,,,,,,,,,,,,,0,47,47,101,,,,,,,,,,,,,,,,,,,,,,,301.781364093069,None,303.2810928081162,None,304.6647581011057,None,blush,304.6647581011057,None,return,2.809529114048928,304.74821981601417,None,,,,,,,,,,,,,,,,,,,,,,,,,,,,,,,,,164,001,2024_Feb_16_1525,SpeechDraft1Carolyn_lessNoise_PlusLocalization,2021.2.3,60.02720545908866,
flash.wav,flash.mpg,flash,1,AV,Pink_Noise_1_1.wav,Pink_Noise_1_2.wav,,,,,,,,,,,,,,,0,48,48,114,,,,,,,,,,,,,,,,,,,,,,,307.58137875283137,None,309.09784682886675,None,310.4813628029078,None,"flash
",310.4813628029078,None,return,1.1850478551350534,310.5647093350999,None,,,,,,,,,,,,,,,,,,,,,,,,,,,,,,,,,164,001,2024_Feb_16_1525,SpeechDraft1Carolyn_lessNoise_PlusLocalization,2021.2.3,60.02720545908866,
dark.wav,dark.mpg,dark,1,AV,Pink_Noise_1_1.wav,Pink_Noise_1_2.wav,,,,,,,,,,,,,,,0,49,49,108,,,,,,,,,,,,,,,,,,,,,,,311.7814830108546,None,313.2977303802036,None,314.68135088682175,None,dark,314.68135088682175,None,return,1.1130724758841097,314.7647486748174,None,,,,,,,,,,,,,,,,,,,,,,,,,,,,,,,,,164,001,2024_Feb_16_1525,SpeechDraft1Carolyn_lessNoise_PlusLocalization,2021.2.3,60.02720545908866,
wound.wav,wound.mpg,wound,1,AV,Pink_Noise_1_1.wav,Pink_Noise_1_2.wav,,,,,,,,,,,,,,,0,50,50,94,,,,,,,,,,,,,,,,,,,,,,,315.898085991852,None,317.3979418189265,None,318.7813122048974,None,"wound
",318.7813122048974,None,return,2.7170313079841435,318.86472981097177,None,,,,,,,,,,,,,,,,,,,,,,,,,,,,,,,,,164,001,2024_Feb_16_1525,SpeechDraft1Carolyn_lessNoise_PlusLocalization,2021.2.3,60.02720545908866,
coast.wav,coast.mpg,coast,1,A,Pink_Noise_1_1.wav,Pink_Noise_1_2.wav,,,,,,,,,,,,,,,0,51,51,31,,,,,,,,,,,,,,,,,,,,,,,321.61475086724386,None,323.1314431061037,None,324.51478650793433,None,"coast
",324.51478650793433,None,return,1.3035257440060377,324.5982256149873,None,,,,,,,,,,,,,,,,,,,,,,,,,,,,,,,,,164,001,2024_Feb_16_1525,SpeechDraft1Carolyn_lessNoise_PlusLocalization,2021.2.3,60.02720545908866,
nice.wav,nice.mpg,nice,5,AV,Pink_Noise_5_1.wav,Pink_Noise_5_2.wav,,,,,,,,,,,,,,,0,52,52,105,,,,,,,,,,,,,,,,,,,,,,,325.9314182861708,None,327.4478245661594,None,328.8313863640651,None,lost,328.8313863640651,None,return,0.8991097337566316,328.91474566981196,None,,,,,,,,,,,,,,,,,,,,,,,,,,,,,,,,,164,001,2024_Feb_16_1525,SpeechDraft1Carolyn_lessNoise_PlusLocalization,2021.2.3,60.02720545908866,
druid.wav,druid.mpg,druid,3,A,Pink_Noise_3_1.wav,Pink_Noise_3_2.wav,,,,,,,,,,,,,,,0,53,53,45,,,,,,,,,,,,,,,,,,,,,,,329.8314500111155,None,331.33107322920114,None,332.7147517791018,None,dreary,332.7147517791018,None,return,4.959616429172456,332.79815134685487,None,,,,,,,,,,,,,,,,,,,,,,,,,,,,,,,,,164,001,2024_Feb_16_1525,SpeechDraft1Carolyn_lessNoise_PlusLocalization,2021.2.3,60.02720545908866,
chat.wav,chat.mpg,chat,1,A,Pink_Noise_1_1.wav,Pink_Noise_1_2.wav,,,,,,,,,,,,,,,0,54,54,34,,,,,,,,,,,,,,,,,,,,,,,337.7814776310697,None,339.29793030489236,None,340.68141434015706,None,chant,340.68141434015706,None,return,1.5210215877741575,340.7647704798728,None,,,,,,,,,,,,,,,,,,,,,,,,,,,,,,,,,164,001,2024_Feb_16_1525,SpeechDraft1Carolyn_lessNoise_PlusLocalization,2021.2.3,60.02720545908866,
deem.wav,deem.mpg,deem,2,AV,Pink_Noise_2_1.wav,Pink_Noise_2_2.wav,,,,,,,,,,,,,,,0,55,55,73,,,,,,,,,,,,,,,,,,,,,,,342.31477580824867,None,343.8145675249398,None,345.1980925281532,None,"deem
",345.1980925281532,None,return,0.8521787910722196,345.2815824332647,None,,,,,,,,,,,,,,,,,,,,,,,,,,,,,,,,,164,001,2024_Feb_16_1525,SpeechDraft1Carolyn_lessNoise_PlusLocalization,2021.2.3,60.02720545908866,
swayed.wav,swayed.mpg,swayed,1,A,Pink_Noise_1_1.wav,Pink_Noise_1_2.wav,,,,,,,,,,,,,,,0,56,56,14,,,,,,,,,,,,,,,,,,,,,,,346.1648844629526,None,347.66580323688686,None,349.048193000257,None,suede,349.048193000257,None,return,2.514335947111249,349.13143099984154,None,,,,,,,,,,,,,,,,,,,,,,,,,,,,,,,,,164,001,2024_Feb_16_1525,SpeechDraft1Carolyn_lessNoise_PlusLocalization,2021.2.3,60.02720545908866,
gray.wav,gray.mpg,gray,2,A,Pink_Noise_2_1.wav,Pink_Noise_2_2.wav,,,,,,,,,,,,,,,0,57,57,43,,,,,,,,,,,,,,,,,,,,,,,351.6647712881677,None,353.16478207707405,None,354.5481602908112,None,gray,354.5481602908112,None,return,2.366277150809765,354.63154734810814,None,,,,,,,,,,,,,,,,,,,,,,,,,,,,,,,,,164,001,2024_Feb_16_1525,SpeechDraft1Carolyn_lessNoise_PlusLocalization,2021.2.3,60.02720545908866,
flow.wav,flow.mpg,flow,6,A,Pink_Noise_6_1.wav,Pink_Noise_6_2.wav,,,,,,,,,,,,,,,0,58,58,30,,,,,,,,,,,,,,,,,,,,,,,357.01478205481544,None,358.5145503161475,None,359.89812008617446,None,"hope
",359.89812008617446,None,return,4.184314955957234,359.9814820578322,None,,,,,,,,,,,,,,,,,,,,,,,,,,,,,,,,,164,001,2024_Feb_16_1525,SpeechDraft1Carolyn_lessNoise_PlusLocalization,2021.2.3,60.02720545908866,
gang.wav,gang.mpg,gang,4,AV,Pink_Noise_4_1.wav,Pink_Noise_4_2.wav,,,,,,,,,,,,,,,0,59,59,98,,,,,,,,,,,,,,,,,,,,,,,364.1981203868054,None,365.6984999268316,None,367.0814007022418,None,stay,367.0814007022418,None,return,1.6089634979143739,367.16481952695176,None,,,,,,,,,,,,,,,,,,,,,,,,,,,,,,,,,164,001,2024_Feb_16_1525,SpeechDraft1Carolyn_lessNoise_PlusLocalization,2021.2.3,60.02720545908866,
crank.wav,crank.mpg,crank,2,A,Pink_Noise_2_1.wav,Pink_Noise_2_2.wav,,,,,,,,,,,,,,,0,60,60,32,,,,,,,,,,,,,,,,,,,,,,,368.7982493038289,None,370.3144942461513,None,371.6982089430094,None,"crack
",371.6982089430094,None,return,3.368236729875207,371.7815318061039,None,,,,,,,,,,,,,,,,,,,,,,,,,,,,,,,,,164,001,2024_Feb_16_1525,SpeechDraft1Carolyn_lessNoise_PlusLocalization,2021.2.3,60.02720545908866,
clerk.wav,clerk.mpg,clerk,6,AV,Pink_Noise_6_1.wav,Pink_Noise_6_2.wav,,,,,,,,,,,,,,,0,61,61,90,,,,,,,,,,,,,,,,,,,,,,,375.1814816710539,None,376.6818975871429,None,378.064907155931,None,curs,378.064907155931,None,return,2.0816430347040296,378.14817137783393,None,,,,,,,,,,,,,,,,,,,,,,,,,,,,,,,,,164,001,2024_Feb_16_1525,SpeechDraft1Carolyn_lessNoise_PlusLocalization,2021.2.3,60.02720545908866,
clutch.wav,clutch.mpg,clutch,6,AV,Pink_Noise_6_1.wav,Pink_Noise_6_2.wav,,,,,,,,,,,,,,,0,62,62,106,,,,,,,,,,,,,,,,,,,,,,,380.248206987977,None,381.74930594023317,None,383.13156849425286,None,clutch,383.13156849425286,None,return,2.9829625892452896,383.2148500629701,None,,,,,,,,,,,,,,,,,,,,,,,,,,,,,,,,,164,001,2024_Feb_16_1525,SpeechDraft1Carolyn_lessNoise_PlusLocalization,2021.2.3,60.02720545908866,
cloud.wav,cloud.mpg,cloud,3,A,Pink_Noise_3_1.wav,Pink_Noise_3_2.wav,,,,,,,,,,,,,,,0,63,63,39,,,,,,,,,,,,,,,,,,,,,,,386.2148189628497,None,387.7147783092223,None,389.0980863138102,None,cloud,389.0980863138102,None,return,1.2162580727599561,389.1816024980508,None,,,,,,,,,,,,,,,,,,,,,,,,,,,,,,,,,164,001,2024_Feb_16_1525,SpeechDraft1Carolyn_lessNoise_PlusLocalization,2021.2.3,60.02720545908866,
paid.wav,paid.mpg,paid,3,AV,Pink_Noise_3_1.wav,Pink_Noise_3_2.wav,,,,,,,,,,,,,,,0,64,64,110,,,,,,,,,,,,,,,,,,,,,,,390.41485849395394,None,391.9313182258047,None,393.3148343428038,None,pain,393.3148343428038,None,return,3.511629352811724,393.3981402348727,None,,,,,,,,,,,,,,,,,,,,,,,,,,,,,,,,,164,001,2024_Feb_16_1525,SpeechDraft1Carolyn_lessNoise_PlusLocalization,2021.2.3,60.02720545908866,
gash.wav,gash.mpg,gash,1,AV,Pink_Noise_1_1.wav,Pink_Noise_1_2.wav,,,,,,,,,,,,,,,0,65,65,88,,,,,,,,,,,,,,,,,,,,,,,396.93151303287596,None,398.4321852950379,None,399.8148338939063,None,gash,399.8148338939063,None,return,1.1236880267970264,399.8982234708965,None,,,,,,,,,,,,,,,,,,,,,,,,,,,,,,,,,164,001,2024_Feb_16_1525,SpeechDraft1Carolyn_lessNoise_PlusLocalization,2021.2.3,60.02720545908866,
solve.wav,solve.mpg,solve,4,A,Pink_Noise_4_1.wav,Pink_Noise_4_2.wav,,,,,,,,,,,,,,,0,66,66,25,,,,,,,,,,,,,,,,,,,,,,,401.04823442781344,None,402.5479311631061,None,403.9318186128512,None,solid,403.9318186128512,None,return,1.2949057859368622,404.0148654091172,None,,,,,,,,,,,,,,,,,,,,,,,,,,,,,,,,,164,001,2024_Feb_16_1525,SpeechDraft1Carolyn_lessNoise_PlusLocalization,2021.2.3,60.02720545908866,
your.wav,your.mpg,your,5,AV,Pink_Noise_5_1.wav,Pink_Noise_5_2.wav,,,,,,,,,,,,,,,0,67,67,87,,,,,,,,,,,,,,,,,,,,,,,405.331604026258,None,406.8480404098518,None,408.23144832393155,None,"joy
",408.23144832393155,None,return,2.0188436838798225,408.31492627225816,None,,,,,,,,,,,,,,,,,,,,,,,,,,,,,,,,,164,001,2024_Feb_16_1525,SpeechDraft1Carolyn_lessNoise_PlusLocalization,2021.2.3,60.02720545908866,
den.wav,den.mpg,den,6,AV,Pink_Noise_6_1.wav,Pink_Noise_6_2.wav,,,,,,,,,,,,,,,0,68,68,80,,,,,,,,,,,,,,,,,,,,,,,410.3648917870596,None,411.8812727271579,None,413.26482200296596,None,"stay
",413.26482200296596,None,return,2.0174775109626353,413.3482629409991,None,,,,,,,,,,,,,,,,,,,,,,,,,,,,,,,,,164,001,2024_Feb_16_1525,SpeechDraft1Carolyn_lessNoise_PlusLocalization,2021.2.3,60.02720545908866,
thief.wav,thief.mpg,thief,1,A,Pink_Noise_1_1.wav,Pink_Noise_1_2.wav,,,,,,,,,,,,,,,0,69,69,29,,,,,,,,,,,,,,,,,,,,,,,415.3983574891463,None,416.9147265739739,None,418.2982726530172,None,thief,418.2982726530172,None,return,2.608147624414414,418.38160646380857,None,,,,,,,,,,,,,,,,,,,,,,,,,,,,,,,,,164,001,2024_Feb_16_1525,SpeechDraft1Carolyn_lessNoise_PlusLocalization,2021.2.3,60.02720545908866,
drink.wav,drink.mpg,drink,5,AV,Pink_Noise_5_1.wav,Pink_Noise_5_2.wav,,,,,,,,,,,,,,,0,70,70,99,,,,,,,,,,,,,,,,,,,,,,,421.0149143598974,None,422.5313291689381,None,423.91502187913284,None,"drink
",423.91502187913284,None,return,0.9035337311215699,423.9982278691605,None,,,,,,,,,,,,,,,,,,,,,,,,,,,,,,,,,164,001,2024_Feb_16_1525,SpeechDraft1Carolyn_lessNoise_PlusLocalization,2021.2.3,60.02720545908866,
grace.wav,grace.mpg,grace,5,AV,Pink_Noise_5_1.wav,Pink_Noise_5_2.wav,,,,,,,,,,,,,,,0,71,71,62,,,,,,,,,,,,,,,,,,,,,,,424.931621870026,None,426.4479554970749,None,427.83151556691155,None,grace,427.83151556691155,None,return,0.8267063619568944,427.9150719172321,None,,,,,,,,,,,,,,,,,,,,,,,,,,,,,,,,,164,001,2024_Feb_16_1525,SpeechDraft1Carolyn_lessNoise_PlusLocalization,2021.2.3,60.02720545908866,
bye.wav,bye.mpg,bye,4,AV,Pink_Noise_4_1.wav,Pink_Noise_4_2.wav,,,,,,,,,,,,,,,0,72,72,84,,,,,,,,,,,,,,,,,,,,,,,428.76490914588794,None,430.28133497200906,None,431.6663209302351,None,buy,431.6663209302351,None,return,3.6415562415495515,431.7482001562603,None,,,,,,,,,,,,,,,,,,,,,,,,,,,,,,,,,164,001,2024_Feb_16_1525,SpeechDraft1Carolyn_lessNoise_PlusLocalization,2021.2.3,60.02720545908866,
fade.wav,fade.mpg,fade,1,AV,Pink_Noise_1_1.wav,Pink_Noise_1_2.wav,,,,,,,,,,,,,,,0,73,73,74,,,,,,,,,,,,,,,,,,,,,,,435.41496780794114,None,436.93131923582405,None,438.31488057412207,None,fade,438.31488057412207,None,return,0.9995494745671749,438.398273895029,None,,,,,,,,,,,,,,,,,,,,,,,,,,,,,,,,,164,001,2024_Feb_16_1525,SpeechDraft1Carolyn_lessNoise_PlusLocalization,2021.2.3,60.02720545908866,
grade.wav,grade.mpg,grade,5,A,Pink_Noise_5_1.wav,Pink_Noise_5_2.wav,,,,,,,,,,,,,,,0,74,74,48,,,,,,,,,,,,,,,,,,,,,,,439.4148894841783,None,440.9311931822449,None,442.31495512789115,None,sprays,442.31495512789115,None,return,1.8314628899097443,442.39833788294345,None,,,,,,,,,,,,,,,,,,,,,,,,,,,,,,,,,164,001,2024_Feb_16_1525,SpeechDraft1Carolyn_lessNoise_PlusLocalization,2021.2.3,60.02720545908866,
dirt.wav,dirt.mpg,dirt,2,A,Pink_Noise_2_1.wav,Pink_Noise_2_2.wav,,,,,,,,,,,,,,,0,75,75,33,,,,,,,,,,,,,,,,,,,,,,,444.248310205061,None,445.74923158204183,None,447.13167445221916,None,dirt,447.13167445221916,None,return,1.2788225100375712,447.21496284520254,None,,,,,,,,,,,,,,,,,,,,,,,,,,,,,,,,,164,001,2024_Feb_16_1525,SpeechDraft1Carolyn_lessNoise_PlusLocalization,2021.2.3,60.02720545908866,
weep.wav,weep.mpg,weep,3,AV,Pink_Noise_3_1.wav,Pink_Noise_3_2.wav,,,,,,,,,,,,,,,0,76,76,97,,,,,,,,,,,,,,,,,,,,,,,448.5150239178911,None,450.03133077407256,None,451.4148429748602,None,"with
",451.4148429748602,None,return,1.2034485866315663,451.498305932153,None,,,,,,,,,,,,,,,,,,,,,,,,,,,,,,,,,164,001,2024_Feb_16_1525,SpeechDraft1Carolyn_lessNoise_PlusLocalization,2021.2.3,60.02720545908866,
chump.wav,chump.mpg,chump,6,A,Pink_Noise_6_1.wav,Pink_Noise_6_2.wav,,,,,,,,,,,,,,,0,77,77,46,,,,,,,,,,,,,,,,,,,,,,,452.731650010217,None,454.24798770202324,None,455.6316941380501,None,chalk,455.6316941380501,None,return,1.4987355940975249,455.71510868985206,None,,,,,,,,,,,,,,,,,,,,,,,,,,,,,,,,,164,001,2024_Feb_16_1525,SpeechDraft1Carolyn_lessNoise_PlusLocalization,2021.2.3,60.02720545908866,
fuse.wav,fuse.mpg,fuse,3,AV,Pink_Noise_3_1.wav,Pink_Noise_3_2.wav,,,,,,,,,,,,,,,0,78,78,113,,,,,,,,,,,,,,,,,,,,,,,457.2315850071609,None,458.74809147883207,None,460.13171136099845,None,"fuse
",460.13171136099845,None,return,0.918839056044817,460.21492346795276,None,,,,,,,,,,,,,,,,,,,,,,,,,,,,,,,,,164,001,2024_Feb_16_1525,SpeechDraft1Carolyn_lessNoise_PlusLocalization,2021.2.3,60.02720545908866,
dream.wav,dream.mpg,dream,4,A,Pink_Noise_4_1.wav,Pink_Noise_4_2.wav,,,,,,,,,,,,,,,0,79,79,19,,,,,,,,,,,,,,,,,,,,,,,461.164976476226,None,462.6812937548384,None,464.06497859722003,None,dream,464.06497859722003,None,return,1.2414298383519053,464.148336246144,None,,,,,,,,,,,,,,,,,,,,,,,,,,,,,,,,,164,001,2024_Feb_16_1525,SpeechDraft1Carolyn_lessNoise_PlusLocalization,2021.2.3,60.02720545908866,
brief.wav,brief.mpg,brief,5,A,Pink_Noise_5_1.wav,Pink_Noise_5_2.wav,,,,,,,,,,,,,,,0,80,80,2,,,,,,,,,,,,,,,,,,,,,,,465.41507796011865,None,466.93135059112683,None,468.3149960511364,None,freak,468.3149960511364,None,return,6.59134753793478,468.3984095910564,None,,,,,,,,,,,,,,,,,,,,,,,,,,,,,,,,,164,001,2024_Feb_16_1525,SpeechDraft1Carolyn_lessNoise_PlusLocalization,2021.2.3,60.02720545908866,
clog.wav,clog.mpg,clog,6,AV,Pink_Noise_6_1.wav,Pink_Noise_6_2.wav,,,,,,,,,,,,,,,0,81,81,119,,,,,,,,,,,,,,,,,,,,,,,475.01499592512846,None,476.5313816862181,None,477.91487973509356,None,"lie
",477.91487973509356,None,return,1.7034445777535439,477.998317127116,None,,,,,,,,,,,,,,,,,,,,,,,,,,,,,,,,,164,001,2024_Feb_16_1525,SpeechDraft1Carolyn_lessNoise_PlusLocalization,2021.2.3,60.02720545908866,
wet.wav,wet.mpg,wet,2,AV,Pink_Noise_2_1.wav,Pink_Noise_2_2.wav,,,,,,,,,,,,,,,0,82,82,115,,,,,,,,,,,,,,,,,,,,,,,479.7317017139867,None,481.2480338970199,None,482.6315634311177,None,wet,482.6315634311177,None,return,1.0108005148358643,482.7149804770015,None,,,,,,,,,,,,,,,,,,,,,,,,,,,,,,,,,164,001,2024_Feb_16_1525,SpeechDraft1Carolyn_lessNoise_PlusLocalization,2021.2.3,60.02720545908866,
fun.wav,fun.mpg,fun,3,A,Pink_Noise_3_1.wav,Pink_Noise_3_2.wav,,,,,,,,,,,,,,,0,83,83,3,,,,,,,,,,,,,,,,,,,,,,,483.74830838898197,None,485.26469396194443,None,486.6484712222591,None,bug,486.6484712222591,None,return,1.0662038088776171,486.7316308459267,None,,,,,,,,,,,,,,,,,,,,,,,,,,,,,,,,,164,001,2024_Feb_16_1525,SpeechDraft1Carolyn_lessNoise_PlusLocalization,2021.2.3,60.02720545908866,
style.wav,style.mpg,style,1,AV,Pink_Noise_1_1.wav,Pink_Noise_1_2.wav,,,,,,,,,,,,,,,0,84,84,70,,,,,,,,,,,,,,,,,,,,,,,487.8151677092537,None,489.3314512898214,None,490.7148719681427,None,"style
",490.7148719681427,None,return,1.135432246606797,490.79833821207285,None,,,,,,,,,,,,,,,,,,,,,,,,,,,,,,,,,164,001,2024_Feb_16_1525,SpeechDraft1Carolyn_lessNoise_PlusLocalization,2021.2.3,60.02720545908866,
roar.wav,roar.mpg,roar,6,AV,Pink_Noise_6_1.wav,Pink_Noise_6_2.wav,,,,,,,,,,,,,,,0,85,85,68,,,,,,,,,,,,,,,,,,,,,,,491.96501323906705,None,493.4813552419655,None,494.86493174219504,None,rose,494.86493174219504,None,return,1.449478861875832,494.94834091188386,None,,,,,,,,,,,,,,,,,,,,,,,,,,,,,,,,,164,001,2024_Feb_16_1525,SpeechDraft1Carolyn_lessNoise_PlusLocalization,2021.2.3,60.02720545908866,
core.wav,core.mpg,core,2,AV,Pink_Noise_2_1.wav,Pink_Noise_2_2.wav,,,,,,,,,,,,,,,0,86,86,85,,,,,,,,,,,,,,,,,,,,,,,496.4150097700767,None,497.9314711801708,None,499.3149759871885,None,core,499.3149759871885,None,return,0.8394890609197319,499.3983780890703,None,,,,,,,,,,,,,,,,,,,,,,,,,,,,,,,,,164,001,2024_Feb_16_1525,SpeechDraft1Carolyn_lessNoise_PlusLocalization,2021.2.3,60.02720545908866,
doom.wav,doom.mpg,doom,3,AV,Pink_Noise_3_1.wav,Pink_Noise_3_2.wav,,,,,,,,,,,,,,,0,87,87,83,,,,,,,,,,,,,,,,,,,,,,,500.2650799192488,None,501.78149327496067,None,503.1649298691191,None,doom,503.1649298691191,None,return,1.013469633180648,503.2483827350661,None,,,,,,,,,,,,,,,,,,,,,,,,,,,,,,,,,164,001,2024_Feb_16_1525,SpeechDraft1Carolyn_lessNoise_PlusLocalization,2021.2.3,60.02720545908866,
dim.wav,dim.mpg,dim,5,A,Pink_Noise_5_1.wav,Pink_Noise_5_2.wav,,,,,,,,,,,,,,,0,88,88,20,,,,,,,,,,,,,,,,,,,,,,,504.281702528242,None,505.7980164028704,None,507.1817030762322,None,"judge
",507.1817030762322,None,return,3.2687098318710923,507.26505833584815,None,,,,,,,,,,,,,,,,,,,,,,,,,,,,,,,,,164,001,2024_Feb_16_1525,SpeechDraft1Carolyn_lessNoise_PlusLocalization,2021.2.3,60.02720545908866,
chef.wav,chef.mpg,chef,4,A,Pink_Noise_4_1.wav,Pink_Noise_4_2.wav,,,,,,,,,,,,,,,0,89,89,58,,,,,,,,,,,,,,,,,,,,,,,510.564991903957,None,512.0815820158459,None,513.4650888731703,None,"chuck
",513.4650888731703,None,return,1.4334305031225085,513.548345094081,None,,,,,,,,,,,,,,,,,,,,,,,,,,,,,,,,,164,001,2024_Feb_16_1525,SpeechDraft1Carolyn_lessNoise_PlusLocalization,2021.2.3,60.02720545908866,
thorn.wav,thorn.mpg,thorn,2,AV,Pink_Noise_2_1.wav,Pink_Noise_2_2.wav,,,,,,,,,,,,,,,0,90,90,72,,,,,,,,,,,,,,,,,,,,,,,515.0150038348511,None,516.5314459921792,None,517.915067682974,None,thorn,517.915067682974,None,return,2.8634991138242185,517.9983295002021,None,,,,,,,,,,,,,,,,,,,,,,,,,,,,,,,,,164,001,2024_Feb_16_1525,SpeechDraft1Carolyn_lessNoise_PlusLocalization,2021.2.3,60.02720545908866,
bone.wav,bone.mpg,bone,6,A,Pink_Noise_6_1.wav,Pink_Noise_6_2.wav,,,,,,,,,,,,,,,0,91,91,53,,,,,,,,,,,,,,,,,,,,,,,520.881747610867,None,522.3980922889896,None,523.7817237940617,None,rain,523.7817237940617,None,return,0.8126772507093847,523.8650804120116,None,,,,,,,,,,,,,,,,,,,,,,,,,,,,,,,,,164,001,2024_Feb_16_1525,SpeechDraft1Carolyn_lessNoise_PlusLocalization,2021.2.3,60.02720545908866,
glass.wav,glass.mpg,glass,4,A,Pink_Noise_4_1.wav,Pink_Noise_4_2.wav,,,,,,,,,,,,,,,0,92,92,27,,,,,,,,,,,,,,,,,,,,,,,524.6982801952399,None,526.1997638512403,None,527.5818447782658,None,"grass
",527.5818447782658,None,return,1.036770660430193,527.6649936288595,None,,,,,,,,,,,,,,,,,,,,,,,,,,,,,,,,,164,001,2024_Feb_16_1525,SpeechDraft1Carolyn_lessNoise_PlusLocalization,2021.2.3,60.02720545908866,
cloak.wav,cloak.mpg,cloak,3,A,Pink_Noise_3_1.wav,Pink_Noise_3_2.wav,,,,,,,,,,,,,,,0,93,93,56,,,,,,,,,,,,,,,,,,,,,,,528.7316971831024,None,530.248019667808,None,531.631708513014,None,"cloak
",531.631708513014,None,return,1.5867350371554494,531.7150372378528,None,,,,,,,,,,,,,,,,,,,,,,,,,,,,,,,,,164,001,2024_Feb_16_1525,SpeechDraft1Carolyn_lessNoise_PlusLocalization,2021.2.3,60.02720545908866,
feed.wav,feed.mpg,feed,2,A,Pink_Noise_2_1.wav,Pink_Noise_2_2.wav,,,,,,,,,,,,,,,0,94,94,15,,,,,,,,,,,,,,,,,,,,,,,533.3316854750738,None,534.8481220141985,None,536.2317891488783,None,feed,536.2317891488783,None,return,0.7627635528333485,536.3150329198688,None,,,,,,,,,,,,,,,,,,,,,,,,,,,,,,,,,164,001,2024_Feb_16_1525,SpeechDraft1Carolyn_lessNoise_PlusLocalization,2021.2.3,60.02720545908866,
draft.wav,draft.mpg,draft,1,A,Pink_Noise_1_1.wav,Pink_Noise_1_2.wav,,,,,,,,,,,,,,,0,95,95,0,,,,,,,,,,,,,,,,,,,,,,,537.0983723881654,None,538.6149254902266,None,539.9984571109526,None,"draft
",539.9984571109526,None,return,1.4520250377245247,540.0817478871904,None,,,,,,,,,,,,,,,,,,,,,,,,,,,,,,,,,164,001,2024_Feb_16_1525,SpeechDraft1Carolyn_lessNoise_PlusLocalization,2021.2.3,60.02720545908866,
chart.wav,chart.mpg,chart,5,AV,Pink_Noise_5_1.wav,Pink_Noise_5_2.wav,,,,,,,,,,,,,,,0,96,96,64,,,,,,,,,,,,,,,,,,,,,,,541.5652171690017,None,543.081427027937,None,544.4650578722358,None,charge,544.4650578722358,None,return,1.4253826020285487,544.5483836252242,None,,,,,,,,,,,,,,,,,,,,,,,,,,,,,,,,,164,001,2024_Feb_16_1525,SpeechDraft1Carolyn_lessNoise_PlusLocalization,2021.2.3,60.02720545908866,
bush.wav,bush.mpg,bush,4,A,Pink_Noise_4_1.wav,Pink_Noise_4_2.wav,,,,,,,,,,,,,,,0,97,97,6,,,,,,,,,,,,,,,,,,,,,,,545.9984781779349,None,547.5147654311731,None,548.8984132139012,None,"brush
",548.8984132139012,None,return,1.720019063912332,548.9817489320412,None,,,,,,,,,,,,,,,,,,,,,,,,,,,,,,,,,164,001,2024_Feb_16_1525,SpeechDraft1Carolyn_lessNoise_PlusLocalization,2021.2.3,60.02720545908866,
shed.wav,shed.mpg,shed,2,A,Pink_Noise_2_1.wav,Pink_Noise_2_2.wav,,,,,,,,,,,,,,,0,98,98,21,,,,,,,,,,,,,,,,,,,,,,,550.7317533059977,None,552.2481329711154,None,553.6317319730297,None,"shed
",553.6317319730297,None,return,0.7866757879965007,553.7150852638297,None,,,,,,,,,,,,,,,,,,,,,,,,,,,,,,,,,164,001,2024_Feb_16_1525,SpeechDraft1Carolyn_lessNoise_PlusLocalization,2021.2.3,60.02720545908866,
fast.wav,fast.mpg,fast,3,A,Pink_Noise_3_1.wav,Pink_Noise_3_2.wav,,,,,,,,,,,,,,,0,99,99,10,,,,,,,,,,,,,,,,,,,,,,,554.5317309009843,None,556.0480254022405,None,557.4317518002354,None,quest,557.4317518002354,None,return,1.6666534221731126,557.5151009359397,None,,,,,,,,,,,,,,,,,,,,,,,,,,,,,,,,,164,001,2024_Feb_16_1525,SpeechDraft1Carolyn_lessNoise_PlusLocalization,2021.2.3,60.02720545908866,
toy.wav,toy.mpg,toy,2,A,Pink_Noise_2_1.wav,Pink_Noise_2_2.wav,,,,,,,,,,,,,,,0,100,100,16,,,,,,,,,,,,,,,,,,,,,,,559.1984387389384,None,560.7147904890589,None,562.0984943201765,None,toy,562.0984943201765,None,return,1.5920036570169032,562.1817467240617,None,,,,,,,,,,,,,,,,,,,,,,,,,,,,,,,,,164,001,2024_Feb_16_1525,SpeechDraft1Carolyn_lessNoise_PlusLocalization,2021.2.3,60.02720545908866,
camp.wav,camp.mpg,camp,4,A,Pink_Noise_4_1.wav,Pink_Noise_4_2.wav,,,,,,,,,,,,,,,0,101,101,4,,,,,,,,,,,,,,,,,,,,,,,563.7984429490753,None,565.3147829449736,None,566.6984332040884,None,hip,566.6984332040884,None,return,3.272122710943222,566.7817288450897,None,,,,,,,,,,,,,,,,,,,,,,,,,,,,,,,,,164,001,2024_Feb_16_1525,SpeechDraft1Carolyn_lessNoise_PlusLocalization,2021.2.3,60.02720545908866,
club.wav,club.mpg,club,6,AV,Pink_Noise_6_1.wav,Pink_Noise_6_2.wav,,,,,,,,,,,,,,,0,102,102,69,,,,,,,,,,,,,,,,,,,,,,,570.0817227088846,None,571.5982031570747,None,572.9816424539313,None,"club
",572.9816424539313,None,return,3.636692361906171,573.0650803591125,None,,,,,,,,,,,,,,,,,,,,,,,,,,,,,,,,,164,001,2024_Feb_16_1525,SpeechDraft1Carolyn_lessNoise_PlusLocalization,2021.2.3,60.02720545908866,
frost.wav,frost.mpg,frost,6,A,Pink_Noise_6_1.wav,Pink_Noise_6_2.wav,,,,,,,,,,,,,,,0,103,103,49,,,,,,,,,,,,,,,,,,,,,,,576.7317826040089,None,578.2482093642466,None,579.6318703801371,None,"thrash
",579.6318703801371,None,return,2.1866692723706365,579.7151000462472,None,,,,,,,,,,,,,,,,,,,,,,,,,,,,,,,,,164,001,2024_Feb_16_1525,SpeechDraft1Carolyn_lessNoise_PlusLocalization,2021.2.3,60.02720545908866,
cease.wav,cease.mpg,cease,3,AV,Pink_Noise_3_1.wav,Pink_Noise_3_2.wav,,,,,,,,,,,,,,,0,104,104,61,,,,,,,,,,,,,,,,,,,,,,,581.9318091208115,None,583.4481251472607,None,584.8319395901635,None,cease,584.8319395901635,None,return,2.7547168801538646,584.915126494132,None,,,,,,,,,,,,,,,,,,,,,,,,,,,,,,,,,164,001,2024_Feb_16_1525,SpeechDraft1Carolyn_lessNoise_PlusLocalization,2021.2.3,60.02720545908866,
dull.wav,dull.mpg,dull,5,AV,Pink_Noise_5_1.wav,Pink_Noise_5_2.wav,,,,,,,,,,,,,,,0,105,105,60,,,,,,,,,,,,,,,,,,,,,,,587.6985888909549,None,589.214836792089,None,590.5983407748863,None,doll,590.5983407748863,None,return,1.916061288677156,590.6817745831795,None,,,,,,,,,,,,,,,,,,,,,,,,,,,,,,,,,164,001,2024_Feb_16_1525,SpeechDraft1Carolyn_lessNoise_PlusLocalization,2021.2.3,60.02720545908866,
coat.wav,coat.mpg,coat,2,AV,Pink_Noise_2_1.wav,Pink_Noise_2_2.wav,,,,,,,,,,,,,,,0,106,106,95,,,,,,,,,,,,,,,,,,,,,,,592.6151203908958,None,594.1316376551986,None,595.5150324921124,None,"coat
",595.5150324921124,None,return,0.7352112219668925,595.5985697251745,None,,,,,,,,,,,,,,,,,,,,,,,,,,,,,,,,,164,001,2024_Feb_16_1525,SpeechDraft1Carolyn_lessNoise_PlusLocalization,2021.2.3,60.02720545908866,
fable.wav,fable.mpg,fable,4,AV,Pink_Noise_4_1.wav,Pink_Noise_4_2.wav,,,,,,,,,,,,,,,0,107,107,96,,,,,,,,,,,,,,,,,,,,,,,596.365103343036,None,597.8982061329298,None,599.2651141891256,None,fab;e,599.2651141891256,None,return,1.1772735989652574,599.3484820518643,None,,,,,,,,,,,,,,,,,,,,,,,,,,,,,,,,,164,001,2024_Feb_16_1525,SpeechDraft1Carolyn_lessNoise_PlusLocalization,2021.2.3,60.02720545908866,
grant.wav,grant.mpg,grant,1,A,Pink_Noise_1_1.wav,Pink_Noise_1_2.wav,,,,,,,,,,,,,,,0,108,108,40,,,,,,,,,,,,,,,,,,,,,,,600.5484270192683,None,602.0648360331543,None,603.4484451259486,None,"grant
",603.4484451259486,None,return,1.969902316108346,603.5318521410227,None,,,,,,,,,,,,,,,,,,,,,,,,,,,,,,,,,164,001,2024_Feb_16_1525,SpeechDraft1Carolyn_lessNoise_PlusLocalization,2021.2.3,60.02720545908866,
calm.wav,calm.mpg,calm,1,AV,Pink_Noise_1_1.wav,Pink_Noise_1_2.wav,,,,,,,,,,,,,,,0,109,109,91,,,,,,,,,,,,,,,,,,,,,,,605.5318245659582,None,607.048186478205,None,608.431801606901,None,calm,608.431801606901,None,return,0.8907360062003136,608.5150841618888,None,,,,,,,,,,,,,,,,,,,,,,,,,,,,,,,,,164,001,2024_Feb_16_1525,SpeechDraft1Carolyn_lessNoise_PlusLocalization,2021.2.3,60.02720545908866,
deck.wav,deck.mpg,deck,1,AV,Pink_Noise_1_1.wav,Pink_Noise_1_2.wav,,,,,,,,,,,,,,,0,110,110,82,,,,,,,,,,,,,,,,,,,,,,,609.4317974140868,None,610.9481536392123,None,612.3329845732078,None,deck,612.3329845732078,None,return,0.8066989537328482,612.4151497180574,None,,,,,,,,,,,,,,,,,,,,,,,,,,,,,,,,,164,001,2024_Feb_16_1525,SpeechDraft1Carolyn_lessNoise_PlusLocalization,2021.2.3,60.02720545908866,
fan.wav,fan.mpg,fan,3,A,Pink_Noise_3_1.wav,Pink_Noise_3_2.wav,,,,,,,,,,,,,,,0,111,111,22,,,,,,,,,,,,,,,,,,,,,,,613.2484922870062,None,614.7649224540219,None,616.1485493169166,None,fan,616.1485493169166,None,return,0.6939058252610266,616.231859723106,None,,,,,,,,,,,,,,,,,,,,,,,,,,,,,,,,,164,001,2024_Feb_16_1525,SpeechDraft1Carolyn_lessNoise_PlusLocalization,2021.2.3,60.02720545908866,
bean.wav,bean.mpg,bean,6,AV,Pink_Noise_6_1.wav,Pink_Noise_6_2.wav,,,,,,,,,,,,,,,0,112,112,81,,,,,,,,,,,,,,,,,,,,,,,616.9485311168246,None,618.464929271955,None,619.8484947248362,None,bee,619.8484947248362,None,return,1.6659738421440125,619.931855650153,None,,,,,,,,,,,,,,,,,,,,,,,,,,,,,,,,,164,001,2024_Feb_16_1525,SpeechDraft1Carolyn_lessNoise_PlusLocalization,2021.2.3,60.02720545908866,
glove.wav,glove.mpg,glove,4,AV,Pink_Noise_4_1.wav,Pink_Noise_4_2.wav,,,,,,,,,,,,,,,0,113,113,63,,,,,,,,,,,,,,,,,,,,,,,621.6153051108122,None,623.1316367480904,None,624.515100162942,None,glove,624.515100162942,None,return,1.0872520538978279,624.5985385719687,None,,,,,,,,,,,,,,,,,,,,,,,,,,,,,,,,,164,001,2024_Feb_16_1525,SpeechDraft1Carolyn_lessNoise_PlusLocalization,2021.2.3,60.02720545908866,
bell.wav,bell.mpg,bell,3,A,Pink_Noise_3_1.wav,Pink_Noise_3_2.wav,,,,,,,,,,,,,,,0,114,114,13,,,,,,,,,,,,,,,,,,,,,,,625.7151588331908,None,627.2316004042514,None,628.6151689821854,None,thou,628.6151689821854,None,return,1.3632548968307674,628.6985837472603,None,,,,,,,,,,,,,,,,,,,,,,,,,,,,,,,,,164,001,2024_Feb_16_1525,SpeechDraft1Carolyn_lessNoise_PlusLocalization,2021.2.3,60.02720545908866,
crime.wav,crime.mpg,crime,4,A,Pink_Noise_4_1.wav,Pink_Noise_4_2.wav,,,,,,,,,,,,,,,0,115,115,51,,,,,,,,,,,,,,,,,,,,,,,630.0818773610517,None,631.5982261318713,None,632.9818783020601,None,climb,632.9818783020601,None,return,1.7085758009925485,633.0651733898558,None,,,,,,,,,,,,,,,,,,,,,,,,,,,,,,,,,164,001,2024_Feb_16_1525,SpeechDraft1Carolyn_lessNoise_PlusLocalization,2021.2.3,60.02720545908866,
guilt.wav,guilt.mpg,guilt,6,AV,Pink_Noise_6_1.wav,Pink_Noise_6_2.wav,,,,,,,,,,,,,,,0,116,116,92,,,,,,,,,,,,,,,,,,,,,,,634.7984493388794,None,636.3149856920354,None,637.6984423501417,None,"glitch
",637.6984423501417,None,return,1.5519138150848448,637.7818627399392,None,,,,,,,,,,,,,,,,,,,,,,,,,,,,,,,,,164,001,2024_Feb_16_1525,SpeechDraft1Carolyn_lessNoise_PlusLocalization,2021.2.3,60.02720545908866,
crook.wav,crook.mpg,crook,4,A,Pink_Noise_4_1.wav,Pink_Noise_4_2.wav,,,,,,,,,,,,,,,0,117,117,41,,,,,,,,,,,,,,,,,,,,,,,639.3655224819668,None,640.881616352126,None,642.265179969836,None,crook,642.265179969836,None,return,1.1612628400325775,642.3485216288827,None,,,,,,,,,,,,,,,,,,,,,,,,,,,,,,,,,164,001,2024_Feb_16_1525,SpeechDraft1Carolyn_lessNoise_PlusLocalization,2021.2.3,60.02720545908866,
bill.wav,bill.mpg,bill,2,A,Pink_Noise_2_1.wav,Pink_Noise_2_2.wav,,,,,,,,,,,,,,,0,118,118,54,,,,,,,,,,,,,,,,,,,,,,,643.5318808760494,None,645.0493578519672,None,646.4319840040989,None,build,646.4319840040989,None,return,1.522720797918737,646.5151784792542,None,,,,,,,,,,,,,,,,,,,,,,,,,,,,,,,,,164,001,2024_Feb_16_1525,SpeechDraft1Carolyn_lessNoise_PlusLocalization,2021.2.3,60.02720545908866,
stain.wav,stain.mpg,stain,4,A,Pink_Noise_4_1.wav,Pink_Noise_4_2.wav,,,,,,,,,,,,,,,0,119,119,37,,,,,,,,,,,,,,,,,,,,,,,648.0651613292284,None,649.5817420538515,None,650.9652148238383,None,"stain
",650.9652148238383,None,return,1.1012746919877827,651.0484968749806,None,,,,,,,,,,,,,,,,,,,,,,,,,,,,,,,,,164,001,2024_Feb_16_1525,SpeechDraft1Carolyn_lessNoise_PlusLocalization,2021.2.3,60.02720545908866,
,,,,,,,,,,,,,,,,,,,,,,,,,,,,,,,,,,,,,,,,,,,,,,,,,,,,,,,,,,,,,,,,,,space,16.147838179022074,652.281931295991,None,,,,,,,,,,,,,,,,,,,,,,,164,001,2024_Feb_16_1525,SpeechDraft1Carolyn_lessNoise_PlusLocalization,2021.2.3,60.02720545908866,
,,,,,,,,midRight,13.0,3,ch1Sound_localizationTask.wav,13.0,"(1142, 878)","(182, -202)",190,-338,,,,,,,,,0,0,0,5,,,,,,,,,,,,,,,,,,,,,,,,,,,,,,,,,,,,,,,,,,652.281931295991,None,668.4650208670646,None,669.5649762731045,None,670.4984038388357,None,1.2021164021164021,15.066776941064745,670.4984038388357,None,,,,,,,,,,,164,001,2024_Feb_16_1525,SpeechDraft1Carolyn_lessNoise_PlusLocalization,2021.2.3,60.02720545908866,
,,,,,,,,farRight,19.1,4,ch1Sound_localizationTask.wav,19.1,"(1237, 878)","(277,-202)",285,-338,,,,,,,,,0,1,1,6,,,,,,,,,,,,,,,,,,,,,,,,,,,,,,,,,,,,,,,,,,,,685.5652479780838,None,686.6651151278056,None,687.5983489728533,None,1.9296296296296296,5.284121307078749,687.5983489728533,None,,,,,,,,,,,164,001,2024_Feb_16_1525,SpeechDraft1Carolyn_lessNoise_PlusLocalization,2021.2.3,60.02720545908866,
,,,,,,,,center,0.0,6,ch1Sound_localizationTask.wav,0.0,"(952, 878)","(-8,-202)",0,-338,,,,,,,,,0,2,2,3,,,,,,,,,,,,,,,,,,,,,,,,,,,,,,,,,,,,,,,,,,,,692.8986193798482,None,693.9982400699519,None,694.9317111051641,None,1.608994708994709,2.482454400975257,694.9317111051641,None,,,,,,,,,,,164,001,2024_Feb_16_1525,SpeechDraft1Carolyn_lessNoise_PlusLocalization,2021.2.3,60.02720545908866,
,,,,,,,,nearRight,6.5,0,ch1Sound_localizationTask.wav,6.5,"(1047, 878)","(87, -202)",95,-338,,,,,,,,,0,3,3,4,,,,,,,,,,,,,,,,,,,,,,,,,,,,,,,,,,,,,,,,,,,,697.4152939720079,None,698.515048766043,None,699.4483138569631,None,1.5841269841269843,1.2823378411121666,699.4483138569631,None,,,,,,,,,,,164,001,2024_Feb_16_1525,SpeechDraft1Carolyn_lessNoise_PlusLocalization,2021.2.3,60.02720545908866,
,,,,,,,,nearRight,6.5,0,ch1Sound_localizationTask.wav,6.5,"(1047, 878)","(87, -202)",95,-338,,,,,,,,,0,4,4,4,,,,,,,,,,,,,,,,,,,,,,,,,,,,,,,,,,,,,,,,,,,,700.7320295320824,None,701.8316611740738,None,702.7649950301275,None,1.517989417989418,1.3819585270248353,702.7649950301275,None,,,,,,,,,,,164,001,2024_Feb_16_1525,SpeechDraft1Carolyn_lessNoise_PlusLocalization,2021.2.3,60.02720545908866,
,,,,,,,,nearRight,6.5,0,ch1Sound_localizationTask.wav,6.5,"(1047, 878)","(87, -202)",95,-338,,,,,,,,,0,5,5,4,,,,,,,,,,,,,,,,,,,,,,,,,,,,,,,,,,,,,,,,,,,,704.1486249691807,None,705.2483693421818,None,706.1816526898183,None,1.5597883597883597,0.9997978401370347,706.1816526898183,None,,,,,,,,,,,164,001,2024_Feb_16_1525,SpeechDraft1Carolyn_lessNoise_PlusLocalization,2021.2.3,60.02720545908866,
,,,,,,,,center,0.0,6,ch1Sound_localizationTask.wav,0.0,"(952, 878)","(-8,-202)",0,-338,,,,,,,,,0,6,6,3,,,,,,,,,,,,,,,,,,,,,,,,,,,,,,,,,,,,,,,,,,,,707.182073189877,None,708.2815882209688,None,709.2150564361364,None,1.5243386243386243,0.8165016798302531,709.2150564361364,None,,,,,,,,,,,164,001,2024_Feb_16_1525,SpeechDraft1Carolyn_lessNoise_PlusLocalization,2021.2.3,60.02720545908866,
,,,,,,,,farRight,19.1,4,ch1Sound_localizationTask.wav,19.1,"(1237, 878)","(277,-202)",285,-338,,,,,,,,,1,0,7,6,,,,,,,,,,,,,,,,,,,,,,,,,,,,,,,,,,,,,,,,,,,,710.0320050599985,None,711.1315509770066,None,712.0652052690275,None,1.6677248677248677,0.9320313581265509,712.0652052690275,None,,,,,,,,,,,164,001,2024_Feb_16_1525,SpeechDraft1Carolyn_lessNoise_PlusLocalization,2021.2.3,60.02720545908866,
,,,,,,,,farRight,19.1,4,ch1Sound_localizationTask.wav,19.1,"(1237, 878)","(277,-202)",285,-338,,,,,,,,,1,1,8,6,,,,,,,,,,,,,,,,,,,,,,,,,,,,,,,,,,,,,,,,,,,,712.9986531389877,None,714.0983280381188,None,715.0317299421877,None,1.6962962962962962,0.9660913338884711,715.0317299421877,None,,,,,,,,,,,164,001,2024_Feb_16_1525,SpeechDraft1Carolyn_lessNoise_PlusLocalization,2021.2.3,60.02720545908866,
,,,,,,,,farLeft,-19.1,5,ch1Sound_localizationTask.wav,-19.1,"(667, 878)","(-293,-202)",-285,-338,,,,,,,,,1,2,9,0,,,,,,,,,,,,,,,,,,,,,,,,,,,,,,,,,,,,,,,,,,,,715.9987083980814,None,717.0982870631851,None,718.031779316254,None,1.3052910052910054,1.6817987277172506,718.031779316254,None,,,,,,,,,,,164,001,2024_Feb_16_1525,SpeechDraft1Carolyn_lessNoise_PlusLocalization,2021.2.3,60.02720545908866,
,,,,,,,,center,0.0,6,ch1Sound_localizationTask.wav,0.0,"(952, 878)","(-8,-202)",0,-338,,,,,,,,,1,3,10,3,,,,,,,,,,,,,,,,,,,,,,,,,,,,,,,,,,,,,,,,,,,,719.7154906881042,None,720.8151287529618,None,721.7483395878226,None,1.4428571428571428,1.0322505673393607,721.7483395878226,None,,,,,,,,,,,164,001,2024_Feb_16_1525,SpeechDraft1Carolyn_lessNoise_PlusLocalization,2021.2.3,60.02720545908866,
,,,,,,,,farLeft,-19.1,5,ch1Sound_localizationTask.wav,-19.1,"(667, 878)","(-293,-202)",-285,-338,,,,,,,,,1,4,11,0,,,,,,,,,,,,,,,,,,,,,,,,,,,,,,,,,,,,,,,,,,,,722.7819846030325,None,723.8818927682005,None,724.8151139812544,None,1.162962962962963,2.8996445150114596,724.8151139812544,None,,,,,,,,,,,164,001,2024_Feb_16_1525,SpeechDraft1Carolyn_lessNoise_PlusLocalization,2021.2.3,60.02720545908866,
,,,,,,,,farLeft,-19.1,5,ch1Sound_localizationTask.wav,-19.1,"(667, 878)","(-293,-202)",-285,-338,,,,,,,,,1,5,12,0,,,,,,,,,,,,,,,,,,,,,,,,,,,,,,,,,,,,,,,,,,,,727.7153030359186,None,728.8150645131245,None,729.7484211642295,None,1.1835978835978835,1.733250506222248,729.7484211642295,None,,,,,,,,,,,164,001,2024_Feb_16_1525,SpeechDraft1Carolyn_lessNoise_PlusLocalization,2021.2.3,60.02720545908866,
,,,,,,,,center,0.0,6,ch1Sound_localizationTask.wav,0.0,"(952, 878)","(-8,-202)",0,-338,,,,,,,,,1,6,13,3,,,,,,,,,,,,,,,,,,,,,,,,,,,,,,,,,,,,,,,,,,,,731.482257260941,None,732.5817048782483,None,733.5150570431724,None,1.508994708994709,1.6661075563170016,733.5150570431724,None,,,,,,,,,,,164,001,2024_Feb_16_1525,SpeechDraft1Carolyn_lessNoise_PlusLocalization,2021.2.3,60.02720545908866,
,,,,,,,,nearLeft,-6.5,1,ch1Sound_localizationTask.wav,-6.5,"(857, 878)","(-103,-202)",-95,-338,,,,,,,,,2,0,14,2,,,,,,,,,,,,,,,,,,,,,,,,,,,,,,,,,,,,,,,,,,,,735.182126767002,None,736.2816401221789,None,737.2151950728148,None,1.455026455026455,1.599614447914064,737.2151950728148,None,,,,,,,,,,,164,001,2024_Feb_16_1525,SpeechDraft1Carolyn_lessNoise_PlusLocalization,2021.2.3,60.02720545908866,
,,,,,,,,midRight,13.0,3,ch1Sound_localizationTask.wav,13.0,"(1142, 878)","(182, -202)",190,-338,,,,,,,,,2,1,15,5,,,,,,,,,,,,,,,,,,,,,,,,,,,,,,,,,,,,,,,,,,,,738.8153798938729,None,739.9150717309676,None,740.8485714299604,None,1.615873015873016,1.1324885366484523,740.8485714299604,None,,,,,,,,,,,164,001,2024_Feb_16_1525,SpeechDraft1Carolyn_lessNoise_PlusLocalization,2021.2.3,60.02720545908866,
,,,,,,,,nearLeft,-6.5,1,ch1Sound_localizationTask.wav,-6.5,"(857, 878)","(-103,-202)",-95,-338,,,,,,,,,2,2,16,2,,,,,,,,,,,,,,,,,,,,,,,,,,,,,,,,,,,,,,,,,,,,741.9820205541328,None,743.0816537551582,None,744.015276776161,None,1.4063492063492062,0.8325913827866316,744.015276776161,None,,,,,,,,,,,164,001,2024_Feb_16_1525,SpeechDraft1Carolyn_lessNoise_PlusLocalization,2021.2.3,60.02720545908866,
,,,,,,,,center,0.0,6,ch1Sound_localizationTask.wav,0.0,"(952, 878)","(-8,-202)",0,-338,,,,,,,,,2,3,17,3,,,,,,,,,,,,,,,,,,,,,,,,,,,,,,,,,,,,,,,,,,,,744.8488835031167,None,745.9484578222036,None,746.8817645362578,None,1.5396825396825395,1.2492125881835818,746.8817645362578,None,,,,,,,,,,,164,001,2024_Feb_16_1525,SpeechDraft1Carolyn_lessNoise_PlusLocalization,2021.2.3,60.02720545908866,
,,,,,,,,center,0.0,6,ch1Sound_localizationTask.wav,0.0,"(952, 878)","(-8,-202)",0,-338,,,,,,,,,2,4,18,3,,,,,,,,,,,,,,,,,,,,,,,,,,,,,,,,,,,,,,,,,,,,748.1319165090099,None,749.231747134123,None,750.1650226591155,None,1.488888888888889,0.8151209489442408,750.1650226591155,None,,,,,,,,,,,164,001,2024_Feb_16_1525,SpeechDraft1Carolyn_lessNoise_PlusLocalization,2021.2.3,60.02720545908866,
,,,,,,,,farRight,19.1,4,ch1Sound_localizationTask.wav,19.1,"(1237, 878)","(277,-202)",285,-338,,,,,,,,,2,5,19,6,,,,,,,,,,,,,,,,,,,,,,,,,,,,,,,,,,,,,,,,,,,,750.9820410688408,None,752.0817151460797,None,753.0151471099816,None,1.9142857142857141,1.616551322862506,753.0151471099816,None,,,,,,,,,,,164,001,2024_Feb_16_1525,SpeechDraft1Carolyn_lessNoise_PlusLocalization,2021.2.3,60.02720545908866,
,,,,,,,,farLeft,-19.1,5,ch1Sound_localizationTask.wav,-19.1,"(667, 878)","(-293,-202)",-285,-338,,,,,,,,,2,6,20,0,,,,,,,,,,,,,,,,,,,,,,,,,,,,,,,,,,,,,,,,,,,,754.6320168692619,None,755.7316792900674,None,756.6650436478667,None,1.16984126984127,2.8323943689465523,756.6650436478667,None,,,,,,,,,,,164,001,2024_Feb_16_1525,SpeechDraft1Carolyn_lessNoise_PlusLocalization,2021.2.3,60.02720545908866,
,,,,,,,,nearLeft,-6.5,1,ch1Sound_localizationTask.wav,-6.5,"(857, 878)","(-103,-202)",-95,-338,,,,,,,,,3,0,21,2,,,,,,,,,,,,,,,,,,,,,,,,,,,,,,,,,,,,,,,,,,,,759.4988760640845,None,760.5984333320521,None,761.5317200259306,None,1.426984126984127,1.1491071418859065,761.5317200259306,None,,,,,,,,,,,164,001,2024_Feb_16_1525,SpeechDraft1Carolyn_lessNoise_PlusLocalization,2021.2.3,60.02720545908866,
,,,,,,,,midLeft,-13.0,2,ch1Sound_localizationTask.wav,-13.0,"(762, 878)","(-198,-202)",-190,-338,,,,,,,,,3,1,22,1,,,,,,,,,,,,,,,,,,,,,,,,,,,,,,,,,,,,,,,,,,,,762.6820510169491,None,763.7816369538195,None,764.715115711093,None,1.2835978835978836,0.949437168892473,764.715115711093,None,,,,,,,,,,,164,001,2024_Feb_16_1525,SpeechDraft1Carolyn_lessNoise_PlusLocalization,2021.2.3,60.02720545908866,
,,,,,,,,farRight,19.1,4,ch1Sound_localizationTask.wav,19.1,"(1237, 878)","(277,-202)",285,-338,,,,,,,,,3,2,23,6,,,,,,,,,,,,,,,,,,,,,,,,,,,,,,,,,,,,,,,,,,,,765.6653686249629,None,766.7650511730462,None,767.6985855009407,None,1.7968253968253969,1.365525704342872,767.6985855009407,None,,,,,,,,,,,164,001,2024_Feb_16_1525,SpeechDraft1Carolyn_lessNoise_PlusLocalization,2021.2.3,60.02720545908866,
,,,,,,,,midLeft,-13.0,2,ch1Sound_localizationTask.wav,-13.0,"(762, 878)","(-198,-202)",-190,-338,,,,,,,,,3,3,24,1,,,,,,,,,,,,,,,,,,,,,,,,,,,,,,,,,,,,,,,,,,,,769.0653774370439,None,770.1651105228812,None,771.0984916011803,None,1.2068783068783069,1.6147548728622496,771.0984916011803,None,,,,,,,,,,,164,001,2024_Feb_16_1525,SpeechDraft1Carolyn_lessNoise_PlusLocalization,2021.2.3,60.02720545908866,
,,,,,,,,nearRight,6.5,0,ch1Sound_localizationTask.wav,6.5,"(1047, 878)","(87, -202)",95,-338,,,,,,,,,3,4,25,4,,,,,,,,,,,,,,,,,,,,,,,,,,,,,,,,,,,,,,,,,,,,772.7155192708597,None,773.8152071698569,None,774.7485743411817,None,1.5761904761904761,2.116173454094678,774.7485743411817,None,,,,,,,,,,,164,001,2024_Feb_16_1525,SpeechDraft1Carolyn_lessNoise_PlusLocalization,2021.2.3,60.02720545908866,
,,,,,,,,nearRight,6.5,0,ch1Sound_localizationTask.wav,6.5,"(1047, 878)","(87, -202)",95,-338,,,,,,,,,3,5,26,4,,,,,,,,,,,,,,,,,,,,,,,,,,,,,,,,,,,,,,,,,,,,776.8655403112061,None,777.9650799818337,None,778.8984896959737,None,1.4814814814814814,0.9322370789013803,778.8984896959737,None,,,,,,,,,,,164,001,2024_Feb_16_1525,SpeechDraft1Carolyn_lessNoise_PlusLocalization,2021.2.3,60.02720545908866,
,,,,,,,,center,0.0,6,ch1Sound_localizationTask.wav,0.0,"(952, 878)","(-8,-202)",0,-338,,,,,,,,,3,6,27,3,,,,,,,,,,,,,,,,,,,,,,,,,,,,,,,,,,,,,,,,,,,,779.8320062099956,None,780.9318187581375,None,781.8651462569833,None,1.4328042328042327,1.11665856000036,781.8651462569833,None,,,,,,,,,,,164,001,2024_Feb_16_1525,SpeechDraft1Carolyn_lessNoise_PlusLocalization,2021.2.3,60.02720545908866,
,,,,,,,,nearRight,6.5,0,ch1Sound_localizationTask.wav,6.5,"(1047, 878)","(87, -202)",95,-338,,,,,,,,,4,0,28,4,,,,,,,,,,,,,,,,,,,,,,,,,,,,,,,,,,,,,,,,,,,,782.9821247202344,None,784.0823589488864,None,785.0151828629896,None,1.5534391534391534,0.9021706380881369,785.0151828629896,None,,,,,,,,,,,164,001,2024_Feb_16_1525,SpeechDraft1Carolyn_lessNoise_PlusLocalization,2021.2.3,60.02720545908866,
,,,,,,,,midLeft,-13.0,2,ch1Sound_localizationTask.wav,-13.0,"(762, 878)","(-198,-202)",-190,-338,,,,,,,,,4,1,29,1,,,,,,,,,,,,,,,,,,,,,,,,,,,,,,,,,,,,,,,,,,,,785.9321097000502,None,787.0318107171915,None,787.9651106041856,None,1.3677248677248677,1.3318447559140623,787.9651106041856,None,,,,,,,,,,,164,001,2024_Feb_16_1525,SpeechDraft1Carolyn_lessNoise_PlusLocalization,2021.2.3,60.02720545908866,
,,,,,,,,midRight,13.0,3,ch1Sound_localizationTask.wav,13.0,"(1142, 878)","(182, -202)",190,-338,,,,,,,,,4,2,30,5,,,,,,,,,,,,,,,,,,,,,,,,,,,,,,,,,,,,,,,,,,,,789.2987258508801,None,790.3985272860155,None,791.3317961459979,None,1.717989417989418,1.365790551993996,791.3317961459979,None,,,,,,,,,,,164,001,2024_Feb_16_1525,SpeechDraft1Carolyn_lessNoise_PlusLocalization,2021.2.3,60.02720545908866,
,,,,,,,,midLeft,-13.0,2,ch1Sound_localizationTask.wav,-13.0,"(762, 878)","(-198,-202)",-190,-338,,,,,,,,,4,3,31,1,,,,,,,,,,,,,,,,,,,,,,,,,,,,,,,,,,,,,,,,,,,,792.6987158199772,None,793.7984667839482,None,794.7317833062261,None,1.1968253968253968,1.2830986878834665,794.7317833062261,None,,,,,,,,,,,164,001,2024_Feb_16_1525,SpeechDraft1Carolyn_lessNoise_PlusLocalization,2021.2.3,60.02720545908866,
,,,,,,,,midRight,13.0,3,ch1Sound_localizationTask.wav,13.0,"(1142, 878)","(182, -202)",190,-338,,,,,,,,,4,4,32,5,,,,,,,,,,,,,,,,,,,,,,,,,,,,,,,,,,,,,,,,,,,,796.0154452649876,None,797.1152029489167,None,798.0489608151838,None,1.580952380952381,0.8495657769963145,798.0489608151838,None,,,,,,,,,,,164,001,2024_Feb_16_1525,SpeechDraft1Carolyn_lessNoise_PlusLocalization,2021.2.3,60.02720545908866,
,,,,,,,,midLeft,-13.0,2,ch1Sound_localizationTask.wav,-13.0,"(762, 878)","(-198,-202)",-190,-338,,,,,,,,,4,5,33,1,,,,,,,,,,,,,,,,,,,,,,,,,,,,,,,,,,,,,,,,,,,,798.9157043048181,None,800.0154980588704,None,800.9485114212148,None,1.3058201058201058,1.0329082286916673,800.9485114212148,None,,,,,,,,,,,164,001,2024_Feb_16_1525,SpeechDraft1Carolyn_lessNoise_PlusLocalization,2021.2.3,60.02720545908866,
,,,,,,,,midLeft,-13.0,2,ch1Sound_localizationTask.wav,-13.0,"(762, 878)","(-198,-202)",-190,-338,,,,,,,,,4,6,34,1,,,,,,,,,,,,,,,,,,,,,,,,,,,,,,,,,,,,,,,,,,,,801.9820933160372,None,803.0820888159797,None,804.0153505410999,None,1.3423280423280424,0.8839876381680369,804.0153505410999,None,,,,,,,,,,,164,001,2024_Feb_16_1525,SpeechDraft1Carolyn_lessNoise_PlusLocalization,2021.2.3,60.02720545908866,
,,,,,,,,farRight,19.1,4,ch1Sound_localizationTask.wav,19.1,"(1237, 878)","(277,-202)",285,-338,,,,,,,,,5,0,35,6,,,,,,,,,,,,,,,,,,,,,,,,,,,,,,,,,,,,,,,,,,,,804.9154857769608,None,806.0151553489268,None,806.9484681249596,None,1.691005291005291,1.04917859332636,806.9484681249596,None,,,,,,,,,,,164,001,2024_Feb_16_1525,SpeechDraft1Carolyn_lessNoise_PlusLocalization,2021.2.3,60.02720545908866,
,,,,,,,,center,0.0,6,ch1Sound_localizationTask.wav,0.0,"(952, 878)","(-8,-202)",0,-338,,,,,,,,,5,1,36,3,,,,,,,,,,,,,,,,,,,,,,,,,,,,,,,,,,,,,,,,,,,,807.9987551001832,None,809.0984331360087,None,810.0319514712319,None,1.5433862433862435,1.183479334693402,810.0319514712319,None,,,,,,,,,,,164,001,2024_Feb_16_1525,SpeechDraft1Carolyn_lessNoise_PlusLocalization,2021.2.3,60.02720545908866,
,,,,,,,,midRight,13.0,3,ch1Sound_localizationTask.wav,13.0,"(1142, 878)","(182, -202)",190,-338,,,,,,,,,5,2,37,5,,,,,,,,,,,,,,,,,,,,,,,,,,,,,,,,,,,,,,,,,,,,811.2153523950838,None,812.3150797849521,None,813.248530510813,None,1.619047619047619,1.366515938192606,813.248530510813,None,,,,,,,,,,,164,001,2024_Feb_16_1525,SpeechDraft1Carolyn_lessNoise_PlusLocalization,2021.2.3,60.02720545908866,
,,,,,,,,farRight,19.1,4,ch1Sound_localizationTask.wav,19.1,"(1237, 878)","(277,-202)",285,-338,,,,,,,,,5,3,38,6,,,,,,,,,,,,,,,,,,,,,,,,,,,,,,,,,,,,,,,,,,,,814.6156017431058,None,815.7151568611152,None,816.6485820580274,None,1.7206349206349207,0.8490438549779356,816.6485820580274,None,,,,,,,,,,,164,001,2024_Feb_16_1525,SpeechDraft1Carolyn_lessNoise_PlusLocalization,2021.2.3,60.02720545908866,
,,,,,,,,nearLeft,-6.5,1,ch1Sound_localizationTask.wav,-6.5,"(857, 878)","(-103,-202)",-95,-338,,,,,,,,,5,4,39,2,,,,,,,,,,,,,,,,,,,,,,,,,,,,,,,,,,,,,,,,,,,,817.4990137480199,None,818.5985792209394,None,819.5317667988129,None,1.3962962962962964,1.2487550363875926,819.5317667988129,None,,,,,,,,,,,164,001,2024_Feb_16_1525,SpeechDraft1Carolyn_lessNoise_PlusLocalization,2021.2.3,60.02720545908866,
,,,,,,,,nearLeft,-6.5,1,ch1Sound_localizationTask.wav,-6.5,"(857, 878)","(-103,-202)",-95,-338,,,,,,,,,5,5,40,2,,,,,,,,,,,,,,,,,,,,,,,,,,,,,,,,,,,,,,,,,,,,820.7820751750842,None,821.8817886789329,None,822.8154555619694,None,1.3587301587301588,0.7831338699907064,822.8154555619694,None,,,,,,,,,,,164,001,2024_Feb_16_1525,SpeechDraft1Carolyn_lessNoise_PlusLocalization,2021.2.3,60.02720545908866,
,,,,,,,,midRight,13.0,3,ch1Sound_localizationTask.wav,13.0,"(1142, 878)","(182, -202)",190,-338,,,,,,,,,5,6,41,5,,,,,,,,,,,,,,,,,,,,,,,,,,,,,,,,,,,,,,,,,,,,823.5989758311771,None,824.6985394568183,None,825.6319948988967,None,1.8285714285714285,0.9488246091641486,825.6319948988967,None,,,,,,,,,,,164,001,2024_Feb_16_1525,SpeechDraft1Carolyn_lessNoise_PlusLocalization,2021.2.3,60.02720545908866,
,,,,,,,,farLeft,-19.1,5,ch1Sound_localizationTask.wav,-19.1,"(667, 878)","(-293,-202)",-285,-338,,,,,,,,,6,0,42,0,,,,,,,,,,,,,,,,,,,,,,,,,,,,,,,,,,,,,,,,,,,,826.5825121710077,None,827.6820245292038,None,828.6151353130117,None,1.252910052910053,2.0330064143054187,828.6151353130117,None,,,,,,,,,,,164,001,2024_Feb_16_1525,SpeechDraft1Carolyn_lessNoise_PlusLocalization,2021.2.3,60.02720545908866,
,,,,,,,,nearRight,6.5,0,ch1Sound_localizationTask.wav,6.5,"(1047, 878)","(87, -202)",95,-338,,,,,,,,,6,1,43,4,,,,,,,,,,,,,,,,,,,,,,,,,,,,,,,,,,,,,,,,,,,,830.6487802462652,None,831.7485274281353,None,832.6819684091024,None,1.5386243386243388,1.0656956979073584,832.6819684091024,None,,,,,,,,,,,164,001,2024_Feb_16_1525,SpeechDraft1Carolyn_lessNoise_PlusLocalization,2021.2.3,60.02720545908866,
,,,,,,,,nearRight,6.5,0,ch1Sound_localizationTask.wav,6.5,"(1047, 878)","(87, -202)",95,-338,,,,,,,,,6,2,44,4,,,,,,,,,,,,,,,,,,,,,,,,,,,,,,,,,,,,,,,,,,,,833.7488368959166,None,834.8484759768471,None,835.7818438168615,None,1.5835978835978834,0.9317151759751141,835.7818438168615,None,,,,,,,,,,,164,001,2024_Feb_16_1525,SpeechDraft1Carolyn_lessNoise_PlusLocalization,2021.2.3,60.02720545908866,
,,,,,,,,farLeft,-19.1,5,ch1Sound_localizationTask.wav,-19.1,"(667, 878)","(-293,-202)",-285,-338,,,,,,,,,6,3,45,0,,,,,,,,,,,,,,,,,,,,,,,,,,,,,,,,,,,,,,,,,,,,836.7154323579744,None,837.8151664040051,None,838.7485516560264,None,1.246031746031746,1.0830134060233831,838.7485516560264,None,,,,,,,,,,,164,001,2024_Feb_16_1525,SpeechDraft1Carolyn_lessNoise_PlusLocalization,2021.2.3,60.02720545908866,
,,,,,,,,nearLeft,-6.5,1,ch1Sound_localizationTask.wav,-6.5,"(857, 878)","(-103,-202)",-95,-338,,,,,,,,,6,4,46,2,,,,,,,,,,,,,,,,,,,,,,,,,,,,,,,,,,,,,,,,,,,,839.83214808302,None,840.9318844648078,None,841.8652705098502,None,1.403174603174603,1.0990804289467633,841.8652705098502,None,,,,,,,,,,,164,001,2024_Feb_16_1525,SpeechDraft1Carolyn_lessNoise_PlusLocalization,2021.2.3,60.02720545908866,
,,,,,,,,farRight,19.1,4,ch1Sound_localizationTask.wav,19.1,"(1237, 878)","(277,-202)",285,-338,,,,,,,,,6,5,47,6,,,,,,,,,,,,,,,,,,,,,,,,,,,,,,,,,,,,,,,,,,,,842.9655217309482,None,844.0651998748071,None,844.9987141718157,None,1.7624338624338625,1.0800771028734744,844.9987141718157,None,,,,,,,,,,,164,001,2024_Feb_16_1525,SpeechDraft1Carolyn_lessNoise_PlusLocalization,2021.2.3,60.02720545908866,
,,,,,,,,midLeft,-13.0,2,ch1Sound_localizationTask.wav,-13.0,"(762, 878)","(-198,-202)",-190,-338,,,,,,,,,6,6,48,1,,,,,,,,,,,,,,,,,,,,,,,,,,,,,,,,,,,,,,,,,,,,846.0822140299715,None,847.1818174729124,None,848.1152064059861,None,1.2396825396825397,1.5489087151363492,848.1152064059861,None,,,,,,,,,,,164,001,2024_Feb_16_1525,SpeechDraft1Carolyn_lessNoise_PlusLocalization,2021.2.3,60.02720545908866,
,,,,,,,,farLeft,-19.1,5,ch1Sound_localizationTask.wav,-19.1,"(667, 878)","(-293,-202)",-285,-338,,,,,,,,,7,0,49,0,,,,,,,,,,,,,,,,,,,,,,,,,,,,,,,,,,,,,,,,,,,,849.6654209271073,None,850.765262063127,None,851.6987247769721,None,1.144973544973545,2.3990355669520795,851.6987247769721,None,,,,,,,,,,,164,001,2024_Feb_16_1525,SpeechDraft1Carolyn_lessNoise_PlusLocalization,2021.2.3,60.02720545908866,
,,,,,,,,midRight,13.0,3,ch1Sound_localizationTask.wav,13.0,"(1142, 878)","(182, -202)",190,-338,,,,,,,,,7,1,50,5,,,,,,,,,,,,,,,,,,,,,,,,,,,,,,,,,,,,,,,,,,,,854.0988460672088,None,855.1985012651421,None,856.1318841851316,None,1.5481481481481483,1.6824984969571233,856.1318841851316,None,,,,,,,,,,,164,001,2024_Feb_16_1525,SpeechDraft1Carolyn_lessNoise_PlusLocalization,2021.2.3,60.02720545908866,
,,,,,,,,nearLeft,-6.5,1,ch1Sound_localizationTask.wav,-6.5,"(857, 878)","(-103,-202)",-95,-338,,,,,,,,,7,2,51,2,,,,,,,,,,,,,,,,,,,,,,,,,,,,,,,,,,,,,,,,,,,,857.8154975222424,None,858.9151905439794,None,859.8487474080175,None,1.447089947089947,1.1987111647613347,859.8487474080175,None,,,,,,,,,,,164,001,2024_Feb_16_1525,SpeechDraft1Carolyn_lessNoise_PlusLocalization,2021.2.3,60.02720545908866,
,,,,,,,,farLeft,-19.1,5,ch1Sound_localizationTask.wav,-19.1,"(667, 878)","(-293,-202)",-285,-338,,,,,,,,,7,3,52,0,,,,,,,,,,,,,,,,,,,,,,,,,,,,,,,,,,,,,,,,,,,,861.0488358759321,None,862.1485566920601,None,863.0819635442458,None,1.3582010582010582,1.0821408587507904,863.0819635442458,None,,,,,,,,,,,164,001,2024_Feb_16_1525,SpeechDraft1Carolyn_lessNoise_PlusLocalization,2021.2.3,60.02720545908866,
,,,,,,,,midRight,13.0,3,ch1Sound_localizationTask.wav,13.0,"(1142, 878)","(182, -202)",190,-338,,,,,,,,,7,4,53,5,,,,,,,,,,,,,,,,,,,,,,,,,,,,,,,,,,,,,,,,,,,,864.1654986790381,None,865.2652295040898,None,866.1987898871303,None,1.4174603174603175,1.0000400422140956,866.1987898871303,None,,,,,,,,,,,164,001,2024_Feb_16_1525,SpeechDraft1Carolyn_lessNoise_PlusLocalization,2021.2.3,60.02720545908866,
,,,,,,,,midLeft,-13.0,2,ch1Sound_localizationTask.wav,-13.0,"(762, 878)","(-198,-202)",-190,-338,,,,,,,,,7,5,54,1,,,,,,,,,,,,,,,,,,,,,,,,,,,,,,,,,,,,,,,,,,,,867.1988322851248,None,868.2986215972342,None,869.2319328668527,None,1.4592592592592593,1.0657544620335102,869.2319328668527,None,,,,,,,,,,,164,001,2024_Feb_16_1525,SpeechDraft1Carolyn_lessNoise_PlusLocalization,2021.2.3,60.02720545908866,
,,,,,,,,nearLeft,-6.5,1,ch1Sound_localizationTask.wav,-6.5,"(857, 878)","(-103,-202)",-95,-338,,,,,,,,,7,6,55,2,,,,,,,,,,,,,,,,,,,,,,,,,,,,,,,,,,,,,,,,,,,,870.2987838732079,None,871.3986379918642,None,872.3318149582483,None,1.4291005291005292,0.9330158950760961,872.3318149582483,None,,,,,,,,,,,164,001,2024_Feb_16_1525,SpeechDraft1Carolyn_lessNoise_PlusLocalization,2021.2.3,60.02720545908866,
,,,,,,,,,,,,,,,,,,,,,,,,,,,,,,,,,,,,,,,,,,,,,,,,,,,,,,,,,,,,,,,,,,,,,,,,,,,,,,,,,,space,16.176878925878555,873.3489098511636,None,,,,,,,164,001,2024_Feb_16_1525,SpeechDraft1Carolyn_lessNoise_PlusLocalization,2021.2.3,60.02720545908866,
,,,,,,,,farRight,19.1,4,ch1Sound_localizationTask.wav,19.1,"(1237, 878)","(277,-202)",285,-338,,,,,,,,,,,,,0,0,0,6,,,,,,,,,,,,,,,,,,,,,,,,,,,,,,,,,,,,,,,,889.5653241719119,None,,,892.5986702539958,None,1.6148148148148147,1.387612456921488,892.5986702539958,None,,,,,873.3489098511636,None,890.565553017892,None,890.7488951170817,890.7655268432572,164,001,2024_Feb_16_1525,SpeechDraft1Carolyn_lessNoise_PlusLocalization,2021.2.3,60.02720545908866,
,,,,,,,,midRight,13.0,3,ch1Sound_localizationTask.wav,13.0,"(1142, 878)","(182, -202)",190,-338,,,,,,,,,,,,,0,1,1,5,,,,,,,,,,,,,,,,,,,,,,,,,,,,,,,,,,,,,,,,893.9829958672635,None,,,896.9986567161977,None,1.5788359788359787,0.7999595161527395,896.9986567161977,None,,,,,,,894.9822282982059,None,895.1655747089535,895.1822921261191,164,001,2024_Feb_16_1525,SpeechDraft1Carolyn_lessNoise_PlusLocalization,2021.2.3,60.02720545908866,
,,,,,,,,nearRight,6.5,0,ch1Sound_localizationTask.wav,6.5,"(1047, 878)","(87, -202)",95,-338,,,,,,,,,,,,,0,2,2,4,,,,,,,,,,,,,,,,,,,,,,,,,,,,,,,,,,,,,,,,897.7988677308895,None,,,900.8154979841784,None,1.560846560846561,1.166031775996089,900.8154979841784,None,,,,,,,898.7988744219765,None,898.9822499072179,898.9989298130386,164,001,2024_Feb_16_1525,SpeechDraft1Carolyn_lessNoise_PlusLocalization,2021.2.3,60.02720545908866,
,,,,,,,,nearLeft,-6.5,1,ch1Sound_localizationTask.wav,-6.5,"(857, 878)","(-103,-202)",-95,-338,,,,,,,,,,,,,0,3,3,2,,,,,,,,,,,,,,,,,,,,,,,,,,,,,,,,,,,,,,,,901.9822182338685,None,,,904.9986306810752,None,1.4375661375661375,2.099639601074159,904.9986306810752,None,,,,,,,902.982323830016,None,903.1656140629202,903.1822046018206,164,001,2024_Feb_16_1525,SpeechDraft1Carolyn_lessNoise_PlusLocalization,2021.2.3,60.02720545908866,
,,,,,,,,nearRight,6.5,0,ch1Sound_localizationTask.wav,6.5,"(1047, 878)","(87, -202)",95,-338,,,,,,,,,,,,,0,4,4,4,,,,,,,,,,,,,,,,,,,,,,,,,,,,,,,,,,,,,,,,907.0990854799747,None,,,910.1153746508062,None,1.571957671957672,1.7328024161979556,910.1153746508062,None,,,,,,,908.0988954352215,None,908.2822683341801,908.298880295828,164,001,2024_Feb_16_1525,SpeechDraft1Carolyn_lessNoise_PlusLocalization,2021.2.3,60.02720545908866,
,,,,,,,,midRight,13.0,3,ch1Sound_localizationTask.wav,13.0,"(1142, 878)","(182, -202)",190,-338,,,,,,,,,,,,,0,5,5,5,,,,,,,,,,,,,,,,,,,,,,,,,,,,,,,,,,,,,,,,911.8488945048302,None,,,914.8653103341348,None,1.6301587301587301,0.9494373206980526,914.8653103341348,None,,,,,,,912.8489407128654,None,913.0322523699142,913.0489366599359,164,001,2024_Feb_16_1525,SpeechDraft1Carolyn_lessNoise_PlusLocalization,2021.2.3,60.02720545908866,
,,,,,,,,nearLeft,-6.5,1,ch1Sound_localizationTask.wav,-6.5,"(857, 878)","(-103,-202)",-95,-338,,,,,,,,,,,,,0,6,6,2,,,,,,,,,,,,,,,,,,,,,,,,,,,,,,,,,,,,,,,,915.8156170072034,None,,,918.8319919588976,None,1.4322751322751324,2.6672586421482265,918.8319919588976,None,,,,,,,916.8157559181564,None,916.9988969871774,917.0155682270415,164,001,2024_Feb_16_1525,SpeechDraft1Carolyn_lessNoise_PlusLocalization,2021.2.3,60.02720545908866,
,,,,,,,,midRight,13.0,3,ch1Sound_localizationTask.wav,13.0,"(1142, 878)","(182, -202)",190,-338,,,,,,,,,,,,,1,0,7,5,,,,,,,,,,,,,,,,,,,,,,,,,,,,,,,,,,,,,,,,921.5156892612576,None,,,924.5319352052175,None,1.6343915343915345,1.2990086507052183,924.5319352052175,None,,,,,,,922.5155648300424,None,922.6989753851667,922.7156318048947,164,001,2024_Feb_16_1525,SpeechDraft1Carolyn_lessNoise_PlusLocalization,2021.2.3,60.02720545908866,
,,,,,,,,nearLeft,-6.5,1,ch1Sound_localizationTask.wav,-6.5,"(857, 878)","(-103,-202)",-95,-338,,,,,,,,,,,,,1,1,8,2,,,,,,,,,,,,,,,,,,,,,,,,,,,,,,,,,,,,,,,,925.8322120239027,None,,,928.848648312036,None,1.4211640211640213,2.716019135899842,928.848648312036,None,,,,,,,926.8322629001923,None,927.0155695928261,927.0323401479982,164,001,2024_Feb_16_1525,SpeechDraft1Carolyn_lessNoise_PlusLocalization,2021.2.3,60.02720545908866,
,,,,,,,,midRight,13.0,3,ch1Sound_localizationTask.wav,13.0,"(1142, 878)","(182, -202)",190,-338,,,,,,,,,,,,,1,2,9,5,,,,,,,,,,,,,,,,,,,,,,,,,,,,,,,,,,,,,,,,931.5655590882525,None,,,934.5819645491429,None,1.632804232804233,1.1657035639509559,934.5819645491429,None,,,,,,,932.565640008077,None,932.7490231548436,932.7656226661056,164,001,2024_Feb_16_1525,SpeechDraft1Carolyn_lessNoise_PlusLocalization,2021.2.3,60.02720545908866,
,,,,,,,,midLeft,-13.0,2,ch1Sound_localizationTask.wav,-13.0,"(762, 878)","(-198,-202)",-190,-338,,,,,,,,,,,,,1,3,10,1,,,,,,,,,,,,,,,,,,,,,,,,,,,,,,,,,,,,,,,,935.7489138110541,None,,,938.7655125171877,None,1.3846560846560847,1.6157249910756946,938.7655125171877,None,,,,,,,936.7489018780179,None,936.9322547921911,936.9489023410715,164,001,2024_Feb_16_1525,SpeechDraft1Carolyn_lessNoise_PlusLocalization,2021.2.3,60.02720545908866,
,,,,,,,,midLeft,-13.0,2,ch1Sound_localizationTask.wav,-13.0,"(762, 878)","(-198,-202)",-190,-338,,,,,,,,,,,,,1,4,11,1,,,,,,,,,,,,,,,,,,,,,,,,,,,,,,,,,,,,,,,,940.3823475660756,None,,,943.3987360838801,None,1.3936507936507936,1.416039359755814,943.3987360838801,None,,,,,,,941.3823391818441,None,941.5655546132475,941.5823268969543,164,001,2024_Feb_16_1525,SpeechDraft1Carolyn_lessNoise_PlusLocalization,2021.2.3,60.02720545908866,
,,,,,,,,farRight,19.1,4,ch1Sound_localizationTask.wav,19.1,"(1237, 878)","(277,-202)",285,-338,,,,,,,,,,,,,1,5,12,6,,,,,,,,,,,,,,,,,,,,,,,,,,,,,,,,,,,,,,,,944.8155905981548,None,,,947.8320741611533,None,1.674074074074074,1.465659969020635,947.8320741611533,None,,,,,,,945.8156531732529,None,945.9990510172211,946.01564814616,164,001,2024_Feb_16_1525,SpeechDraft1Carolyn_lessNoise_PlusLocalization,2021.2.3,60.02720545908866,
,,,,,,,,farLeft,-19.1,5,ch1Sound_localizationTask.wav,-19.1,"(667, 878)","(-293,-202)",-285,-338,,,,,,,,,,,,,1,6,13,0,,,,,,,,,,,,,,,,,,,,,,,,,,,,,,,,,,,,,,,,949.2990378909744,None,,,952.3154110889882,None,1.328042328042328,1.3326556258834898,952.3154110889882,None,,,,,,,950.2990063508041,None,950.4823076380417,950.4990057051182,164,001,2024_Feb_16_1525,SpeechDraft1Carolyn_lessNoise_PlusLocalization,2021.2.3,60.02720545908866,
,,,,,,,,farLeft,-19.1,5,ch1Sound_localizationTask.wav,-19.1,"(667, 878)","(-293,-202)",-285,-338,,,,,,,,,,,,,2,0,14,0,,,,,,,,,,,,,,,,,,,,,,,,,,,,,,,,,,,,,,,,953.648893551901,None,,,956.6653988598846,None,1.3571428571428572,1.3829758097417653,956.6653988598846,None,,,,,,,954.6490105092525,None,954.8323535132222,954.8490609638393,164,001,2024_Feb_16_1525,SpeechDraft1Carolyn_lessNoise_PlusLocalization,2021.2.3,60.02720545908866,
,,,,,,,,midRight,13.0,3,ch1Sound_localizationTask.wav,13.0,"(1142, 878)","(182, -202)",190,-338,,,,,,,,,,,,,2,1,15,5,,,,,,,,,,,,,,,,,,,,,,,,,,,,,,,,,,,,,,,,958.0491201519035,None,,,961.0654416112229,None,1.6169312169312169,2.1156276906840503,961.0654416112229,None,,,,,,,959.0489083798602,None,959.2322918088175,959.2490300992504,164,001,2024_Feb_16_1525,SpeechDraft1Carolyn_lessNoise_PlusLocalization,2021.2.3,60.02720545908866,
,,,,,,,,farRight,19.1,4,ch1Sound_localizationTask.wav,19.1,"(1237, 878)","(277,-202)",285,-338,,,,,,,,,,,,,2,2,16,6,,,,,,,,,,,,,,,,,,,,,,,,,,,,,,,,,,,,,,,,963.1822774591856,None,,,966.1987001262605,None,1.6888888888888889,1.132719128858298,966.1987001262605,None,,,,,,,964.1823104708456,None,964.3656679592095,964.3823658470064,164,001,2024_Feb_16_1525,SpeechDraft1Carolyn_lessNoise_PlusLocalization,2021.2.3,60.02720545908866,
,,,,,,,,midRight,13.0,3,ch1Sound_localizationTask.wav,13.0,"(1142, 878)","(182, -202)",190,-338,,,,,,,,,,,,,2,3,17,5,,,,,,,,,,,,,,,,,,,,,,,,,,,,,,,,,,,,,,,,967.3325210362673,None,,,970.3488139198162,None,1.6386243386243386,1.082694198936224,970.3488139198162,None,,,,,,,968.332321473863,None,968.5156812150963,968.5322654922493,164,001,2024_Feb_16_1525,SpeechDraft1Carolyn_lessNoise_PlusLocalization,2021.2.3,60.02720545908866,
,,,,,,,,nearLeft,-6.5,1,ch1Sound_localizationTask.wav,-6.5,"(857, 878)","(-103,-202)",-95,-338,,,,,,,,,,,,,2,4,18,2,,,,,,,,,,,,,,,,,,,,,,,,,,,,,,,,,,,,,,,,971.4323498089798,None,,,974.4488570308313,None,1.4296296296296296,1.4987513162195683,974.4488570308313,None,,,,,,,972.4324237280525,None,972.6158248982392,972.6323455041274,164,001,2024_Feb_16_1525,SpeechDraft1Carolyn_lessNoise_PlusLocalization,2021.2.3,60.02720545908866,
,,,,,,,,center,0.0,6,ch1Sound_localizationTask.wav,0.0,"(952, 878)","(-8,-202)",0,-338,,,,,,,,,,,,,2,5,19,3,,,,,,,,,,,,,,,,,,,,,,,,,,,,,,,,,,,,,,,,975.9490604181774,None,,,978.965579811018,None,1.5275132275132275,1.3321542809717357,978.965579811018,None,,,,,,,976.9489725478925,None,977.1322409082204,977.1490335259587,164,001,2024_Feb_16_1525,SpeechDraft1Carolyn_lessNoise_PlusLocalization,2021.2.3,60.02720545908866,
,,,,,,,,midLeft,-13.0,2,ch1Sound_localizationTask.wav,-13.0,"(762, 878)","(-198,-202)",-190,-338,,,,,,,,,,,,,2,6,20,1,,,,,,,,,,,,,,,,,,,,,,,,,,,,,,,,,,,,,,,,980.2991257789545,None,,,983.3154305461794,None,1.4074074074074074,1.5659039467573166,983.3154305461794,None,,,,,,,981.2990649011917,None,981.4822971490212,981.4990461929701,164,001,2024_Feb_16_1525,SpeechDraft1Carolyn_lessNoise_PlusLocalization,2021.2.3,60.02720545908866,
,,,,,,,,center,0.0,6,ch1Sound_localizationTask.wav,0.0,"(952, 878)","(-8,-202)",0,-338,,,,,,,,,,,,,3,0,21,3,,,,,,,,,,,,,,,,,,,,,,,,,,,,,,,,,,,,,,,,984.8824024959467,None,,,987.8987590451725,None,1.51005291005291,2.100193991791457,987.8987590451725,None,,,,,,,985.8823348660953,None,986.0656818309799,986.0824042651802,164,001,2024_Feb_16_1525,SpeechDraft1Carolyn_lessNoise_PlusLocalization,2021.2.3,60.02720545908866,
,,,,,,,,center,0.0,6,ch1Sound_localizationTask.wav,0.0,"(952, 878)","(-8,-202)",0,-338,,,,,,,,,,,,,3,1,22,3,,,,,,,,,,,,,,,,,,,,,,,,,,,,,,,,,,,,,,,,989.9992708498612,None,,,993.0154589209706,None,1.5052910052910053,0.732907887082547,993.0154589209706,None,,,,,,,990.9990681251511,None,991.1823644889519,991.1990215121768,164,001,2024_Feb_16_1525,SpeechDraft1Carolyn_lessNoise_PlusLocalization,2021.2.3,60.02720545908866,
,,,,,,,,midLeft,-13.0,2,ch1Sound_localizationTask.wav,-13.0,"(762, 878)","(-198,-202)",-190,-338,,,,,,,,,,,,,3,2,23,1,,,,,,,,,,,,,,,,,,,,,,,,,,,,,,,,,,,,,,,,993.7490478628315,None,,,996.7653835020028,None,1.3883597883597885,1.2659443449229002,996.7653835020028,None,,,,,,,994.7490432020277,None,994.9323905669153,994.9491688222624,164,001,2024_Feb_16_1525,SpeechDraft1Carolyn_lessNoise_PlusLocalization,2021.2.3,60.02720545908866,
,,,,,,,,nearRight,6.5,0,ch1Sound_localizationTask.wav,6.5,"(1047, 878)","(87, -202)",95,-338,,,,,,,,,,,,,3,3,24,4,,,,,,,,,,,,,,,,,,,,,,,,,,,,,,,,,,,,,,,,998.032437516842,None,,,1001.0487747560255,None,1.5724867724867724,1.199844260700047,1001.0487747560255,None,,,,,,,999.0323748188093,None,999.2156823920086,999.2324034590274,164,001,2024_Feb_16_1525,SpeechDraft1Carolyn_lessNoise_PlusLocalization,2021.2.3,60.02720545908866,
,,,,,,,,farRight,19.1,4,ch1Sound_localizationTask.wav,19.1,"(1237, 878)","(277,-202)",285,-338,,,,,,,,,,,,,3,4,25,6,,,,,,,,,,,,,,,,,,,,,,,,,,,,,,,,,,,,,,,,1002.249048508238,None,,,1005.2654428528622,None,1.691005291005291,1.4160520280711353,1005.2654428528622,None,,,,,,,1003.2490234752186,None,1003.4324820390902,1003.449036882259,164,001,2024_Feb_16_1525,SpeechDraft1Carolyn_lessNoise_PlusLocalization,2021.2.3,60.02720545908866,
,,,,,,,,nearRight,6.5,0,ch1Sound_localizationTask.wav,6.5,"(1047, 878)","(87, -202)",95,-338,,,,,,,,,,,,,3,5,26,4,,,,,,,,,,,,,,,,,,,,,,,,,,,,,,,,,,,,,,,,1006.6823457479477,None,,,1009.6987660401501,None,1.5476190476190477,1.682885304093361,1009.6987660401501,None,,,,,,,1007.6823447360657,None,1007.8657401269302,1007.8823927650228,164,001,2024_Feb_16_1525,SpeechDraft1Carolyn_lessNoise_PlusLocalization,2021.2.3,60.02720545908866,
,,,,,,,,center,0.0,6,ch1Sound_localizationTask.wav,0.0,"(952, 878)","(-8,-202)",0,-338,,,,,,,,,,,,,3,6,27,3,,,,,,,,,,,,,,,,,,,,,,,,,,,,,,,,,,,,,,,,1011.3825612911023,None,,,1014.3993365839124,None,1.5206349206349206,1.1652708072215319,1014.3993365839124,None,,,,,,,1012.3823433471844,None,1012.5657686600462,1012.5824001962319,164,001,2024_Feb_16_1525,SpeechDraft1Carolyn_lessNoise_PlusLocalization,2021.2.3,60.02720545908866,
,,,,,,,,farLeft,-19.1,5,ch1Sound_localizationTask.wav,-19.1,"(667, 878)","(-293,-202)",-285,-338,,,,,,,,,,,,,4,0,28,0,,,,,,,,,,,,,,,,,,,,,,,,,,,,,,,,,,,,,,,,1015.5657169949263,None,,,1018.5821509421803,None,1.284126984126984,2.466153905261308,1018.5821509421803,None,,,,,,,1016.5657191160135,None,1016.7491100430489,1016.7657507550903,164,001,2024_Feb_16_1525,SpeechDraft1Carolyn_lessNoise_PlusLocalization,2021.2.3,60.02720545908866,
,,,,,,,,farLeft,-19.1,5,ch1Sound_localizationTask.wav,-19.1,"(667, 878)","(-293,-202)",-285,-338,,,,,,,,,,,,,4,1,29,0,,,,,,,,,,,,,,,,,,,,,,,,,,,,,,,,,,,,,,,,1021.0490613011643,None,,,1024.0654719248414,None,1.3645502645502645,1.3996058427728713,1024.0654719248414,None,,,,,,,1022.0490695522167,None,1022.2324244491756,1022.2490845988505,164,001,2024_Feb_16_1525,SpeechDraft1Carolyn_lessNoise_PlusLocalization,2021.2.3,60.02720545908866,
,,,,,,,,farRight,19.1,4,ch1Sound_localizationTask.wav,19.1,"(1237, 878)","(277,-202)",285,-338,,,,,,,,,,,,,4,2,30,6,,,,,,,,,,,,,,,,,,,,,,,,,,,,,,,,,,,,,,,,1025.465757750906,None,,,1028.4821272329427,None,1.6968253968253968,2.1663109860382974,1028.4821272329427,None,,,,,,,1026.465757445898,None,1026.6490421649069,1026.6658813050017,164,001,2024_Feb_16_1525,SpeechDraft1Carolyn_lessNoise_PlusLocalization,2021.2.3,60.02720545908866,
,,,,,,,,nearLeft,-6.5,1,ch1Sound_localizationTask.wav,-6.5,"(857, 878)","(-103,-202)",-95,-338,,,,,,,,,,,,,4,3,31,2,,,,,,,,,,,,,,,,,,,,,,,,,,,,,,,,,,,,,,,,1030.649149126839,None,,,1033.6654807920568,None,1.433862433862434,1.2662337590008974,1033.6654807920568,None,,,,,,,1031.6490554208867,None,1031.8323335298337,1031.8490536068566,164,001,2024_Feb_16_1525,SpeechDraft1Carolyn_lessNoise_PlusLocalization,2021.2.3,60.02720545908866,
,,,,,,,,center,0.0,6,ch1Sound_localizationTask.wav,0.0,"(952, 878)","(-8,-202)",0,-338,,,,,,,,,,,,,4,4,32,3,,,,,,,,,,,,,,,,,,,,,,,,,,,,,,,,,,,,,,,,1034.9323792550713,None,,,1037.9488880708814,None,1.5306878306878307,1.2994729112833738,1037.9488880708814,None,,,,,,,1035.9324588491581,None,1036.1157128438354,1036.1324432161637,164,001,2024_Feb_16_1525,SpeechDraft1Carolyn_lessNoise_PlusLocalization,2021.2.3,60.02720545908866,
,,,,,,,,farRight,19.1,4,ch1Sound_localizationTask.wav,19.1,"(1237, 878)","(277,-202)",285,-338,,,,,,,,,,,,,4,5,33,6,,,,,,,,,,,,,,,,,,,,,,,,,,,,,,,,,,,,,,,,1039.249141173903,None,,,1042.2656183098443,None,1.682010582010582,1.4328095740638673,1042.2656183098443,None,,,,,,,1040.2489863568917,None,1040.4324353588745,1040.4491286771372,164,001,2024_Feb_16_1525,SpeechDraft1Carolyn_lessNoise_PlusLocalization,2021.2.3,60.02720545908866,
,,,,,,,,farRight,19.1,4,ch1Sound_localizationTask.wav,19.1,"(1237, 878)","(277,-202)",285,-338,,,,,,,,,,,,,4,6,34,6,,,,,,,,,,,,,,,,,,,,,,,,,,,,,,,,,,,,,,,,1043.699065911118,None,,,1046.715525793843,None,1.6603174603174602,1.4326455588452518,1046.715525793843,None,,,,,,,1044.6993045499548,None,1044.8824377609417,1044.8991740639322,164,001,2024_Feb_16_1525,SpeechDraft1Carolyn_lessNoise_PlusLocalization,2021.2.3,60.02720545908866,
,,,,,,,,farRight,19.1,4,ch1Sound_localizationTask.wav,19.1,"(1237, 878)","(277,-202)",285,-338,,,,,,,,,,,,,5,0,35,6,,,,,,,,,,,,,,,,,,,,,,,,,,,,,,,,,,,,,,,,1048.1491487668827,None,,,1051.1654875469394,None,1.6936507936507936,1.3163409940898418,1051.1654875469394,None,,,,,,,1049.14909024816,None,1049.332434388809,1049.3491408061236,164,001,2024_Feb_16_1525,SpeechDraft1Carolyn_lessNoise_PlusLocalization,2021.2.3,60.02720545908866,
,,,,,,,,midLeft,-13.0,2,ch1Sound_localizationTask.wav,-13.0,"(762, 878)","(-198,-202)",-190,-338,,,,,,,,,,,,,5,1,36,1,,,,,,,,,,,,,,,,,,,,,,,,,,,,,,,,,,,,,,,,1052.4823786108755,None,,,1055.4988728221506,None,1.4015873015873015,1.6818679077550769,1055.4988728221506,None,,,,,,,1053.4824530412443,None,1053.6658611241728,1053.682515101973,164,001,2024_Feb_16_1525,SpeechDraft1Carolyn_lessNoise_PlusLocalization,2021.2.3,60.02720545908866,
,,,,,,,,nearLeft,-6.5,1,ch1Sound_localizationTask.wav,-6.5,"(857, 878)","(-103,-202)",-95,-338,,,,,,,,,,,,,5,2,37,2,,,,,,,,,,,,,,,,,,,,,,,,,,,,,,,,,,,,,,,,1057.18254225282,None,,,1060.1988618532196,None,1.4693121693121693,1.5659820511937141,1060.1988618532196,None,,,,,,,1058.1826496669091,None,1058.3658311320469,1058.3826156388968,164,001,2024_Feb_16_1525,SpeechDraft1Carolyn_lessNoise_PlusLocalization,2021.2.3,60.02720545908866,
,,,,,,,,midRight,13.0,3,ch1Sound_localizationTask.wav,13.0,"(1142, 878)","(182, -202)",190,-338,,,,,,,,,,,,,5,3,38,5,,,,,,,,,,,,,,,,,,,,,,,,,,,,,,,,,,,,,,,,1061.7657094891183,None,,,1064.7822841140442,None,1.601058201058201,1.2828393089585006,1064.7822841140442,None,,,,,,,1062.7658170298673,None,1062.949064861983,1062.9657982699573,164,001,2024_Feb_16_1525,SpeechDraft1Carolyn_lessNoise_PlusLocalization,2021.2.3,60.02720545908866,
,,,,,,,,nearLeft,-6.5,1,ch1Sound_localizationTask.wav,-6.5,"(857, 878)","(-103,-202)",-95,-338,,,,,,,,,,,,,5,4,39,2,,,,,,,,,,,,,,,,,,,,,,,,,,,,,,,,,,,,,,,,1066.065761423204,None,,,1069.0821973779239,None,1.4386243386243387,1.3163886689580977,1069.0821973779239,None,,,,,,,1067.0657774009742,None,1067.249197117053,1067.265790970996,164,001,2024_Feb_16_1525,SpeechDraft1Carolyn_lessNoise_PlusLocalization,2021.2.3,60.02720545908866,
,,,,,,,,center,0.0,6,ch1Sound_localizationTask.wav,0.0,"(952, 878)","(-8,-202)",0,-338,,,,,,,,,,,,,5,5,40,3,,,,,,,,,,,,,,,,,,,,,,,,,,,,,,,,,,,,,,,,1070.3992405422032,None,,,1073.4155647088774,None,1.5391534391534392,1.3661545626819134,1073.4155647088774,None,,,,,,,1071.3991185599007,None,1071.5824840688147,1071.5990940132178,164,001,2024_Feb_16_1525,SpeechDraft1Carolyn_lessNoise_PlusLocalization,2021.2.3,60.02720545908866,
,,,,,,,,nearLeft,-6.5,1,ch1Sound_localizationTask.wav,-6.5,"(857, 878)","(-103,-202)",-95,-338,,,,,,,,,,,,,5,6,41,2,,,,,,,,,,,,,,,,,,,,,,,,,,,,,,,,,,,,,,,,1074.7824143348262,None,,,1077.79886467522,None,1.453968253968254,1.0159056833945215,1077.79886467522,None,,,,,,,1075.7825261051767,None,1075.9660221608356,1075.9825293831527,164,001,2024_Feb_16_1525,SpeechDraft1Carolyn_lessNoise_PlusLocalization,2021.2.3,60.02720545908866,
,,,,,,,,center,0.0,6,ch1Sound_localizationTask.wav,0.0,"(952, 878)","(-8,-202)",0,-338,,,,,,,,,,,,,6,0,42,3,,,,,,,,,,,,,,,,,,,,,,,,,,,,,,,,,,,,,,,,1078.8158614430577,None,,,1081.8322815820575,None,1.5185185185185186,1.1995744272135198,1081.8322815820575,None,,,,,,,1079.8157972260378,None,1079.9991214629263,1080.015800549183,164,001,2024_Feb_16_1525,SpeechDraft1Carolyn_lessNoise_PlusLocalization,2021.2.3,60.02720545908866,
,,,,,,,,nearRight,6.5,0,ch1Sound_localizationTask.wav,6.5,"(1047, 878)","(87, -202)",95,-338,,,,,,,,,,,,,6,1,43,4,,,,,,,,,,,,,,,,,,,,,,,,,,,,,,,,,,,,,,,,1083.0324941771105,None,,,1086.048858272843,None,1.5936507936507938,1.049567072186619,1086.048858272843,None,,,,,,,1084.0325489011593,None,1084.2160563310608,1084.2328797699884,164,001,2024_Feb_16_1525,SpeechDraft1Carolyn_lessNoise_PlusLocalization,2021.2.3,60.02720545908866,
,,,,,,,,nearRight,6.5,0,ch1Sound_localizationTask.wav,6.5,"(1047, 878)","(87, -202)",95,-338,,,,,,,,,,,,,6,2,44,4,,,,,,,,,,,,,,,,,,,,,,,,,,,,,,,,,,,,,,,,1087.0992800020613,None,,,1090.1155937570147,None,1.5936507936507938,4.76621651602909,1090.1155937570147,None,,,,,,,1088.0992136788554,None,1088.2824716921896,1088.2991407420486,164,001,2024_Feb_16_1525,SpeechDraft1Carolyn_lessNoise_PlusLocalization,2021.2.3,60.02720545908866,
,,,,,,,,nearRight,6.5,0,ch1Sound_localizationTask.wav,6.5,"(1047, 878)","(87, -202)",95,-338,,,,,,,,,,,,,6,3,45,4,,,,,,,,,,,,,,,,,,,,,,,,,,,,,,,,,,,,,,,,1094.8825070150197,None,,,1097.898964872118,None,1.5587301587301587,0.8160046678967774,1097.898964872118,None,,,,,,,1095.8824743349105,None,1096.065754996147,1096.0825214702636,164,001,2024_Feb_16_1525,SpeechDraft1Carolyn_lessNoise_PlusLocalization,2021.2.3,60.02720545908866,
,,,,,,,,nearRight,6.5,0,ch1Sound_localizationTask.wav,6.5,"(1047, 878)","(87, -202)",95,-338,,,,,,,,,,,,,6,4,46,4,,,,,,,,,,,,,,,,,,,,,,,,,,,,,,,,,,,,,,,,1098.7159214229323,None,,,1101.7323943632655,None,1.552910052910053,1.0328162368386984,1101.7323943632655,None,,,,,,,1099.7158849560656,None,1099.8991753878072,1099.9158138949424,164,001,2024_Feb_16_1525,SpeechDraft1Carolyn_lessNoise_PlusLocalization,2021.2.3,60.02720545908866,
,,,,,,,,farLeft,-19.1,5,ch1Sound_localizationTask.wav,-19.1,"(667, 878)","(-293,-202)",-285,-338,,,,,,,,,,,,,6,5,47,0,,,,,,,,,,,,,,,,,,,,,,,,,,,,,,,,,,,,,,,,1102.7659087162465,None,,,1105.7822921178304,None,1.3206349206349206,1.6328622419387102,1105.7822921178304,None,,,,,,,1103.76574236108,None,1103.9491783492267,1103.9658758360893,164,001,2024_Feb_16_1525,SpeechDraft1Carolyn_lessNoise_PlusLocalization,2021.2.3,60.02720545908866,
,,,,,,,,farLeft,-19.1,5,ch1Sound_localizationTask.wav,-19.1,"(667, 878)","(-293,-202)",-285,-338,,,,,,,,,,,,,6,6,48,0,,,,,,,,,,,,,,,,,,,,,,,,,,,,,,,,,,,,,,,,1107.4158873711713,None,,,1110.432259003166,None,1.348148148148148,1.1161651890724897,1110.432259003166,None,,,,,,,1108.41584387701,None,1108.5991678098217,1108.6159797701985,164,001,2024_Feb_16_1525,SpeechDraft1Carolyn_lessNoise_PlusLocalization,2021.2.3,60.02720545908866,
,,,,,,,,midLeft,-13.0,2,ch1Sound_localizationTask.wav,-13.0,"(762, 878)","(-198,-202)",-190,-338,,,,,,,,,,,,,7,0,49,1,,,,,,,,,,,,,,,,,,,,,,,,,,,,,,,,,,,,,,,,1111.549192618113,None,,,1114.5655845841393,None,1.3767195767195768,1.2993545453064144,1114.5655845841393,None,,,,,,,1112.5492409430444,None,1112.7325402968563,1112.749179766979,164,001,2024_Feb_16_1525,SpeechDraft1Carolyn_lessNoise_PlusLocalization,2021.2.3,60.02720545908866,
,,,,,,,,midLeft,-13.0,2,ch1Sound_localizationTask.wav,-13.0,"(762, 878)","(-198,-202)",-190,-338,,,,,,,,,,,,,7,1,50,1,,,,,,,,,,,,,,,,,,,,,,,,,,,,,,,,,,,,,,,,1115.8658523331396,None,,,1118.8823319058865,None,1.3777777777777778,1.6329340389929712,1118.8823319058865,None,,,,,,,1116.865907125175,None,1117.0492139682174,1117.0658779409714,164,001,2024_Feb_16_1525,SpeechDraft1Carolyn_lessNoise_PlusLocalization,2021.2.3,60.02720545908866,
,,,,,,,,farLeft,-19.1,5,ch1Sound_localizationTask.wav,-19.1,"(667, 878)","(-293,-202)",-285,-338,,,,,,,,,,,,,7,2,51,0,,,,,,,,,,,,,,,,,,,,,,,,,,,,,,,,,,,,,,,,1120.515857704915,None,,,1123.5324714989401,None,1.3338624338624339,1.3328813966363668,1123.5324714989401,None,,,,,,,1121.5159338829108,None,1121.6991736521013,1121.7158712539822,164,001,2024_Feb_16_1525,SpeechDraft1Carolyn_lessNoise_PlusLocalization,2021.2.3,60.02720545908866,
,,,,,,,,center,0.0,6,ch1Sound_localizationTask.wav,0.0,"(952, 878)","(-8,-202)",0,-338,,,,,,,,,,,,,7,3,52,3,,,,,,,,,,,,,,,,,,,,,,,,,,,,,,,,,,,,,,,,1124.8660190561786,None,,,1127.882256525103,None,1.524867724867725,2.265539512038231,1127.882256525103,None,,,,,,,1125.8659211238846,None,1126.0491528389975,1126.0659467498772,164,001,2024_Feb_16_1525,SpeechDraft1Carolyn_lessNoise_PlusLocalization,2021.2.3,60.02720545908866,
,,,,,,,,farLeft,-19.1,5,ch1Sound_localizationTask.wav,-19.1,"(667, 878)","(-293,-202)",-285,-338,,,,,,,,,,,,,7,4,53,0,,,,,,,,,,,,,,,,,,,,,,,,,,,,,,,,,,,,,,,,1130.1492229830474,None,,,1133.165589384269,None,1.3058201058201058,1.349531346000731,1133.165589384269,None,,,,,,,1131.1492676609196,None,1131.3325872980058,1131.349189326167,164,001,2024_Feb_16_1525,SpeechDraft1Carolyn_lessNoise_PlusLocalization,2021.2.3,60.02720545908866,
,,,,,,,,midLeft,-13.0,2,ch1Sound_localizationTask.wav,-13.0,"(762, 878)","(-198,-202)",-190,-338,,,,,,,,,,,,,7,5,54,1,,,,,,,,,,,,,,,,,,,,,,,,,,,,,,,,,,,,,,,,1134.5159254050814,None,,,1137.5322869210504,None,1.4354497354497355,1.3654880011454225,1137.5322869210504,None,,,,,,,1135.515839268919,None,1135.6992095229216,1135.7159967422485,164,001,2024_Feb_16_1525,SpeechDraft1Carolyn_lessNoise_PlusLocalization,2021.2.3,60.02720545908866,
,,,,,,,,midRight,13.0,3,ch1Sound_localizationTask.wav,13.0,"(1142, 878)","(182, -202)",190,-338,,,,,,,,,,,,,7,6,55,5,,,,,,,,,,,,,,,,,,,,,,,,,,,,,,,,,,,,,,,,1138.8992380821146,None,,,1141.9156574951485,None,1.6375661375661377,1.4657442877069116,1141.9156574951485,None,,,,,,,1139.8992775068618,None,1140.0825829510577,1140.0992727498524,164,001,2024_Feb_16_1525,SpeechDraft1Carolyn_lessNoise_PlusLocalization,2021.2.3,60.02720545908866,
