{"meta_data":{"additional_headers":{},"game_name":"Recollect","version":"2.53.01","user_name":"165","organization":"braingamecenter","study":"mpl2_2022_11","session_number":0,"device_id":"74342D95-EE82-45E3-8ADF-48FB3203C5DD"},"data":[{"stage":"Practice","trial":0,"sequence":"6F","letter_input":"F","number_input":"6","is_correct":true,"presentation_start_time":1708538751659.06,"presentation_end_time":1708538754661.9,"response_time":1708538760907.83},{"stage":"Practice","trial":1,"sequence":"G4","letter_input":"G","number_input":"4","is_correct":true,"presentation_start_time":1708538762438.94,"presentation_end_time":1708538765441.78,"response_time":1708538768886.96},{"stage":"Practice","trial":2,"sequence":"3W5","letter_input":"W","number_input":"35","is_correct":true,"presentation_start_time":1708538770419.57,"presentation_end_time":1708538774921.85,"response_time":1708538778783.69},{"stage":"Practice","trial":3,"sequence":"T7L","letter_input":"TL","number_input":"7","is_correct":false,"presentation_start_time":1708538780316.43,"presentation_end_time":1708538784818.66,"response_time":1708538789680.1},{"stage":"Practice","trial":4,"sequence":"9J1","letter_input":"J","number_input":"19","is_correct":true,"presentation_start_time":1708538792712.35,"presentation_end_time":1708538797214.62,"response_time":1708538800643.14},{"stage":"Calibration","trial":0,"sequence":"9B","letter_input":"B","number_input":"9","is_correct":true,"presentation_start_time":1708538810339.91,"presentation_end_time":1708538813342.72,"response_time":1708538816421.38},{"stage":"Calibration","trial":1,"sequence":"Y6","letter_input":"Y","number_input":"6","is_correct":true,"presentation_start_time":1708538817954.11,"presentation_end_time":1708538820956.84,"response_time":1708538823768.97},{"stage":"Calibration","trial":2,"sequence":"8Z3","letter_input":"Z","number_input":"38","is_correct":true,"presentation_start_time":1708538825301.66,"presentation_end_time":1708538829803.91,"response_time":1708538832949.36},{"stage":"Calibration","trial":3,"sequence":"V4S","letter_input":"VZ","number_input":"4","is_correct":false,"presentation_start_time":1708538834481.98,"presentation_end_time":1708538838984.7,"response_time":1708538851676.47},{"stage":"Calibration","trial":4,"sequence":"9W6F","letter_input":"FW","number_input":"69","is_correct":true,"presentation_start_time":1708538853209.16,"presentation_end_time":1708538859210.93,"response_time":1708538866305.06},{"stage":"Calibration","trial":5,"sequence":"Z5M3","letter_input":"MZ","number_input":"35","is_correct":true,"presentation_start_time":1708538867837.75,"presentation_end_time":1708538873839.72,"response_time":1708538878284.45},{"stage":"Calibration","trial":6,"sequence":"1T8F6","letter_input":"FT","number_input":"168","is_correct":true,"presentation_start_time":1708538879817.28,"presentation_end_time":1708538887318.53,"response_time":1708538894912.35},{"stage":"Calibration","trial":7,"sequence":"A7V3E","letter_input":"AEV","number_input":"37","is_correct":true,"presentation_start_time":1708538896445.04,"presentation_end_time":1708538903946.41,"response_time":1708538913422.89},{"stage":"Calibration","trial":8,"sequence":"6G1Q8L","letter_input":"GL","number_input":"168","is_correct":false,"presentation_start_time":1708538914955.63,"presentation_end_time":1708538923956.57,"response_time":1708538946878.63},{"stage":"Calibration","trial":9,"sequence":"C3P9N7","letter_input":"CK","number_input":"379","is_correct":false,"presentation_start_time":1708538948411.36,"presentation_end_time":1708538957412.18,"response_time":1708538973586.59}]}