{"meta_data":{"additional_headers":{},"game_name":"Recollect","version":"2.53.01","user_name":"165","organization":"braingamecenter","study":"mpl2_2022_11","session_number":0,"device_id":"74342D95-EE82-45E3-8ADF-48FB3203C5DD"},"data":[{"trial":0,"action":1,"button_pressed":1,"time_out":false,"dwell_time":48.656982421875,"response_time":1708538468721.17},{"trial":0,"action":1,"button_pressed":5,"time_out":false,"dwell_time":64.14794921875,"response_time":1708538469169.9},{"trial":0,"action":9,"button_pressed":-1,"time_out":false,"dwell_time":58.69091796875,"response_time":1708538469697.61},{"trial":1,"action":1,"button_pressed":7,"time_out":false,"dwell_time":47.864990234375,"response_time":1708538479367.77},{"trial":1,"action":1,"button_pressed":3,"time_out":false,"dwell_time":47.565185546875,"response_time":1708538479833.19},{"trial":1,"action":1,"button_pressed":2,"time_out":false,"dwell_time":64.014892578125,"response_time":1708538480316.65},{"trial":1,"action":9,"button_pressed":-1,"time_out":false,"dwell_time":30.86279296875,"response_time":1708538481183.26},{"trial":2,"action":1,"button_pressed":0,"time_out":false,"dwell_time":47.843994140625,"response_time":1708538493012.45},{"trial":2,"action":1,"button_pressed":10,"time_out":false,"dwell_time":46.701171875,"response_time":1708538493395.44},{"trial":2,"action":1,"button_pressed":2,"time_out":false,"dwell_time":47.52001953125,"response_time":1708538493829.42},{"trial":2,"action":1,"button_pressed":6,"time_out":false,"dwell_time":30.050048828125,"response_time":1708538494295.14},{"trial":2,"action":9,"button_pressed":-1,"time_out":false,"dwell_time":31.697998046875,"response_time":1708538494878.82},{"trial":3,"action":1,"button_pressed":5,"time_out":false,"dwell_time":47.86083984375,"response_time":1708538509273.88},{"trial":3,"action":1,"button_pressed":9,"time_out":false,"dwell_time":47.578857421875,"response_time":1708538509724.29},{"trial":3,"action":1,"button_pressed":6,"time_out":false,"dwell_time":47.369140625,"response_time":1708538510840.46},{"trial":3,"action":1,"button_pressed":8,"time_out":false,"dwell_time":47.658935546875,"response_time":1708538511439.72},{"trial":3,"action":1,"button_pressed":7,"time_out":false,"dwell_time":47.511962890625,"response_time":1708538511890.16},{"trial":3,"action":9,"button_pressed":-1,"time_out":false,"dwell_time":49.14892578125,"response_time":1708538512540.39},{"trial":4,"action":1,"button_pressed":5,"time_out":false,"dwell_time":47.819091796875,"response_time":1708538529300.6},{"trial":4,"action":1,"button_pressed":10,"time_out":false,"dwell_time":63.77099609375,"response_time":1708538529849.86},{"trial":4,"action":1,"button_pressed":7,"time_out":false,"dwell_time":47.892822265625,"response_time":1708538530334.58},{"trial":4,"action":1,"button_pressed":4,"time_out":false,"dwell_time":63.9599609375,"response_time":1708538531166.06},{"trial":4,"action":1,"button_pressed":0,"time_out":false,"dwell_time":47.751953125,"response_time":1708538531467.17},{"trial":4,"action":1,"button_pressed":8,"time_out":false,"dwell_time":47.652099609375,"response_time":1708538531833.84},{"trial":4,"action":9,"button_pressed":-1,"time_out":false,"dwell_time":49.053955078125,"response_time":1708538532683.95},{"trial":5,"action":1,"button_pressed":10,"time_out":false,"dwell_time":47.881103515625,"response_time":1708538552209.78},{"trial":5,"action":1,"button_pressed":1,"time_out":false,"dwell_time":64.44482421875,"response_time":1708538552642.92},{"trial":5,"action":1,"button_pressed":2,"time_out":false,"dwell_time":30.2958984375,"response_time":1708538553125.99},{"trial":5,"action":1,"button_pressed":7,"time_out":false,"dwell_time":64.533935546875,"response_time":1708538553876.17},{"trial":5,"action":1,"button_pressed":6,"time_out":false,"dwell_time":47.56396484375,"response_time":1708538554243.08},{"trial":5,"action":1,"button_pressed":0,"time_out":false,"dwell_time":31.05810546875,"response_time":1708538557441.95},{"trial":5,"action":1,"button_pressed":3,"time_out":false,"dwell_time":48.439208984375,"response_time":1708538557758.58},{"trial":5,"action":9,"button_pressed":-1,"time_out":false,"dwell_time":30.93603515625,"response_time":1708538558424.65},{"trial":6,"action":1,"button_pressed":8,"time_out":false,"dwell_time":47.031005859375,"response_time":1708538578734.43},{"trial":6,"action":1,"button_pressed":1,"time_out":false,"dwell_time":46.889892578125,"response_time":1708538579717.27},{"trial":6,"action":1,"button_pressed":5,"time_out":false,"dwell_time":46.967041015625,"response_time":1708538580367.07},{"trial":6,"action":1,"button_pressed":0,"time_out":false,"dwell_time":63.751953125,"response_time":1708538582616.53},{"trial":6,"action":1,"button_pressed":7,"time_out":false,"dwell_time":64.141845703125,"response_time":1708538583049.63},{"trial":6,"action":1,"button_pressed":3,"time_out":false,"dwell_time":48.376953125,"response_time":1708538585016.27},{"trial":6,"action":1,"button_pressed":11,"time_out":false,"dwell_time":47.781982421875,"response_time":1708538585915.39},{"trial":6,"action":9,"button_pressed":-1,"time_out":false,"dwell_time":64.48486328125,"response_time":1708538587414.76},{"trial":7,"action":1,"button_pressed":9,"time_out":false,"dwell_time":64.927978515625,"response_time":1708538601993.92},{"trial":7,"action":1,"button_pressed":0,"time_out":false,"dwell_time":30.343017578125,"response_time":1708538602309.92},{"trial":7,"action":1,"button_pressed":2,"time_out":false,"dwell_time":47.8359375,"response_time":1708538602643.21},{"trial":7,"action":1,"button_pressed":1,"time_out":false,"dwell_time":47.045166015625,"response_time":1708538603026.38},{"trial":7,"action":1,"button_pressed":6,"time_out":false,"dwell_time":48.19482421875,"response_time":1708538603260.41},{"trial":7,"action":9,"button_pressed":-1,"time_out":false,"dwell_time":48.9189453125,"response_time":1708538603793.87},{"trial":8,"action":1,"button_pressed":0,"time_out":false,"dwell_time":81.5888671875,"response_time":1708538620754.4},{"trial":8,"action":1,"button_pressed":4,"time_out":false,"dwell_time":64.465087890625,"response_time":1708538621104.15},{"trial":8,"action":1,"button_pressed":11,"time_out":false,"dwell_time":81.304931640625,"response_time":1708538621504.32},{"trial":8,"action":1,"button_pressed":3,"time_out":false,"dwell_time":47.39599609375,"response_time":1708538621804.24},{"trial":8,"action":1,"button_pressed":5,"time_out":false,"dwell_time":47.917236328125,"response_time":1708538622287.03},{"trial":8,"action":1,"button_pressed":7,"time_out":false,"dwell_time":64.30810546875,"response_time":1708538622803.48},{"trial":8,"action":9,"button_pressed":-1,"time_out":false,"dwell_time":31.758056640625,"response_time":1708538623404.26},{"trial":9,"action":1,"button_pressed":5,"time_out":false,"dwell_time":47.612060546875,"response_time":1708538642780.08},{"trial":9,"action":1,"button_pressed":3,"time_out":false,"dwell_time":63.449951171875,"response_time":1708538643229.67},{"trial":9,"action":1,"button_pressed":8,"time_out":false,"dwell_time":47.705078125,"response_time":1708538643563.16},{"trial":9,"action":1,"button_pressed":11,"time_out":false,"dwell_time":63.684814453125,"response_time":1708538643963.31},{"trial":9,"action":1,"button_pressed":7,"time_out":false,"dwell_time":64.60107421875,"response_time":1708538644246.68},{"trial":9,"action":1,"button_pressed":4,"time_out":false,"dwell_time":62.893798828125,"response_time":1708538646328.38},{"trial":9,"action":1,"button_pressed":10,"time_out":false,"dwell_time":46.820068359375,"response_time":1708538646628.93},{"trial":9,"action":9,"button_pressed":-1,"time_out":false,"dwell_time":48.888916015625,"response_time":1708538647379.73},{"trial":10,"action":1,"button_pressed":9,"time_out":false,"dwell_time":47.636962890625,"response_time":1708538669439.08},{"trial":10,"action":1,"button_pressed":7,"time_out":false,"dwell_time":47.385986328125,"response_time":1708538669821.23},{"trial":10,"action":1,"button_pressed":10,"time_out":false,"dwell_time":63.701171875,"response_time":1708538671686.86},{"trial":10,"action":1,"button_pressed":3,"time_out":false,"dwell_time":46.671875,"response_time":1708538672170.33},{"trial":10,"action":1,"button_pressed":4,"time_out":false,"dwell_time":64.741943359375,"response_time":1708538672887.33},{"trial":10,"action":1,"button_pressed":5,"time_out":false,"dwell_time":48.43798828125,"response_time":1708538673337.47},{"trial":10,"action":1,"button_pressed":6,"time_out":false,"dwell_time":29.2490234375,"response_time":1708538675251.94},{"trial":10,"action":1,"button_pressed":11,"time_out":false,"dwell_time":48.60791015625,"response_time":1708538675503.7},{"trial":10,"action":9,"button_pressed":-1,"time_out":false,"dwell_time":30.77392578125,"response_time":1708538676252.87},{"trial":11,"action":1,"button_pressed":7,"time_out":false,"dwell_time":63.976806640625,"response_time":1708538698728.17},{"trial":11,"action":1,"button_pressed":5,"time_out":false,"dwell_time":64.575927734375,"response_time":1708538699278.41},{"trial":11,"action":1,"button_pressed":1,"time_out":false,"dwell_time":81.080810546875,"response_time":1708538699944.89},{"trial":11,"action":1,"button_pressed":4,"time_out":false,"dwell_time":63.60107421875,"response_time":1708538701243.73},{"trial":11,"action":1,"button_pressed":3,"time_out":false,"dwell_time":64.79296875,"response_time":1708538701627.83},{"trial":11,"action":1,"button_pressed":11,"time_out":false,"dwell_time":47.501953125,"response_time":1708538704277.48},{"trial":11,"action":1,"button_pressed":2,"time_out":false,"dwell_time":46.7041015625,"response_time":1708538705476.11},{"trial":11,"action":1,"button_pressed":10,"time_out":false,"dwell_time":47.496826171875,"response_time":1708538705842.8},{"trial":11,"action":9,"button_pressed":-1,"time_out":false,"dwell_time":48.203857421875,"response_time":1708538706859.56}]}