{"meta_data":{"additional_headers":{},"game_name":"Recollect","version":"2.53.01","user_name":"166","organization":"braingamecenter","study":"mpl2_2022_11","session_number":0,"device_id":"74342D95-EE82-45E3-8ADF-48FB3203C5DD"},"data":[{"trial":0,"action":1,"button_pressed":11,"time_out":false,"dwell_time":47.739990234375,"response_time":1708642110981.81},{"trial":0,"action":1,"button_pressed":8,"time_out":false,"dwell_time":47.43798828125,"response_time":1708642111498.17},{"trial":0,"action":9,"button_pressed":-1,"time_out":false,"dwell_time":40.412109375,"response_time":1708642112223.87},{"trial":1,"action":1,"button_pressed":2,"time_out":false,"dwell_time":47.865966796875,"response_time":1708642121861.57},{"trial":1,"action":1,"button_pressed":4,"time_out":false,"dwell_time":63.68701171875,"response_time":1708642122176.82},{"trial":1,"action":1,"button_pressed":1,"time_out":false,"dwell_time":47.77783203125,"response_time":1708642122543.84},{"trial":1,"action":9,"button_pressed":-1,"time_out":false,"dwell_time":31.613037109375,"response_time":1708642123060.67},{"trial":2,"action":1,"button_pressed":4,"time_out":false,"dwell_time":48.067138671875,"response_time":1708642135073.27},{"trial":2,"action":1,"button_pressed":2,"time_out":false,"dwell_time":47.662109375,"response_time":1708642135573.59},{"trial":2,"action":1,"button_pressed":7,"time_out":false,"dwell_time":47.529052734375,"response_time":1708642136140.01},{"trial":2,"action":1,"button_pressed":3,"time_out":false,"dwell_time":30.740966796875,"response_time":1708642136589.94},{"trial":2,"action":9,"button_pressed":-1,"time_out":false,"dwell_time":80.343994140625,"response_time":1708642139388.2},{"trial":3,"action":1,"button_pressed":10,"time_out":false,"dwell_time":47.66796875,"response_time":1708642154017.81},{"trial":3,"action":1,"button_pressed":5,"time_out":false,"dwell_time":47.643798828125,"response_time":1708642154450.85},{"trial":3,"action":1,"button_pressed":3,"time_out":false,"dwell_time":48.325927734375,"response_time":1708642155000.54},{"trial":3,"action":1,"button_pressed":6,"time_out":false,"dwell_time":47.451171875,"response_time":1708642155467.09},{"trial":3,"action":1,"button_pressed":2,"time_out":false,"dwell_time":31.088134765625,"response_time":1708642155916.28},{"trial":3,"action":9,"button_pressed":-1,"time_out":false,"dwell_time":31.456787109375,"response_time":1708642156550.54},{"trial":4,"action":1,"button_pressed":8,"time_out":false,"dwell_time":31.180908203125,"response_time":1708642173793.91},{"trial":4,"action":1,"button_pressed":0,"time_out":false,"dwell_time":64.583984375,"response_time":1708642174577.04},{"trial":4,"action":1,"button_pressed":1,"time_out":false,"dwell_time":48.386962890625,"response_time":1708642175127.39},{"trial":4,"action":1,"button_pressed":9,"time_out":false,"dwell_time":64.514892578125,"response_time":1708642175543.53},{"trial":4,"action":1,"button_pressed":3,"time_out":false,"dwell_time":48.2109375,"response_time":1708642175877.11},{"trial":4,"action":1,"button_pressed":5,"time_out":false,"dwell_time":47.51806640625,"response_time":1708642176293.67},{"trial":4,"action":9,"button_pressed":-1,"time_out":false,"dwell_time":65.06298828125,"response_time":1708642176943.31},{"trial":5,"action":1,"button_pressed":2,"time_out":false,"dwell_time":31.380859375,"response_time":1708642196737.24},{"trial":5,"action":1,"button_pressed":6,"time_out":false,"dwell_time":63.576904296875,"response_time":1708642197852.67},{"trial":5,"action":1,"button_pressed":9,"time_out":false,"dwell_time":47.427001953125,"response_time":1708642198435.64},{"trial":5,"action":1,"button_pressed":0,"time_out":false,"dwell_time":48.388916015625,"response_time":1708642199152.86},{"trial":5,"action":1,"button_pressed":3,"time_out":false,"dwell_time":47.5849609375,"response_time":1708642199669.44},{"trial":5,"action":1,"button_pressed":10,"time_out":false,"dwell_time":47.590087890625,"response_time":1708642200085.21},{"trial":5,"action":1,"button_pressed":7,"time_out":false,"dwell_time":48.421142578125,"response_time":1708642200552.49},{"trial":5,"action":9,"button_pressed":-1,"time_out":false,"dwell_time":32.438232421875,"response_time":1708642201336},{"trial":6,"action":1,"button_pressed":6,"time_out":false,"dwell_time":30.14208984375,"response_time":1708642225227.11},{"trial":6,"action":1,"button_pressed":5,"time_out":false,"dwell_time":97.31591796875,"response_time":1708642227075.98},{"trial":6,"action":1,"button_pressed":0,"time_out":false,"dwell_time":80.58984375,"response_time":1708642228058.89},{"trial":6,"action":1,"button_pressed":10,"time_out":false,"dwell_time":64.404052734375,"response_time":1708642229892.25},{"trial":6,"action":1,"button_pressed":3,"time_out":false,"dwell_time":63.14501953125,"response_time":1708642230408.11},{"trial":6,"action":1,"button_pressed":8,"time_out":false,"dwell_time":63.556884765625,"response_time":1708642231107.91},{"trial":6,"action":1,"button_pressed":7,"time_out":false,"dwell_time":30.662109375,"response_time":1708642232092.1},{"trial":6,"action":1,"button_pressed":1,"time_out":false,"dwell_time":31.10400390625,"response_time":1708642232757.9},{"trial":6,"action":1,"button_pressed":7,"time_out":false,"dwell_time":12.994140625,"response_time":1708642233557.29},{"trial":6,"action":1,"button_pressed":1,"time_out":false,"dwell_time":46.70703125,"response_time":1708642234074.01},{"trial":6,"action":1,"button_pressed":1,"time_out":false,"dwell_time":31.16796875,"response_time":1708642234757.19},{"trial":6,"action":1,"button_pressed":1,"time_out":false,"dwell_time":63.56689453125,"response_time":1708642235240.34},{"trial":6,"action":1,"button_pressed":1,"time_out":false,"dwell_time":64.64501953125,"response_time":1708642235423.9},{"trial":6,"action":1,"button_pressed":1,"time_out":false,"dwell_time":47.822021484375,"response_time":1708642235590.31},{"trial":6,"action":1,"button_pressed":1,"time_out":false,"dwell_time":30.47509765625,"response_time":1708642235773.75},{"trial":6,"action":1,"button_pressed":1,"time_out":false,"dwell_time":47.859130859375,"response_time":1708642235957.01},{"trial":6,"action":1,"button_pressed":1,"time_out":false,"dwell_time":47.81201171875,"response_time":1708642236124.24},{"trial":6,"action":1,"button_pressed":1,"time_out":false,"dwell_time":64.05908203125,"response_time":1708642236306.37},{"trial":6,"action":1,"button_pressed":1,"time_out":false,"dwell_time":63.2880859375,"response_time":1708642236489.53},{"trial":6,"action":1,"button_pressed":1,"time_out":false,"dwell_time":63.365234375,"response_time":1708642236639.53},{"trial":6,"action":1,"button_pressed":1,"time_out":false,"dwell_time":63.387939453125,"response_time":1708642236789.48},{"trial":6,"action":1,"button_pressed":1,"time_out":false,"dwell_time":63.237060546875,"response_time":1708642236939.49},{"trial":6,"action":0,"button_pressed":-1,"time_out":false,"dwell_time":64.17822265625,"response_time":1708642238472.41},{"trial":6,"action":1,"button_pressed":6,"time_out":false,"dwell_time":63.676025390625,"response_time":1708642239306.1},{"trial":6,"action":1,"button_pressed":5,"time_out":false,"dwell_time":96.39892578125,"response_time":1708642240638.13},{"trial":6,"action":1,"button_pressed":0,"time_out":false,"dwell_time":81.23486328125,"response_time":1708642241455.24},{"trial":6,"action":1,"button_pressed":10,"time_out":false,"dwell_time":13.361083984375,"response_time":1708642241971.44},{"trial":6,"action":1,"button_pressed":8,"time_out":false,"dwell_time":62.982177734375,"response_time":1708642242420.88},{"trial":6,"action":1,"button_pressed":3,"time_out":false,"dwell_time":80.63720703125,"response_time":1708642243054.1},{"trial":6,"action":1,"button_pressed":1,"time_out":false,"dwell_time":48.31201171875,"response_time":1708642243571.7},{"trial":6,"action":1,"button_pressed":7,"time_out":false,"dwell_time":48.35888671875,"response_time":1708642243938.34},{"trial":6,"action":9,"button_pressed":-1,"time_out":false,"dwell_time":31.741943359375,"response_time":1708642244871.75},{"trial":7,"action":1,"button_pressed":6,"time_out":false,"dwell_time":163.816162109375,"response_time":1708642268313.38},{"trial":7,"action":1,"button_pressed":5,"time_out":false,"dwell_time":80.490966796875,"response_time":1708642269045.56},{"trial":7,"action":1,"button_pressed":9,"time_out":false,"dwell_time":62.83203125,"response_time":1708642269545.44},{"trial":7,"action":1,"button_pressed":8,"time_out":false,"dwell_time":80.4541015625,"response_time":1708642270028.8},{"trial":7,"action":1,"button_pressed":3,"time_out":false,"dwell_time":81.343017578125,"response_time":1708642270462.56},{"trial":7,"action":1,"button_pressed":0,"time_out":false,"dwell_time":80.4951171875,"response_time":1708642270894.96},{"trial":7,"action":1,"button_pressed":7,"time_out":false,"dwell_time":47.1640625,"response_time":1708642273544.46},{"trial":7,"action":1,"button_pressed":2,"time_out":false,"dwell_time":31.02978515625,"response_time":1708642274195.11},{"trial":7,"action":9,"button_pressed":-1,"time_out":false,"dwell_time":31.4072265625,"response_time":1708642274911.93},{"trial":8,"action":1,"button_pressed":6,"time_out":false,"dwell_time":31.907958984375,"response_time":1708642292389.5},{"trial":8,"action":1,"button_pressed":5,"time_out":false,"dwell_time":47.56494140625,"response_time":1708642292854.82},{"trial":8,"action":1,"button_pressed":0,"time_out":false,"dwell_time":30.2060546875,"response_time":1708642293221.57},{"trial":8,"action":1,"button_pressed":11,"time_out":false,"dwell_time":64.52587890625,"response_time":1708642293704.99},{"trial":8,"action":1,"button_pressed":8,"time_out":false,"dwell_time":29.973876953125,"response_time":1708642294204.44},{"trial":8,"action":1,"button_pressed":4,"time_out":false,"dwell_time":64.821044921875,"response_time":1708642294488.23},{"trial":8,"action":9,"button_pressed":-1,"time_out":false,"dwell_time":32.3291015625,"response_time":1708642295022.03},{"trial":9,"action":1,"button_pressed":8,"time_out":false,"dwell_time":79.9619140625,"response_time":1708642316213.72},{"trial":9,"action":1,"button_pressed":6,"time_out":false,"dwell_time":47.84619140625,"response_time":1708642316597.54},{"trial":9,"action":1,"button_pressed":5,"time_out":false,"dwell_time":97.971923828125,"response_time":1708642317130.57},{"trial":9,"action":1,"button_pressed":1,"time_out":false,"dwell_time":80.404052734375,"response_time":1708642317647.12},{"trial":9,"action":1,"button_pressed":0,"time_out":false,"dwell_time":80.641845703125,"response_time":1708642317963.76},{"trial":9,"action":1,"button_pressed":7,"time_out":false,"dwell_time":30.77685546875,"response_time":1708642318913.87},{"trial":9,"action":1,"button_pressed":11,"time_out":false,"dwell_time":12.89404296875,"response_time":1708642319195.61},{"trial":9,"action":9,"button_pressed":-1,"time_out":false,"dwell_time":48.740966796875,"response_time":1708642320047.14},{"trial":10,"action":1,"button_pressed":7,"time_out":false,"dwell_time":63.93408203125,"response_time":1708642339839.95},{"trial":10,"action":1,"button_pressed":11,"time_out":false,"dwell_time":64.460205078125,"response_time":1708642340273.13},{"trial":10,"action":1,"button_pressed":0,"time_out":false,"dwell_time":30.93212890625,"response_time":1708642341139.8},{"trial":10,"action":1,"button_pressed":3,"time_out":false,"dwell_time":46.96484375,"response_time":1708642342755.28},{"trial":10,"action":1,"button_pressed":9,"time_out":false,"dwell_time":113.91796875,"response_time":1708642343238.75},{"trial":10,"action":1,"button_pressed":5,"time_out":false,"dwell_time":46.962158203125,"response_time":1708642344171.7},{"trial":10,"action":1,"button_pressed":6,"time_out":false,"dwell_time":47.0859375,"response_time":1708642344538},{"trial":10,"action":9,"button_pressed":-1,"time_out":false,"dwell_time":31.490966796875,"response_time":1708642345288.91},{"trial":11,"action":1,"button_pressed":3,"time_out":false,"dwell_time":46.989990234375,"response_time":1708642367447.38},{"trial":11,"action":1,"button_pressed":1,"time_out":false,"dwell_time":64.615966796875,"response_time":1708642367780.74},{"trial":11,"action":1,"button_pressed":8,"time_out":false,"dwell_time":97.09814453125,"response_time":1708642368363.16},{"trial":11,"action":1,"button_pressed":5,"time_out":false,"dwell_time":113.91796875,"response_time":1708642369162.94},{"trial":11,"action":1,"button_pressed":7,"time_out":false,"dwell_time":63.136962890625,"response_time":1708642369829.46},{"trial":11,"action":1,"button_pressed":9,"time_out":false,"dwell_time":63.9931640625,"response_time":1708642370179.45},{"trial":11,"action":1,"button_pressed":0,"time_out":false,"dwell_time":47.338134765625,"response_time":1708642370513.35},{"trial":11,"action":1,"button_pressed":10,"time_out":false,"dwell_time":64.548095703125,"response_time":1708642370879.82},{"trial":11,"action":9,"button_pressed":-1,"time_out":false,"dwell_time":14.614013671875,"response_time":1708642371480.16},{"trial":12,"action":1,"button_pressed":4,"time_out":false,"dwell_time":64.06103515625,"response_time":1708642393388.56},{"trial":12,"action":1,"button_pressed":2,"time_out":false,"dwell_time":47.9111328125,"response_time":1708642393755.68},{"trial":12,"action":1,"button_pressed":11,"time_out":false,"dwell_time":62.862060546875,"response_time":1708642395171.08},{"trial":12,"action":1,"button_pressed":6,"time_out":false,"dwell_time":80.78515625,"response_time":1708642395638.31},{"trial":12,"action":1,"button_pressed":0,"time_out":false,"dwell_time":80.44287109375,"response_time":1708642396987.94},{"trial":12,"action":1,"button_pressed":5,"time_out":false,"dwell_time":97.56982421875,"response_time":1708642397437.37},{"trial":12,"action":1,"button_pressed":3,"time_out":false,"dwell_time":47.093994140625,"response_time":1708642398054.03},{"trial":12,"action":1,"button_pressed":10,"time_out":false,"dwell_time":30.06005859375,"response_time":1708642398420.38},{"trial":12,"action":9,"button_pressed":-1,"time_out":false,"dwell_time":16.5322265625,"response_time":1708642399653.22}]}