{"meta_data":{"additional_headers":{},"game_name":"Recollect","version":"2.53.01","user_name":"166","organization":"braingamecenter","study":"mpl2_2022_11","session_number":0,"device_id":"74342D95-EE82-45E3-8ADF-48FB3203C5DD"},"data":[{"stage":"Practice","trial":0,"sequence":"6F","letter_input":"F","number_input":"6","is_correct":true,"presentation_start_time":1708642422210.74,"presentation_end_time":1708642425213.55,"response_time":1708642433608.84},{"stage":"Practice","trial":1,"sequence":"G4","letter_input":"G","number_input":"4","is_correct":true,"presentation_start_time":1708642435139.89,"presentation_end_time":1708642438142.78,"response_time":1708642443237.5},{"stage":"Practice","trial":2,"sequence":"3W5","letter_input":"W","number_input":"35","is_correct":true,"presentation_start_time":1708642444770.04,"presentation_end_time":1708642449272.37,"response_time":1708642455200.05},{"stage":"Practice","trial":3,"sequence":"T7L","letter_input":"LT","number_input":"7","is_correct":true,"presentation_start_time":1708642456732.88,"presentation_end_time":1708642461235.18,"response_time":1708642466513.06},{"stage":"Practice","trial":4,"sequence":"9J1","letter_input":"J","number_input":"19","is_correct":true,"presentation_start_time":1708642468045.84,"presentation_end_time":1708642472548.14,"response_time":1708642478492.5},{"stage":"Calibration","trial":0,"sequence":"Y5","letter_input":"Y","number_input":"","is_correct":false,"presentation_start_time":1708642487905.99,"presentation_end_time":1708642490908.89,"response_time":1708642497636.27},{"stage":"Calibration","trial":1,"sequence":"4R","letter_input":"R","number_input":"4","is_correct":true,"presentation_start_time":1708642499168.92,"presentation_end_time":1708642502171.78,"response_time":1708642505833.56},{"stage":"Calibration","trial":2,"sequence":"T2B","letter_input":"BT","number_input":"2","is_correct":true,"presentation_start_time":1708642507366.34,"presentation_end_time":1708642511868.66,"response_time":1708642516496.7},{"stage":"Calibration","trial":3,"sequence":"6Y1","letter_input":"Y","number_input":"16","is_correct":true,"presentation_start_time":1708642518029.51,"presentation_end_time":1708642522531.54,"response_time":1708642527159.93},{"stage":"Calibration","trial":4,"sequence":"S5B3","letter_input":"SB","number_input":"35","is_correct":false,"presentation_start_time":1708642528692.69,"presentation_end_time":1708642534694.46,"response_time":1708642539156.03},{"stage":"Calibration","trial":5,"sequence":"6R1K","letter_input":"KR","number_input":"16","is_correct":true,"presentation_start_time":1708642540688.82,"presentation_end_time":1708642546690.74,"response_time":1708642553201.53},{"stage":"Calibration","trial":6,"sequence":"M8H5E","letter_input":"EHM","number_input":"58","is_correct":true,"presentation_start_time":1708642554734.13,"presentation_end_time":1708642562235.34,"response_time":1708642571478.88},{"stage":"Calibration","trial":7,"sequence":"7Y4N9","letter_input":"MY","number_input":"479","is_correct":false,"presentation_start_time":1708642573011.51,"presentation_end_time":1708642580512.95,"response_time":1708642591205.73},{"stage":"Calibration","trial":8,"sequence":"P8F3Z1","letter_input":"MPY","number_input":"138","is_correct":false,"presentation_start_time":1708642592738.55,"presentation_end_time":1708642601739.29,"response_time":1708642615297.85},{"stage":"Calibration","trial":9,"sequence":"2D7B4J","letter_input":"CJB","number_input":"247","is_correct":false,"presentation_start_time":1708642616830.53,"presentation_end_time":1708642625831.42,"response_time":1708642656917.54}]}