Audio_Only_Files,Video_Files,Original_Word_List,noiseLevelCode,conditionCodes,noiseLevelFile1,noiseLevelFile2,InstrTextVar,targetSpeakerName,targetSpeakerEccen,targetSpkrChannel,targetSpkrSound,targetVisualDegrees,visStimLoc,visStimLoc2,visStimW,visStimH,practiceTrials.thisRepN,practiceTrials.thisTrialN,practiceTrials.thisN,practiceTrials.thisIndex,trials.thisRepN,trials.thisTrialN,trials.thisN,trials.thisIndex,audLocalLoop.thisRepN,audLocalLoop.thisTrialN,audLocalLoop.thisN,audLocalLoop.thisIndex,visualLocalLoop.thisRepN,visualLocalLoop.thisTrialN,visualLocalLoop.thisN,visualLocalLoop.thisIndex,letsGoAlready.keys,letsGoAlready.rt,letsGoAlready.started,letsGoAlready.stopped,text_2.started,text_2.stopped,text_3.started,text_3.stopped,key_resp_2.keys,key_resp_2.rt,key_resp_2.started,key_resp_2.stopped,text_5.started,text_5.stopped,fixCross.started,fixCross.stopped,fixCross2.started,fixCross2.stopped,answerPrompt.started,answerPrompt.stopped,getAnswer.text,getAnswer.started,getAnswer.stopped,goToNext.keys,goToNext.rt,goToNext.started,goToNext.stopped,stretchBreakTxrt.started,stretchBreakTxrt.stopped,key_resp_3.keys,key_resp_3.rt,key_resp_3.started,key_resp_3.stopped,letsGoLocal.keys,letsGoLocal.rt,letsGoLocal.started,letsGoLocal.stopped,text_4.started,text_4.stopped,prepFixTxt.started,prepFixTxt.stopped,prepFixTxt_2.started,prepFixTxt_2.stopped,respPromptLocal.started,respPromptLocal.stopped,slider.response,slider.rt,slider.started,slider.stopped,letsGoLocal_2.keys,letsGoLocal_2.rt,letsGoLocal_2.started,letsGoLocal_2.stopped,text_7.started,text_7.stopped,prepFixTxt_3.started,prepFixTxt_3.stopped,grating.started,grating.stopped,exitTxt.started,exitTxt.stopped,key_resp.keys,key_resp.rt,key_resp.started,key_resp.stopped,participant,session,date,expName,psychopyVersion,frameRate,
,,,,,,,,,,,,,,,,,,,,,,,,,,,,,,,,,space,7.895213552284986,30.939800053834915,None,,,,,,,,,,,,,,,,,,,,,,,,,,,,,,,,,,,,,,,,,,,,,,,,,,,,,,,,,,,,,,167,001,2024_Feb_26_1343,SpeechDraft1Carolyn_lessNoise_PlusLocalization,2021.2.3,60.018036626350714,
,,,,,,,,,,,,,,,,,,,,,,,,,,,,,,,,,,,,,30.939800053834915,None,38.95617438480258,None,space,5.695503600873053,39.139545761048794,None,,,,,,,,,,,,,,,,,,,,,,,,,,,,,,,,,,,,,,,,,,,,,,,,,,,,,,167,001,2024_Feb_26_1343,SpeechDraft1Carolyn_lessNoise_PlusLocalization,2021.2.3,60.018036626350714,
ash.wav,ash.mpg,ash,1,A,Pink_Noise_1_1.wav,Pink_Noise_1_2.wav,"This is an example of an

AUDIO trial",,,,,,,,,,0,0,0,0,,,,,,,,,,,,,,,,,,,,,,,,,44.889635488856584,None,45.87284768279642,None,49.20606672996655,None,50.60621037194505,None,ash,50.60621037194505,None,return,3.281832756008953,50.67325337417424,None,,,,,,,,,,,,,,,,,,,,,,,,,,,,,,,,,,,,,,,167,001,2024_Feb_26_1343,SpeechDraft1Carolyn_lessNoise_PlusLocalization,2021.2.3,60.018036626350714,
ash.wav,ash.mpg,ash,1,AV,Pink_Noise_1_1.wav,Pink_Noise_1_2.wav,"This is an example of an

AUDIO + VIDEO  trial",,,,,,,,,,0,1,1,1,,,,,,,,,,,,,,,,,,,,,,,,,53.989176047965884,None,54.98971817921847,None,56.4729773667641,None,57.856486565899104,None,"ash
",57.856486565899104,None,return,2.383546696975827,57.939467302989215,None,,,,,,,,,,,,,,,,,,,,,,,,,,,,,,,,,,,,,,,167,001,2024_Feb_26_1343,SpeechDraft1Carolyn_lessNoise_PlusLocalization,2021.2.3,60.018036626350714,
,,,,,,,,,,,,,,,,,,,,,,,,,,,,,,,,,,,,,,,,,,,,,,,,,,,,,,,,,,,,60.372741859871894,None,space,13.038620421197265,60.55639042984694,None,,,,,,,,,,,,,,,,,,,,,,,,,,,,,,,,,167,001,2024_Feb_26_1343,SpeechDraft1Carolyn_lessNoise_PlusLocalization,2021.2.3,60.018036626350714,
cause.wav,cause.mpg,cause,4,AV,Pink_Noise_4_1.wav,Pink_Noise_4_2.wav,,,,,,,,,,,,,,,0,0,0,74,,,,,,,,,,,,,,,,,,,,,,,73.65598322078586,None,75.13933247793466,None,76.52290030196309,None,cause,76.52290030196309,None,return,7.380638797301799,76.60639229696244,None,,,,,,,,,,,,,,,,,,,,,,,,,,,,,,,,,,,,,,,167,001,2024_Feb_26_1343,SpeechDraft1Carolyn_lessNoise_PlusLocalization,2021.2.3,60.018036626350714,
thrown.wav,thrown.mpg,thrown,4,A,Pink_Noise_4_1.wav,Pink_Noise_4_2.wav,,,,,,,,,,,,,,,0,1,1,24,,,,,,,,,,,,,,,,,,,,,,,84.0061800009571,None,85.50621234998107,None,86.88972098892555,None,boat,86.88972098892555,None,return,3.014262402895838,86.97284729080275,None,,,,,,,,,,,,,,,,,,,,,,,,,,,,,,,,,,,,,,,167,001,2024_Feb_26_1343,SpeechDraft1Carolyn_lessNoise_PlusLocalization,2021.2.3,60.018036626350714,
bleed.wav,bleed.mpg,bleed,2,AV,Pink_Noise_2_1.wav,Pink_Noise_2_2.wav,,,,,,,,,,,,,,,0,2,2,87,,,,,,,,,,,,,,,,,,,,,,,90.00613342877477,None,91.48923735693097,None,92.87270979396999,None,bleed,92.87270979396999,None,return,2.062939069699496,92.95613003708422,None,,,,,,,,,,,,,,,,,,,,,,,,,,,,,,,,,,,,,,,167,001,2024_Feb_26_1343,SpeechDraft1Carolyn_lessNoise_PlusLocalization,2021.2.3,60.018036626350714,
gift.wav,gift.mpg,gift,6,AV,Pink_Noise_6_1.wav,Pink_Noise_6_2.wav,,,,,,,,,,,,,,,0,3,3,82,,,,,,,,,,,,,,,,,,,,,,,95.03971519414335,None,96.53916019015014,None,97.92272362485528,None,dilf,97.92272362485528,None,return,2.0766992261633277,98.00631330814213,None,,,,,,,,,,,,,,,,,,,,,,,,,,,,,,,,,,,,,,,167,001,2024_Feb_26_1343,SpeechDraft1Carolyn_lessNoise_PlusLocalization,2021.2.3,60.018036626350714,
ghost.wav,ghost.mpg,ghost,3,A,Pink_Noise_3_1.wav,Pink_Noise_3_2.wav,,,,,,,,,,,,,,,0,4,4,10,,,,,,,,,,,,,,,,,,,,,,,100.10620874585584,None,101.5903592268005,None,102.97283341409639,None,ghost,102.97283341409639,None,return,3.2425986151210964,103.05641951598227,None,,,,,,,,,,,,,,,,,,,,,,,,,,,,,,,,,,,,,,,167,001,2024_Feb_26_1343,SpeechDraft1Carolyn_lessNoise_PlusLocalization,2021.2.3,60.018036626350714,
clad.wav,clad.mpg,clad,2,AV,Pink_Noise_2_1.wav,Pink_Noise_2_2.wav,,,,,,,,,,,,,,,0,5,5,118,,,,,,,,,,,,,,,,,,,,,,,106.3228341047652,None,107.80755989812315,None,109.18951446795836,None,clad,109.18951446795836,None,return,2.505940966308117,109.27321118814871,None,,,,,,,,,,,,,,,,,,,,,,,,,,,,,,,,,,,,,,,167,001,2024_Feb_26_1343,SpeechDraft1Carolyn_lessNoise_PlusLocalization,2021.2.3,60.018036626350714,
duct.wav,duct.mpg,duct,2,A,Pink_Noise_2_1.wav,Pink_Noise_2_2.wav,,,,,,,,,,,,,,,0,6,6,40,,,,,,,,,,,,,,,,,,,,,,,111.80622928822413,None,113.30604326585308,None,114.68976320093498,None,"duct
",114.68976320093498,None,return,2.701912295073271,114.77311899513006,None,,,,,,,,,,,,,,,,,,,,,,,,,,,,,,,,,,,,,,,167,001,2024_Feb_26_1343,SpeechDraft1Carolyn_lessNoise_PlusLocalization,2021.2.3,60.018036626350714,
please.wav,please.mpg,please,1,AV,Pink_Noise_1_1.wav,Pink_Noise_1_2.wav,,,,,,,,,,,,,,,0,7,7,63,,,,,,,,,,,,,,,,,,,,,,,117.50622249208391,None,118.98964784992859,None,120.3728130091913,None,"please
",120.3728130091913,None,return,1.6027354658581316,120.45629478106275,None,,,,,,,,,,,,,,,,,,,,,,,,,,,,,,,,,,,,,,,167,001,2024_Feb_26_1343,SpeechDraft1Carolyn_lessNoise_PlusLocalization,2021.2.3,60.018036626350714,
cruel.wav,cruel.mpg,cruel,4,A,Pink_Noise_4_1.wav,Pink_Noise_4_2.wav,,,,,,,,,,,,,,,0,8,8,26,,,,,,,,,,,,,,,,,,,,,,,122.08978668879718,None,123.57291828189045,None,124.95648555876687,None,cool,124.95648555876687,None,return,1.2430808139033616,125.03992810519412,None,,,,,,,,,,,,,,,,,,,,,,,,,,,,,,,,,,,,,,,167,001,2024_Feb_26_1343,SpeechDraft1Carolyn_lessNoise_PlusLocalization,2021.2.3,60.018036626350714,
grown.wav,grown.mpg,grown,5,AV,Pink_Noise_5_1.wav,Pink_Noise_5_2.wav,,,,,,,,,,,,,,,0,9,9,100,,,,,,,,,,,,,,,,,,,,,,,126.30636325478554,None,127.80633875587955,None,129.18972353916615,None,road,129.18972353916615,None,return,3.8742426121607423,129.27291455678642,None,,,,,,,,,,,,,,,,,,,,,,,,,,,,,,,,,,,,,,,167,001,2024_Feb_26_1343,SpeechDraft1Carolyn_lessNoise_PlusLocalization,2021.2.3,60.018036626350714,
giant.wav,giant.mpg,giant,6,AV,Pink_Noise_6_1.wav,Pink_Noise_6_2.wav,,,,,,,,,,,,,,,0,10,10,119,,,,,,,,,,,,,,,,,,,,,,,133.17320244619623,None,134.6727842791006,None,136.05658913077787,None,strife,136.05658913077787,None,return,4.231516094878316,136.1395441009663,None,,,,,,,,,,,,,,,,,,,,,,,,,,,,,,,,,,,,,,,167,001,2024_Feb_26_1343,SpeechDraft1Carolyn_lessNoise_PlusLocalization,2021.2.3,60.018036626350714,
clog.wav,clog.mpg,clog,3,AV,Pink_Noise_3_1.wav,Pink_Noise_3_2.wav,,,,,,,,,,,,,,,0,11,11,91,,,,,,,,,,,,,,,,,,,,,,,140.38978623691946,None,141.8894356940873,None,143.2728008548729,None,clog,143.2728008548729,None,return,2.0229301401413977,143.3562011611648,None,,,,,,,,,,,,,,,,,,,,,,,,,,,,,,,,,,,,,,,167,001,2024_Feb_26_1343,SpeechDraft1Carolyn_lessNoise_PlusLocalization,2021.2.3,60.018036626350714,
grief.wav,grief.mpg,grief,3,AV,Pink_Noise_3_1.wav,Pink_Noise_3_2.wav,,,,,,,,,,,,,,,0,12,12,101,,,,,,,,,,,,,,,,,,,,,,,145.40622089290991,None,146.8896439988166,None,148.27287916187197,None,grief,148.27287916187197,None,return,7.590759792365134,148.3562529119663,None,,,,,,,,,,,,,,,,,,,,,,,,,,,,,,,,,,,,,,,167,001,2024_Feb_26_1343,SpeechDraft1Carolyn_lessNoise_PlusLocalization,2021.2.3,60.018036626350714,
clap.wav,clap.mpg,clap,6,A,Pink_Noise_6_1.wav,Pink_Noise_6_2.wav,,,,,,,,,,,,,,,0,13,13,25,,,,,,,,,,,,,,,,,,,,,,,155.9731619860977,None,157.47277915710583,None,158.8565813698806,None,"light
",158.8565813698806,None,return,4.183420680928975,158.93960157502443,None,,,,,,,,,,,,,,,,,,,,,,,,,,,,,,,,,,,,,,,167,001,2024_Feb_26_1343,SpeechDraft1Carolyn_lessNoise_PlusLocalization,2021.2.3,60.018036626350714,
chew.wav,chew.mpg,chew,1,AV,Pink_Noise_1_1.wav,Pink_Noise_1_2.wav,,,,,,,,,,,,,,,0,14,14,83,,,,,,,,,,,,,,,,,,,,,,,163.15663000382483,None,164.639968466945,None,166.02288398798555,None,chew,166.02288398798555,None,return,1.104436227120459,166.1066125719808,None,,,,,,,,,,,,,,,,,,,,,,,,,,,,,,,,,,,,,,,167,001,2024_Feb_26_1343,SpeechDraft1Carolyn_lessNoise_PlusLocalization,2021.2.3,60.018036626350714,
roast.wav,roast.mpg,roast,5,AV,Pink_Noise_5_1.wav,Pink_Noise_5_2.wav,,,,,,,,,,,,,,,0,15,15,108,,,,,,,,,,,,,,,,,,,,,,,167.23959339177236,None,168.722874046769,None,170.106297633145,None,"roast
",170.106297633145,None,return,2.50145246880129,170.189592090901,None,,,,,,,,,,,,,,,,,,,,,,,,,,,,,,,,,,,,,,,167,001,2024_Feb_26_1343,SpeechDraft1Carolyn_lessNoise_PlusLocalization,2021.2.3,60.018036626350714,
bin.wav,bin.mpg,bin,5,A,Pink_Noise_5_1.wav,Pink_Noise_5_2.wav,,,,,,,,,,,,,,,0,16,16,3,,,,,,,,,,,,,,,,,,,,,,,172.72309589013457,None,174.2227190430276,None,175.60644337488338,None,gift,175.60644337488338,None,return,4.649158764164895,175.6899413941428,None,,,,,,,,,,,,,,,,,,,,,,,,,,,,,,,,,,,,,,,167,001,2024_Feb_26_1343,SpeechDraft1Carolyn_lessNoise_PlusLocalization,2021.2.3,60.018036626350714,
wind.wav,wind.mpg,wind,1,A,Pink_Noise_1_1.wav,Pink_Noise_1_2.wav,,,,,,,,,,,,,,,0,17,17,47,,,,,,,,,,,,,,,,,,,,,,,180.35660944599658,None,181.83992128307,None,183.22319784201682,None,wind,183.22319784201682,None,return,1.1127596101723611,183.30626564100385,None,,,,,,,,,,,,,,,,,,,,,,,,,,,,,,,,,,,,,,,167,001,2024_Feb_26_1343,SpeechDraft1Carolyn_lessNoise_PlusLocalization,2021.2.3,60.018036626350714,
cat.wav,cat.mpg,cat,4,AV,Pink_Noise_4_1.wav,Pink_Noise_4_2.wav,,,,,,,,,,,,,,,0,18,18,109,,,,,,,,,,,,,,,,,,,,,,,184.43990168021992,None,185.9397133239545,None,187.32303151488304,None,cast,187.32303151488304,None,return,1.1165599660016596,187.40647359006107,None,,,,,,,,,,,,,,,,,,,,,,,,,,,,,,,,,,,,,,,167,001,2024_Feb_26_1343,SpeechDraft1Carolyn_lessNoise_PlusLocalization,2021.2.3,60.018036626350714,
wheat.wav,wheat.mpg,wheat,5,AV,Pink_Noise_5_1.wav,Pink_Noise_5_2.wav,,,,,,,,,,,,,,,0,19,19,96,,,,,,,,,,,,,,,,,,,,,,,188.539796104189,None,190.023373327218,None,191.4062477541156,None,wait,191.4062477541156,None,return,2.3295294027775526,191.48951929900795,None,,,,,,,,,,,,,,,,,,,,,,,,,,,,,,,,,,,,,,,167,001,2024_Feb_26_1343,SpeechDraft1Carolyn_lessNoise_PlusLocalization,2021.2.3,60.018036626350714,
bay.wav,bay.mpg,bay,1,A,Pink_Noise_1_1.wav,Pink_Noise_1_2.wav,,,,,,,,,,,,,,,0,20,20,15,,,,,,,,,,,,,,,,,,,,,,,193.83975085895509,None,195.3393030827865,None,196.72316250903532,None,bay,196.72316250903532,None,return,1.5405824282206595,196.80654009012505,None,,,,,,,,,,,,,,,,,,,,,,,,,,,,,,,,,,,,,,,167,001,2024_Feb_26_1343,SpeechDraft1Carolyn_lessNoise_PlusLocalization,2021.2.3,60.018036626350714,
faint.wav,faint.mpg,faint,5,A,Pink_Noise_5_1.wav,Pink_Noise_5_2.wav,,,,,,,,,,,,,,,0,21,21,31,,,,,,,,,,,,,,,,,,,,,,,198.37329729879275,None,199.87276435503736,None,201.25632784701884,None,crisp,201.25632784701884,None,return,1.7994404002092779,201.33965451316908,None,,,,,,,,,,,,,,,,,,,,,,,,,,,,,,,,,,,,,,,167,001,2024_Feb_26_1343,SpeechDraft1Carolyn_lessNoise_PlusLocalization,2021.2.3,60.018036626350714,
shed.wav,shed.mpg,shed,4,AV,Pink_Noise_4_1.wav,Pink_Noise_4_2.wav,,,,,,,,,,,,,,,0,22,22,112,,,,,,,,,,,,,,,,,,,,,,,203.15640086494386,None,204.64068612409756,None,206.02293876791373,None,shai,206.02293876791373,None,return,8.080578797962517,206.10650921612978,None,,,,,,,,,,,,,,,,,,,,,,,,,,,,,,,,,,,,,,,167,001,2024_Feb_26_1343,SpeechDraft1Carolyn_lessNoise_PlusLocalization,2021.2.3,60.018036626350714,
fool.wav,fool.mpg,fool,3,A,Pink_Noise_3_1.wav,Pink_Noise_3_2.wav,,,,,,,,,,,,,,,0,23,23,11,,,,,,,,,,,,,,,,,,,,,,,214.20662950119004,None,215.70616192510352,None,217.08966001681983,None,pool,217.08966001681983,None,return,1.365872842259705,217.17325252620503,None,,,,,,,,,,,,,,,,,,,,,,,,,,,,,,,,,,,,,,,167,001,2024_Feb_26_1343,SpeechDraft1Carolyn_lessNoise_PlusLocalization,2021.2.3,60.018036626350714,
crowd.wav,crowd.mpg,crowd,1,AV,Pink_Noise_1_1.wav,Pink_Noise_1_2.wav,,,,,,,,,,,,,,,0,24,24,76,,,,,,,,,,,,,,,,,,,,,,,218.55642506107688,None,220.05616031587124,None,221.4395471829921,None,crowd,221.4395471829921,None,return,2.1917037018574774,221.52330703521147,None,,,,,,,,,,,,,,,,,,,,,,,,,,,,,,,,,,,,,,,167,001,2024_Feb_26_1343,SpeechDraft1Carolyn_lessNoise_PlusLocalization,2021.2.3,60.018036626350714,
edge.wav,edge.mpg,edge,5,A,Pink_Noise_5_1.wav,Pink_Noise_5_2.wav,,,,,,,,,,,,,,,0,25,25,49,,,,,,,,,,,,,,,,,,,,,,,223.73984520090744,None,225.23938127607107,None,226.62308209901676,None,"edge
",226.62308209901676,None,return,1.2006316632032394,226.7063686689362,None,,,,,,,,,,,,,,,,,,,,,,,,,,,,,,,,,,,,,,,167,001,2024_Feb_26_1343,SpeechDraft1Carolyn_lessNoise_PlusLocalization,2021.2.3,60.018036626350714,
blast.wav,blast.mpg,blast,5,AV,Pink_Noise_5_1.wav,Pink_Noise_5_2.wav,,,,,,,,,,,,,,,0,26,26,117,,,,,,,,,,,,,,,,,,,,,,,227.93976794881746,None,229.43983817612752,None,230.82293502800167,None,blast,230.82293502800167,None,return,4.92856783606112,230.9064666191116,None,,,,,,,,,,,,,,,,,,,,,,,,,,,,,,,,,,,,,,,167,001,2024_Feb_26_1343,SpeechDraft1Carolyn_lessNoise_PlusLocalization,2021.2.3,60.018036626350714,
ton.wav,ton.mpg,ton,4,A,Pink_Noise_4_1.wav,Pink_Noise_4_2.wav,,,,,,,,,,,,,,,0,27,27,7,,,,,,,,,,,,,,,,,,,,,,,235.85663567809388,None,237.3559651481919,None,238.73984652990475,None,tart,238.73984652990475,None,return,7.059926263988018,238.8230769801885,None,,,,,,,,,,,,,,,,,,,,,,,,,,,,,,,,,,,,,,,167,001,2024_Feb_26_1343,SpeechDraft1Carolyn_lessNoise_PlusLocalization,2021.2.3,60.018036626350714,
grace.wav,grace.mpg,grace,1,A,Pink_Noise_1_1.wav,Pink_Noise_1_2.wav,,,,,,,,,,,,,,,0,28,28,29,,,,,,,,,,,,,,,,,,,,,,,245.90651280619204,None,247.4061220982112,None,248.78996349405497,None,grace,248.78996349405497,None,return,1.2579228160902858,248.87309805396944,None,,,,,,,,,,,,,,,,,,,,,,,,,,,,,,,,,,,,,,,167,001,2024_Feb_26_1343,SpeechDraft1Carolyn_lessNoise_PlusLocalization,2021.2.3,60.018036626350714,
crank.wav,crank.mpg,crank,4,AV,Pink_Noise_4_1.wav,Pink_Noise_4_2.wav,,,,,,,,,,,,,,,0,29,29,116,,,,,,,,,,,,,,,,,,,,,,,250.15657287696376,None,251.6564440461807,None,253.039862326812,None,tray,253.039862326812,None,return,1.6479329029098153,253.12309757713228,None,,,,,,,,,,,,,,,,,,,,,,,,,,,,,,,,,,,,,,,167,001,2024_Feb_26_1343,SpeechDraft1Carolyn_lessNoise_PlusLocalization,2021.2.3,60.018036626350714,
dim.wav,dim.mpg,dim,6,AV,Pink_Noise_6_1.wav,Pink_Noise_6_2.wav,,,,,,,,,,,,,,,0,30,30,105,,,,,,,,,,,,,,,,,,,,,,,254.78995096404105,None,256.2894020918757,None,257.67308445321396,None,di[p,257.67308445321396,None,return,1.5744296368211508,257.75666489079595,None,,,,,,,,,,,,,,,,,,,,,,,,,,,,,,,,,,,,,,,167,001,2024_Feb_26_1343,SpeechDraft1Carolyn_lessNoise_PlusLocalization,2021.2.3,60.018036626350714,
cuff.wav,cuff.mpg,cuff,5,A,Pink_Noise_5_1.wav,Pink_Noise_5_2.wav,,,,,,,,,,,,,,,0,31,31,5,,,,,,,,,,,,,,,,,,,,,,,259.3563477732241,None,260.8559854780324,None,262.23995758779347,None,cut,262.23995758779347,None,return,1.007866492960602,262.3231508010067,None,,,,,,,,,,,,,,,,,,,,,,,,,,,,,,,,,,,,,,,167,001,2024_Feb_26_1343,SpeechDraft1Carolyn_lessNoise_PlusLocalization,2021.2.3,60.018036626350714,
cease.wav,cease.mpg,cease,1,A,Pink_Noise_1_1.wav,Pink_Noise_1_2.wav,,,,,,,,,,,,,,,0,32,32,2,,,,,,,,,,,,,,,,,,,,,,,263.35646768985316,None,264.8560012849048,None,266.2398639852181,None,cease,266.2398639852181,None,return,1.1118926890194416,266.32312558218837,None,,,,,,,,,,,,,,,,,,,,,,,,,,,,,,,,,,,,,,,167,001,2024_Feb_26_1343,SpeechDraft1Carolyn_lessNoise_PlusLocalization,2021.2.3,60.018036626350714,
claw.wav,claw.mpg,claw,2,AV,Pink_Noise_2_1.wav,Pink_Noise_2_2.wav,,,,,,,,,,,,,,,0,33,33,86,,,,,,,,,,,,,,,,,,,,,,,267.456638825126,None,268.9561999468133,None,270.3396906219423,None,claw,270.3396906219423,None,return,1.1559224459342659,270.42322947783396,None,,,,,,,,,,,,,,,,,,,,,,,,,,,,,,,,,,,,,,,167,001,2024_Feb_26_1343,SpeechDraft1Carolyn_lessNoise_PlusLocalization,2021.2.3,60.018036626350714,
crate.wav,crate.mpg,crate,2,A,Pink_Noise_2_1.wav,Pink_Noise_2_2.wav,,,,,,,,,,,,,,,0,34,34,4,,,,,,,,,,,,,,,,,,,,,,,271.60648831678554,None,273.090703854803,None,274.47334313998,None,crate,274.47334313998,None,return,1.0144828530028462,274.55653145583346,None,,,,,,,,,,,,,,,,,,,,,,,,,,,,,,,,,,,,,,,167,001,2024_Feb_26_1343,SpeechDraft1Carolyn_lessNoise_PlusLocalization,2021.2.3,60.018036626350714,
bride.wav,bride.mpg,bride,6,A,Pink_Noise_6_1.wav,Pink_Noise_6_2.wav,,,,,,,,,,,,,,,0,35,35,48,,,,,,,,,,,,,,,,,,,,,,,275.58973990986124,None,277.0896150069311,None,278.4732544347644,None,blood,278.4732544347644,None,return,1.7825039960443974,278.5566222849302,None,,,,,,,,,,,,,,,,,,,,,,,,,,,,,,,,,,,,,,,167,001,2024_Feb_26_1343,SpeechDraft1Carolyn_lessNoise_PlusLocalization,2021.2.3,60.018036626350714,
dune.wav,dune.mpg,dune,5,AV,Pink_Noise_5_1.wav,Pink_Noise_5_2.wav,,,,,,,,,,,,,,,0,36,36,85,,,,,,,,,,,,,,,,,,,,,,,280.3564454228617,None,281.8566065011546,None,283.2399510880932,None,chew,283.2399510880932,None,return,0.9276384012773633,283.3233671467751,None,,,,,,,,,,,,,,,,,,,,,,,,,,,,,,,,,,,,,,,167,001,2024_Feb_26_1343,SpeechDraft1Carolyn_lessNoise_PlusLocalization,2021.2.3,60.018036626350714,
dirt.wav,dirt.mpg,dirt,6,AV,Pink_Noise_6_1.wav,Pink_Noise_6_2.wav,,,,,,,,,,,,,,,0,37,37,104,,,,,,,,,,,,,,,,,,,,,,,284.27335604606196,None,285.7732731238939,None,287.1564286220819,None,"church
",287.1564286220819,None,return,3.051034690346569,287.23998891795054,None,,,,,,,,,,,,,,,,,,,,,,,,,,,,,,,,,,,,,,,167,001,2024_Feb_26_1343,SpeechDraft1Carolyn_lessNoise_PlusLocalization,2021.2.3,60.018036626350714,
crypt.wav,crypt.mpg,crypt,6,AV,Pink_Noise_6_1.wav,Pink_Noise_6_2.wav,,,,,,,,,,,,,,,0,38,38,84,,,,,,,,,,,,,,,,,,,,,,,290.3231512787752,None,291.82301908312365,None,293.20663269702345,None,"strip
",293.20663269702345,None,return,2.217114668805152,293.2899283859879,None,,,,,,,,,,,,,,,,,,,,,,,,,,,,,,,,,,,,,,,167,001,2024_Feb_26_1343,SpeechDraft1Carolyn_lessNoise_PlusLocalization,2021.2.3,60.018036626350714,
file.wav,file.mpg,file,5,AV,Pink_Noise_5_1.wav,Pink_Noise_5_2.wav,,,,,,,,,,,,,,,0,39,39,92,,,,,,,,,,,,,,,,,,,,,,,295.55657925782725,None,297.05625245021656,None,298.43972155079246,None,"file
",298.43972155079246,None,return,0.967675594612956,298.5233467607759,None,,,,,,,,,,,,,,,,,,,,,,,,,,,,,,,,,,,,,,,167,001,2024_Feb_26_1343,SpeechDraft1Carolyn_lessNoise_PlusLocalization,2021.2.3,60.018036626350714,
crisp.wav,crisp.mpg,crisp,4,A,Pink_Noise_4_1.wav,Pink_Noise_4_2.wav,,,,,,,,,,,,,,,0,40,40,0,,,,,,,,,,,,,,,,,,,,,,,299.52316312212497,None,301.0228106449358,None,302.4066838999279,None,crisp,302.4066838999279,None,return,1.5449788724072278,302.4900484387763,None,,,,,,,,,,,,,,,,,,,,,,,,,,,,,,,,,,,,,,,167,001,2024_Feb_26_1343,SpeechDraft1Carolyn_lessNoise_PlusLocalization,2021.2.3,60.018036626350714,
bet.wav,bet.mpg,bet,2,A,Pink_Noise_2_1.wav,Pink_Noise_2_2.wav,,,,,,,,,,,,,,,0,41,41,57,,,,,,,,,,,,,,,,,,,,,,,304.05675595486537,None,305.55661735497415,None,306.9398692501709,None,bat,306.9398692501709,None,return,1.227612879127264,307.0234032040462,None,,,,,,,,,,,,,,,,,,,,,,,,,,,,,,,,,,,,,,,167,001,2024_Feb_26_1343,SpeechDraft1Carolyn_lessNoise_PlusLocalization,2021.2.3,60.018036626350714,
bun.wav,bun.mpg,bun,1,AV,Pink_Noise_1_1.wav,Pink_Noise_1_2.wav,,,,,,,,,,,,,,,0,42,42,64,,,,,,,,,,,,,,,,,,,,,,,308.2731054588221,None,309.77301871590316,None,311.1563334921375,None,bun,311.1563334921375,None,return,1.227092041168362,311.23991907108575,None,,,,,,,,,,,,,,,,,,,,,,,,,,,,,,,,,,,,,,,167,001,2024_Feb_26_1343,SpeechDraft1Carolyn_lessNoise_PlusLocalization,2021.2.3,60.018036626350714,
swamp.wav,swamp.mpg,swamp,5,A,Pink_Noise_5_1.wav,Pink_Noise_5_2.wav,,,,,,,,,,,,,,,0,43,43,42,,,,,,,,,,,,,,,,,,,,,,,312.4898508088663,None,313.9898256510496,None,315.3732116539031,None,"c;ph
",315.3732116539031,None,return,3.1865994837135077,315.4564297180623,None,,,,,,,,,,,,,,,,,,,,,,,,,,,,,,,,,,,,,,,167,001,2024_Feb_26_1343,SpeechDraft1Carolyn_lessNoise_PlusLocalization,2021.2.3,60.018036626350714,
born.wav,born.mpg,born,2,A,Pink_Noise_2_1.wav,Pink_Noise_2_2.wav,,,,,,,,,,,,,,,0,44,44,8,,,,,,,,,,,,,,,,,,,,,,,318.67353330086917,None,320.1729897088371,None,321.5564745939337,None,"for
",321.5564745939337,None,return,2.4189342451281846,321.6400881628506,None,,,,,,,,,,,,,,,,,,,,,,,,,,,,,,,,,,,,,,,167,001,2024_Feb_26_1343,SpeechDraft1Carolyn_lessNoise_PlusLocalization,2021.2.3,60.018036626350714,
champ.wav,champ.mpg,champ,4,AV,Pink_Noise_4_1.wav,Pink_Noise_4_2.wav,,,,,,,,,,,,,,,0,45,45,65,,,,,,,,,,,,,,,,,,,,,,,324.08981994492933,None,325.58982733497396,None,326.9734551929869,None,jen,326.9734551929869,None,return,5.338339263107628,327.05677912104875,None,,,,,,,,,,,,,,,,,,,,,,,,,,,,,,,,,,,,,,,167,001,2024_Feb_26_1343,SpeechDraft1Carolyn_lessNoise_PlusLocalization,2021.2.3,60.018036626350714,
brisk.wav,brisk.mpg,brisk,6,AV,Pink_Noise_6_1.wav,Pink_Noise_6_2.wav,,,,,,,,,,,,,,,0,46,46,93,,,,,,,,,,,,,,,,,,,,,,,332.4231187221594,None,333.92325323307887,None,335.30669046379626,None,priss,335.30669046379626,None,return,15.021123301237822,335.389919788111,None,,,,,,,,,,,,,,,,,,,,,,,,,,,,,,,,,,,,,,,167,001,2024_Feb_26_1343,SpeechDraft1Carolyn_lessNoise_PlusLocalization,2021.2.3,60.018036626350714,
book.wav,book.mpg,book,1,A,Pink_Noise_1_1.wav,Pink_Noise_1_2.wav,,,,,,,,,,,,,,,0,47,47,23,,,,,,,,,,,,,,,,,,,,,,,350.4399292077869,None,351.9397617569193,None,353.32328041410074,None,book,353.32328041410074,None,return,1.5565979592502117,353.4065447268076,None,,,,,,,,,,,,,,,,,,,,,,,,,,,,,,,,,,,,,,,167,001,2024_Feb_26_1343,SpeechDraft1Carolyn_lessNoise_PlusLocalization,2021.2.3,60.018036626350714,
chow.wav,chow.mpg,chow,2,AV,Pink_Noise_2_1.wav,Pink_Noise_2_2.wav,,,,,,,,,,,,,,,0,48,48,89,,,,,,,,,,,,,,,,,,,,,,,354.9898238060996,None,356.4895655820146,None,357.87312385998666,None,chow,357.87312385998666,None,return,1.6463569109328091,357.95671323221177,None,,,,,,,,,,,,,,,,,,,,,,,,,,,,,,,,,,,,,,,167,001,2024_Feb_26_1343,SpeechDraft1Carolyn_lessNoise_PlusLocalization,2021.2.3,60.018036626350714,
gap.wav,gap.mpg,gap,6,A,Pink_Noise_6_1.wav,Pink_Noise_6_2.wav,,,,,,,,,,,,,,,0,49,49,52,,,,,,,,,,,,,,,,,,,,,,,359.6233869371936,None,361.1230579940602,None,362.50673692207783,None,"walk
",362.50673692207783,None,return,1.5011156359687448,362.58990725921467,None,,,,,,,,,,,,,,,,,,,,,,,,,,,,,,,,,,,,,,,167,001,2024_Feb_26_1343,SpeechDraft1Carolyn_lessNoise_PlusLocalization,2021.2.3,60.018036626350714,
dot.wav,dot.mpg,dot,5,A,Pink_Noise_5_1.wav,Pink_Noise_5_2.wav,,,,,,,,,,,,,,,0,50,50,30,,,,,,,,,,,,,,,,,,,,,,,364.1232238658704,None,365.62322711292654,None,367.00648462120444,None,dot,367.00648462120444,None,return,1.8250363552942872,367.0899682510644,None,,,,,,,,,,,,,,,,,,,,,,,,,,,,,,,,,,,,,,,167,001,2024_Feb_26_1343,SpeechDraft1Carolyn_lessNoise_PlusLocalization,2021.2.3,60.018036626350714,
fake.wav,fake.mpg,fake,2,A,Pink_Noise_2_1.wav,Pink_Noise_2_2.wav,,,,,,,,,,,,,,,0,51,51,32,,,,,,,,,,,,,,,,,,,,,,,368.9399545378983,None,370.4397918661125,None,371.82344917207956,None,fake,371.82344917207956,None,return,1.5443497481755912,371.9066823720932,None,,,,,,,,,,,,,,,,,,,,,,,,,,,,,,,,,,,,,,,167,001,2024_Feb_26_1343,SpeechDraft1Carolyn_lessNoise_PlusLocalization,2021.2.3,60.018036626350714,
flaw.wav,flaw.mpg,flaw,2,AV,Pink_Noise_2_1.wav,Pink_Noise_2_2.wav,,,,,,,,,,,,,,,0,52,52,70,,,,,,,,,,,,,,,,,,,,,,,373.4733276241459,None,374.97290044184774,None,376.35655474709347,None,"flaw
",376.35655474709347,None,return,1.4511703890748322,376.4398555988446,None,,,,,,,,,,,,,,,,,,,,,,,,,,,,,,,,,,,,,,,167,001,2024_Feb_26_1343,SpeechDraft1Carolyn_lessNoise_PlusLocalization,2021.2.3,60.018036626350714,
fond.wav,fond.mpg,fond,2,A,Pink_Noise_2_1.wav,Pink_Noise_2_2.wav,,,,,,,,,,,,,,,0,53,53,27,,,,,,,,,,,,,,,,,,,,,,,377.9235413190909,None,379.43971267389134,None,380.82319359108806,None,found,380.82319359108806,None,return,3.224204490892589,380.906862589065,None,,,,,,,,,,,,,,,,,,,,,,,,,,,,,,,,,,,,,,,167,001,2024_Feb_26_1343,SpeechDraft1Carolyn_lessNoise_PlusLocalization,2021.2.3,60.018036626350714,
grape.wav,grape.mpg,grape,2,A,Pink_Noise_2_1.wav,Pink_Noise_2_2.wav,,,,,,,,,,,,,,,0,54,54,34,,,,,,,,,,,,,,,,,,,,,,,384.15671608783305,None,385.6562837040983,None,387.0402544410899,None,grape,387.0402544410899,None,return,1.7278107781894505,387.12323130387813,None,,,,,,,,,,,,,,,,,,,,,,,,,,,,,,,,,,,,,,,167,001,2024_Feb_26_1343,SpeechDraft1Carolyn_lessNoise_PlusLocalization,2021.2.3,60.018036626350714,
flirt.wav,flirt.mpg,flirt,2,AV,Pink_Noise_2_1.wav,Pink_Noise_2_2.wav,,,,,,,,,,,,,,,0,55,55,107,,,,,,,,,,,,,,,,,,,,,,,388.8733567809686,None,390.3730075061321,None,391.7564191739075,None, flirt,391.7564191739075,None,return,1.3071768479421735,391.8399208658375,None,,,,,,,,,,,,,,,,,,,,,,,,,,,,,,,,,,,,,,,167,001,2024_Feb_26_1343,SpeechDraft1Carolyn_lessNoise_PlusLocalization,2021.2.3,60.018036626350714,
fill.wav,fill.mpg,fill,3,A,Pink_Noise_3_1.wav,Pink_Noise_3_2.wav,,,,,,,,,,,,,,,0,56,56,45,,,,,,,,,,,,,,,,,,,,,,,393.1731612738222,None,394.6729183578864,None,396.0565593340434,None,fill,396.0565593340434,None,return,1.3831089921295643,396.1399581138976,None,,,,,,,,,,,,,,,,,,,,,,,,,,,,,,,,,,,,,,,167,001,2024_Feb_26_1343,SpeechDraft1Carolyn_lessNoise_PlusLocalization,2021.2.3,60.018036626350714,
gust.wav,gust.mpg,gust,5,AV,Pink_Noise_5_1.wav,Pink_Noise_5_2.wav,,,,,,,,,,,,,,,0,57,57,103,,,,,,,,,,,,,,,,,,,,,,,397.53987142210826,None,399.03989630704746,None,400.4232042231597,None,"gust
",400.4232042231597,None,return,5.400101741310209,400.50691821519285,None,,,,,,,,,,,,,,,,,,,,,,,,,,,,,,,,,,,,,,,167,001,2024_Feb_26_1343,SpeechDraft1Carolyn_lessNoise_PlusLocalization,2021.2.3,60.018036626350714,
faith.wav,faith.mpg,faith,6,AV,Pink_Noise_6_1.wav,Pink_Noise_6_2.wav,,,,,,,,,,,,,,,0,58,58,102,,,,,,,,,,,,,,,,,,,,,,,405.9401852558367,None,407.4729509479366,None,408.8565583191812,None,faith,408.8565583191812,None,return,1.7992160930298269,408.9398661018349,None,,,,,,,,,,,,,,,,,,,,,,,,,,,,,,,,,,,,,,,167,001,2024_Feb_26_1343,SpeechDraft1Carolyn_lessNoise_PlusLocalization,2021.2.3,60.018036626350714,
eye.wav,eye.mpg,eye,2,AV,Pink_Noise_2_1.wav,Pink_Noise_2_2.wav,,,,,,,,,,,,,,,0,59,59,75,,,,,,,,,,,,,,,,,,,,,,,410.75691501703113,None,412.2568789711222,None,413.6398519030772,None,eye,413.6398519030772,None,return,1.4317467017099261,413.7233314057812,None,,,,,,,,,,,,,,,,,,,,,,,,,,,,,,,,,,,,,,,167,001,2024_Feb_26_1343,SpeechDraft1Carolyn_lessNoise_PlusLocalization,2021.2.3,60.018036626350714,
floor.wav,floor.mpg,floor,6,AV,Pink_Noise_6_1.wav,Pink_Noise_6_2.wav,,,,,,,,,,,,,,,0,60,60,94,,,,,,,,,,,,,,,,,,,,,,,415.1732519939542,None,416.6898643961176,None,418.07317679701373,None,for,418.07317679701373,None,return,1.8462510872632265,418.156807098072,None,,,,,,,,,,,,,,,,,,,,,,,,,,,,,,,,,,,,,,,167,001,2024_Feb_26_1343,SpeechDraft1Carolyn_lessNoise_PlusLocalization,2021.2.3,60.018036626350714,
jeep.wav,jeep.mpg,jeep,5,A,Pink_Noise_5_1.wav,Pink_Noise_5_2.wav,,,,,,,,,,,,,,,0,61,61,13,,,,,,,,,,,,,,,,,,,,,,,420.02330890484154,None,421.5232916800305,None,422.9066106840037,None,"cheese
",422.9066106840037,None,return,1.4529984509572387,422.9900326090865,None,,,,,,,,,,,,,,,,,,,,,,,,,,,,,,,,,,,,,,,167,001,2024_Feb_26_1343,SpeechDraft1Carolyn_lessNoise_PlusLocalization,2021.2.3,60.018036626350714,
blind.wav,blind.mpg,blind,4,A,Pink_Noise_4_1.wav,Pink_Noise_4_2.wav,,,,,,,,,,,,,,,0,62,62,28,,,,,,,,,,,,,,,,,,,,,,,424.4733031918295,None,425.98984668496996,None,427.37323021516204,None,flood,427.37323021516204,None,return,1.274368415120989,427.45663639483973,None,,,,,,,,,,,,,,,,,,,,,,,,,,,,,,,,,,,,,,,167,001,2024_Feb_26_1343,SpeechDraft1Carolyn_lessNoise_PlusLocalization,2021.2.3,60.018036626350714,
three.wav,three.mpg,three,3,AV,Pink_Noise_3_1.wav,Pink_Noise_3_2.wav,,,,,,,,,,,,,,,0,63,63,106,,,,,,,,,,,,,,,,,,,,,,,428.75667241821066,None,430.256264755968,None,431.640047616791,None,three,431.640047616791,None,return,1.4237303771078587,431.7233723178506,None,,,,,,,,,,,,,,,,,,,,,,,,,,,,,,,,,,,,,,,167,001,2024_Feb_26_1343,SpeechDraft1Carolyn_lessNoise_PlusLocalization,2021.2.3,60.018036626350714,
deck.wav,deck.mpg,deck,1,A,Pink_Noise_1_1.wav,Pink_Noise_1_2.wav,,,,,,,,,,,,,,,0,64,64,19,,,,,,,,,,,,,,,,,,,,,,,433.1735007232055,None,434.67314807605,None,436.05698478221893,None,deck,436.05698478221893,None,return,1.0230099027976394,436.14014489902183,None,,,,,,,,,,,,,,,,,,,,,,,,,,,,,,,,,,,,,,,167,001,2024_Feb_26_1343,SpeechDraft1Carolyn_lessNoise_PlusLocalization,2021.2.3,60.018036626350714,
gun.wav,gun.mpg,gun,2,A,Pink_Noise_2_1.wav,Pink_Noise_2_2.wav,,,,,,,,,,,,,,,0,65,65,44,,,,,,,,,,,,,,,,,,,,,,,437.1900042388588,None,438.69110493082553,None,440.0735264341347,None,"gun
",440.0735264341347,None,return,7.718258116859943,440.15676206117496,None,,,,,,,,,,,,,,,,,,,,,,,,,,,,,,,,,,,,,,,167,001,2024_Feb_26_1343,SpeechDraft1Carolyn_lessNoise_PlusLocalization,2021.2.3,60.018036626350714,
gray.wav,gray.mpg,gray,4,A,Pink_Noise_4_1.wav,Pink_Noise_4_2.wav,,,,,,,,,,,,,,,0,66,66,51,,,,,,,,,,,,,,,,,,,,,,,447.9068109309301,None,449.4233725098893,None,450.8066784311086,None,"gray
",450.8066784311086,None,return,2.9848234471865,450.8902055849321,None,,,,,,,,,,,,,,,,,,,,,,,,,,,,,,,,,,,,,,,167,001,2024_Feb_26_1343,SpeechDraft1Carolyn_lessNoise_PlusLocalization,2021.2.3,60.018036626350714,
dad.wav,dad.mpg,dad,1,A,Pink_Noise_1_1.wav,Pink_Noise_1_2.wav,,,,,,,,,,,,,,,0,67,67,1,,,,,,,,,,,,,,,,,,,,,,,453.9068637927994,None,455.4063169131987,None,456.7901007141918,None,dad,456.7901007141918,None,return,0.8094529518857598,456.8736543720588,None,,,,,,,,,,,,,,,,,,,,,,,,,,,,,,,,,,,,,,,167,001,2024_Feb_26_1343,SpeechDraft1Carolyn_lessNoise_PlusLocalization,2021.2.3,60.018036626350714,
chump.wav,chump.mpg,chump,6,A,Pink_Noise_6_1.wav,Pink_Noise_6_2.wav,,,,,,,,,,,,,,,0,68,68,53,,,,,,,,,,,,,,,,,,,,,,,457.7067632251419,None,459.2230295278132,None,460.6067155757919,None,"chess
",460.6067155757919,None,return,1.2010039808228612,460.69001518609,None,,,,,,,,,,,,,,,,,,,,,,,,,,,,,,,,,,,,,,,167,001,2024_Feb_26_1343,SpeechDraft1Carolyn_lessNoise_PlusLocalization,2021.2.3,60.018036626350714,
frog.wav,frog.mpg,frog,5,AV,Pink_Noise_5_1.wav,Pink_Noise_5_2.wav,,,,,,,,,,,,,,,0,69,69,88,,,,,,,,,,,,,,,,,,,,,,,461.92350712418556,None,463.42299485299736,None,464.80662506911904,None,"fog
",464.80662506911904,None,return,1.985020340885967,464.8899886519648,None,,,,,,,,,,,,,,,,,,,,,,,,,,,,,,,,,,,,,,,167,001,2024_Feb_26_1343,SpeechDraft1Carolyn_lessNoise_PlusLocalization,2021.2.3,60.018036626350714,
goat.wav,goat.mpg,goat,3,A,Pink_Noise_3_1.wav,Pink_Noise_3_2.wav,,,,,,,,,,,,,,,0,70,70,58,,,,,,,,,,,,,,,,,,,,,,,466.9067740351893,None,468.4065277208574,None,469.7901000007987,None,goat,469.7901000007987,None,return,8.75341195706278,469.87361131282523,None,,,,,,,,,,,,,,,,,,,,,,,,,,,,,,,,,,,,,,,167,001,2024_Feb_26_1343,SpeechDraft1Carolyn_lessNoise_PlusLocalization,2021.2.3,60.018036626350714,
cloud.wav,cloud.mpg,cloud,3,AV,Pink_Noise_3_1.wav,Pink_Noise_3_2.wav,,,,,,,,,,,,,,,0,71,71,110,,,,,,,,,,,,,,,,,,,,,,,478.6566980648786,None,480.1566072679125,None,481.54012898588553,None,cloud,481.54012898588553,None,return,4.363494884222746,481.623591714073,None,,,,,,,,,,,,,,,,,,,,,,,,,,,,,,,,,,,,,,,167,001,2024_Feb_26_1343,SpeechDraft1Carolyn_lessNoise_PlusLocalization,2021.2.3,60.018036626350714,
box.wav,box.mpg,box,1,A,Pink_Noise_1_1.wav,Pink_Noise_1_2.wav,,,,,,,,,,,,,,,0,72,72,9,,,,,,,,,,,,,,,,,,,,,,,486.00670030293986,None,487.52300940593705,None,488.90667996509,None,box,488.90667996509,None,return,2.2929277010262012,488.9900862700306,None,,,,,,,,,,,,,,,,,,,,,,,,,,,,,,,,,,,,,,,167,001,2024_Feb_26_1343,SpeechDraft1Carolyn_lessNoise_PlusLocalization,2021.2.3,60.018036626350714,
axe.wav,axe.mpg,axe,6,A,Pink_Noise_6_1.wav,Pink_Noise_6_2.wav,,,,,,,,,,,,,,,0,73,73,37,,,,,,,,,,,,,,,,,,,,,,,491.3066889429465,None,492.82322975900024,None,494.20673076296225,None,onve,494.20673076296225,None,return,7.073180966079235,494.2899440070614,None,,,,,,,,,,,,,,,,,,,,,,,,,,,,,,,,,,,,,,,167,001,2024_Feb_26_1343,SpeechDraft1Carolyn_lessNoise_PlusLocalization,2021.2.3,60.018036626350714,
game.wav,game.mpg,game,6,AV,Pink_Noise_6_1.wav,Pink_Noise_6_2.wav,,,,,,,,,,,,,,,0,74,74,77,,,,,,,,,,,,,,,,,,,,,,,501.39021183690056,None,502.8898413181305,None,504.27337586088106,None,"ga,e",504.27337586088106,None,return,1.406379937659949,504.3567075962201,None,,,,,,,,,,,,,,,,,,,,,,,,,,,,,,,,,,,,,,,167,001,2024_Feb_26_1343,SpeechDraft1Carolyn_lessNoise_PlusLocalization,2021.2.3,60.018036626350714,
block.wav,block.mpg,block,1,AV,Pink_Noise_1_1.wav,Pink_Noise_1_2.wav,,,,,,,,,,,,,,,0,75,75,71,,,,,,,,,,,,,,,,,,,,,,,505.79033107915893,None,507.2897828561254,None,508.6735934410244,None,"block\
",508.6735934410244,None,return,9.053999814204872,508.7570218248293,None,,,,,,,,,,,,,,,,,,,,,,,,,,,,,,,,,,,,,,,167,001,2024_Feb_26_1343,SpeechDraft1Carolyn_lessNoise_PlusLocalization,2021.2.3,60.018036626350714,
gas.wav,gas.mpg,gas,3,AV,Pink_Noise_3_1.wav,Pink_Noise_3_2.wav,,,,,,,,,,,,,,,0,76,76,60,,,,,,,,,,,,,,,,,,,,,,,517.8402502480894,None,519.3566124271601,None,520.740086378064,None,"das
",520.740086378064,None,return,5.603635903913528,520.8233915530145,None,,,,,,,,,,,,,,,,,,,,,,,,,,,,,,,,,,,,,,,167,001,2024_Feb_26_1343,SpeechDraft1Carolyn_lessNoise_PlusLocalization,2021.2.3,60.018036626350714,
pipe.wav,pipe.mpg,pipe,2,AV,Pink_Noise_2_1.wav,Pink_Noise_2_2.wav,,,,,,,,,,,,,,,0,77,77,72,,,,,,,,,,,,,,,,,,,,,,,526.4570474540815,None,527.9565494498238,None,529.3410595031455,None,"pipe
",529.3410595031455,None,return,3.883493539877236,529.4235316081904,None,,,,,,,,,,,,,,,,,,,,,,,,,,,,,,,,,,,,,,,167,001,2024_Feb_26_1343,SpeechDraft1Carolyn_lessNoise_PlusLocalization,2021.2.3,60.018036626350714,
feast.wav,feast.mpg,feast,6,A,Pink_Noise_6_1.wav,Pink_Noise_6_2.wav,,,,,,,,,,,,,,,0,78,78,43,,,,,,,,,,,,,,,,,,,,,,,533.3401050511748,None,534.8398414361291,None,536.2234167419374,None,idk,536.2234167419374,None,return,1.9601310049183667,536.306879256852,None,,,,,,,,,,,,,,,,,,,,,,,,,,,,,,,,,,,,,,,167,001,2024_Feb_26_1343,SpeechDraft1Carolyn_lessNoise_PlusLocalization,2021.2.3,60.018036626350714,
blob.wav,blob.mpg,blob,3,A,Pink_Noise_3_1.wav,Pink_Noise_3_2.wav,,,,,,,,,,,,,,,0,79,79,56,,,,,,,,,,,,,,,,,,,,,,,538.2900743740611,None,539.8064961098135,None,541.1904429369606,None,flog,541.1904429369606,None,return,1.4656288102269173,541.2734886389226,None,,,,,,,,,,,,,,,,,,,,,,,,,,,,,,,,,,,,,,,167,001,2024_Feb_26_1343,SpeechDraft1Carolyn_lessNoise_PlusLocalization,2021.2.3,60.018036626350714,
tart.wav,tart.mpg,tart,3,A,Pink_Noise_3_1.wav,Pink_Noise_3_2.wav,,,,,,,,,,,,,,,0,80,80,33,,,,,,,,,,,,,,,,,,,,,,,542.7570647839457,None,544.2731919852085,None,545.6568744881079,None,tart,545.6568744881079,None,return,1.5990576660260558,545.740104928147,None,,,,,,,,,,,,,,,,,,,,,,,,,,,,,,,,,,,,,,,167,001,2024_Feb_26_1343,SpeechDraft1Carolyn_lessNoise_PlusLocalization,2021.2.3,60.018036626350714,
flick.wav,flick.mpg,flick,2,A,Pink_Noise_2_1.wav,Pink_Noise_2_2.wav,,,,,,,,,,,,,,,0,81,81,18,,,,,,,,,,,,,,,,,,,,,,,547.3570476160385,None,548.8731768229045,None,550.2568378928117,None,flick,550.2568378928117,None,return,2.5108581418171525,550.3401708141901,None,,,,,,,,,,,,,,,,,,,,,,,,,,,,,,,,,,,,,,,167,001,2024_Feb_26_1343,SpeechDraft1Carolyn_lessNoise_PlusLocalization,2021.2.3,60.018036626350714,
clutch.wav,clutch.mpg,clutch,1,AV,Pink_Noise_1_1.wav,Pink_Noise_1_2.wav,,,,,,,,,,,,,,,0,82,82,114,,,,,,,,,,,,,,,,,,,,,,,552.8735527452081,None,554.3902442809194,None,555.7733791670762,None,clutch,555.7733791670762,None,return,3.1780818309634924,555.8569210851565,None,,,,,,,,,,,,,,,,,,,,,,,,,,,,,,,,,,,,,,,167,001,2024_Feb_26_1343,SpeechDraft1Carolyn_lessNoise_PlusLocalization,2021.2.3,60.018036626350714,
toast.wav,toast.mpg,toast,1,AV,Pink_Noise_1_1.wav,Pink_Noise_1_2.wav,,,,,,,,,,,,,,,0,83,83,113,,,,,,,,,,,,,,,,,,,,,,,559.0570114278235,None,560.5572535768151,None,561.9401369770057,None,toast,561.9401369770057,None,return,3.307323263026774,562.023719154764,None,,,,,,,,,,,,,,,,,,,,,,,,,,,,,,,,,,,,,,,167,001,2024_Feb_26_1343,SpeechDraft1Carolyn_lessNoise_PlusLocalization,2021.2.3,60.018036626350714,
oats.wav,oats.mpg,oats,1,A,Pink_Noise_1_1.wav,Pink_Noise_1_2.wav,,,,,,,,,,,,,,,0,84,84,17,,,,,,,,,,,,,,,,,,,,,,,565.3568197628483,None,566.8564300830476,None,568.2403605268337,None,"oats
",568.2403605268337,None,return,8.167454430833459,568.3235645079985,None,,,,,,,,,,,,,,,,,,,,,,,,,,,,,,,,,,,,,,,167,001,2024_Feb_26_1343,SpeechDraft1Carolyn_lessNoise_PlusLocalization,2021.2.3,60.018036626350714,
budge.wav,budge.mpg,budge,4,AV,Pink_Noise_4_1.wav,Pink_Noise_4_2.wav,,,,,,,,,,,,,,,0,85,85,66,,,,,,,,,,,,,,,,,,,,,,,576.5236578779295,None,578.0398408737965,None,579.4234941219911,None,budge,579.4234941219911,None,return,4.888138129841536,579.5068871690892,None,,,,,,,,,,,,,,,,,,,,,,,,,,,,,,,,,,,,,,,167,001,2024_Feb_26_1343,SpeechDraft1Carolyn_lessNoise_PlusLocalization,2021.2.3,60.018036626350714,
chalk.wav,chalk.mpg,chalk,4,AV,Pink_Noise_4_1.wav,Pink_Noise_4_2.wav,,,,,,,,,,,,,,,0,86,86,98,,,,,,,,,,,,,,,,,,,,,,,584.4235225641169,None,585.9235186371952,None,587.3067237730138,None,chalk,587.3067237730138,None,return,4.292789713013917,587.3902142168954,None,,,,,,,,,,,,,,,,,,,,,,,,,,,,,,,,,,,,,,,167,001,2024_Feb_26_1343,SpeechDraft1Carolyn_lessNoise_PlusLocalization,2021.2.3,60.018036626350714,
boil.wav,boil.mpg,boil,5,A,Pink_Noise_5_1.wav,Pink_Noise_5_2.wav,,,,,,,,,,,,,,,0,87,87,35,,,,,,,,,,,,,,,,,,,,,,,591.7068955129944,None,593.2235592701472,None,594.6070936541073,None,"forge
",594.6070936541073,None,return,3.2166104819625616,594.6903993468732,None,,,,,,,,,,,,,,,,,,,,,,,,,,,,,,,,,,,,,,,167,001,2024_Feb_26_1343,SpeechDraft1Carolyn_lessNoise_PlusLocalization,2021.2.3,60.018036626350714,
cheek.wav,cheek.mpg,cheek,6,A,Pink_Noise_6_1.wav,Pink_Noise_6_2.wav,,,,,,,,,,,,,,,0,88,88,22,,,,,,,,,,,,,,,,,,,,,,,597.9403660600074,None,599.4568300591782,None,600.8401417708956,None,chain,600.8401417708956,None,return,3.5262528378516436,600.924763225019,None,,,,,,,,,,,,,,,,,,,,,,,,,,,,,,,,,,,,,,,167,001,2024_Feb_26_1343,SpeechDraft1Carolyn_lessNoise_PlusLocalization,2021.2.3,60.018036626350714,
bring.wav,bring.mpg,bring,5,AV,Pink_Noise_5_1.wav,Pink_Noise_5_2.wav,,,,,,,,,,,,,,,0,89,89,73,,,,,,,,,,,,,,,,,,,,,,,604.4737307638861,None,605.9742122339085,None,607.3568318728358,None,brim,607.3568318728358,None,return,2.706582013051957,607.440524615813,None,,,,,,,,,,,,,,,,,,,,,,,,,,,,,,,,,,,,,,,167,001,2024_Feb_26_1343,SpeechDraft1Carolyn_lessNoise_PlusLocalization,2021.2.3,60.018036626350714,
flip.wav,flip.mpg,flip,6,AV,Pink_Noise_6_1.wav,Pink_Noise_6_2.wav,,,,,,,,,,,,,,,0,90,90,97,,,,,,,,,,,,,,,,,,,,,,,610.173573249951,None,611.6733602909371,None,613.0569166848436,None,flip,613.0569166848436,None,return,2.158562975935638,613.1404740209691,None,,,,,,,,,,,,,,,,,,,,,,,,,,,,,,,,,,,,,,,167,001,2024_Feb_26_1343,SpeechDraft1Carolyn_lessNoise_PlusLocalization,2021.2.3,60.018036626350714,
nine.wav,nine.mpg,nine,1,A,Pink_Noise_1_1.wav,Pink_Noise_1_2.wav,,,,,,,,,,,,,,,0,91,91,46,,,,,,,,,,,,,,,,,,,,,,,615.3237474397756,None,616.8398400829174,None,618.2235284689814,None,nine,618.2235284689814,None,return,9.823556334711611,618.3075052788481,None,,,,,,,,,,,,,,,,,,,,,,,,,,,,,,,,,,,,,,,167,001,2024_Feb_26_1343,SpeechDraft1Carolyn_lessNoise_PlusLocalization,2021.2.3,60.018036626350714,
ditch.wav,ditch.mpg,ditch,3,A,Pink_Noise_3_1.wav,Pink_Noise_3_2.wav,,,,,,,,,,,,,,,0,92,92,38,,,,,,,,,,,,,,,,,,,,,,,628.1568700741045,None,629.6732815820724,None,631.057258836925,None,ditch,631.057258836925,None,return,6.542597267311066,631.1404055138119,None,,,,,,,,,,,,,,,,,,,,,,,,,,,,,,,,,,,,,,,167,001,2024_Feb_26_1343,SpeechDraft1Carolyn_lessNoise_PlusLocalization,2021.2.3,60.018036626350714,
creep.wav,creep.mpg,creep,4,AV,Pink_Noise_4_1.wav,Pink_Noise_4_2.wav,,,,,,,,,,,,,,,0,93,93,69,,,,,,,,,,,,,,,,,,,,,,,637.7070665759966,None,639.2401006170548,None,640.6235392689705,None,creep,640.6235392689705,None,return,3.600104993209243,640.7069522370584,None,,,,,,,,,,,,,,,,,,,,,,,,,,,,,,,,,,,,,,,167,001,2024_Feb_26_1343,SpeechDraft1Carolyn_lessNoise_PlusLocalization,2021.2.3,60.018036626350714,
cape.wav,cape.mpg,cape,1,AV,Pink_Noise_1_1.wav,Pink_Noise_1_2.wav,,,,,,,,,,,,,,,0,94,94,80,,,,,,,,,,,,,,,,,,,,,,,644.3235335461795,None,645.8240617401898,None,647.2068965150975,None,capw,647.2068965150975,None,return,3.824689849745482,647.290338404011,None,,,,,,,,,,,,,,,,,,,,,,,,,,,,,,,,,,,,,,,167,001,2024_Feb_26_1343,SpeechDraft1Carolyn_lessNoise_PlusLocalization,2021.2.3,60.018036626350714,
count.wav,count.mpg,count,4,A,Pink_Noise_4_1.wav,Pink_Noise_4_2.wav,,,,,,,,,,,,,,,0,95,95,59,,,,,,,,,,,,,,,,,,,,,,,651.1403032140806,None,652.6735472017899,None,654.0569510539062,None,"tote
",654.0569510539062,None,return,4.918795647099614,654.1402341960929,None,,,,,,,,,,,,,,,,,,,,,,,,,,,,,,,,,,,,,,,167,001,2024_Feb_26_1343,SpeechDraft1Carolyn_lessNoise_PlusLocalization,2021.2.3,60.018036626350714,
fifth.wav,fifth.mpg,fifth,6,A,Pink_Noise_6_1.wav,Pink_Noise_6_2.wav,,,,,,,,,,,,,,,0,96,96,54,,,,,,,,,,,,,,,,,,,,,,,659.0902765500359,None,660.6066736332141,None,661.9901760108769,None,shake,661.9901760108769,None,return,2.4972324641421437,662.0738068302162,None,,,,,,,,,,,,,,,,,,,,,,,,,,,,,,,,,,,,,,,167,001,2024_Feb_26_1343,SpeechDraft1Carolyn_lessNoise_PlusLocalization,2021.2.3,60.018036626350714,
mold.wav,mold.mpg,mold,4,A,Pink_Noise_4_1.wav,Pink_Noise_4_2.wav,,,,,,,,,,,,,,,0,97,97,50,,,,,,,,,,,,,,,,,,,,,,,664.5904725529253,None,666.1234608921222,None,667.5071791461669,None,bold,667.5071791461669,None,return,2.276511238887906,667.5904985289089,None,,,,,,,,,,,,,,,,,,,,,,,,,,,,,,,,,,,,,,,167,001,2024_Feb_26_1343,SpeechDraft1Carolyn_lessNoise_PlusLocalization,2021.2.3,60.018036626350714,
quest.wav,quest.mpg,quest,5,A,Pink_Noise_5_1.wav,Pink_Noise_5_2.wav,,,,,,,,,,,,,,,0,98,98,21,,,,,,,,,,,,,,,,,,,,,,,669.89042203594,None,671.4233049987815,None,672.806869416032,None,lust,672.806869416032,None,return,1.9604737279005349,672.8905438510701,None,,,,,,,,,,,,,,,,,,,,,,,,,,,,,,,,,,,,,,,167,001,2024_Feb_26_1343,SpeechDraft1Carolyn_lessNoise_PlusLocalization,2021.2.3,60.018036626350714,
gulp.wav,gulp.mpg,gulp,3,AV,Pink_Noise_3_1.wav,Pink_Noise_3_2.wav,,,,,,,,,,,,,,,0,99,99,61,,,,,,,,,,,,,,,,,,,,,,,674.8735839771107,None,676.3904316280968,None,677.773564204108,None,"gulp
",677.773564204108,None,return,3.4180711791850626,677.8569541908801,None,,,,,,,,,,,,,,,,,,,,,,,,,,,,,,,,,,,,,,,167,001,2024_Feb_26_1343,SpeechDraft1Carolyn_lessNoise_PlusLocalization,2021.2.3,60.018036626350714,
flex.wav,flex.mpg,flex,3,A,Pink_Noise_3_1.wav,Pink_Noise_3_2.wav,,,,,,,,,,,,,,,0,100,100,16,,,,,,,,,,,,,,,,,,,,,,,681.3069690591656,None,682.8233333518729,None,684.2071218630299,None,flex,684.2071218630299,None,return,3.0967172286473215,684.2903735470027,None,,,,,,,,,,,,,,,,,,,,,,,,,,,,,,,,,,,,,,,167,001,2024_Feb_26_1343,SpeechDraft1Carolyn_lessNoise_PlusLocalization,2021.2.3,60.018036626350714,
gag.wav,gag.mpg,gag,6,A,Pink_Noise_6_1.wav,Pink_Noise_6_2.wav,,,,,,,,,,,,,,,0,101,101,20,,,,,,,,,,,,,,,,,,,,,,,687.4070715149865,None,688.9067412880249,None,690.2906954260543,None,"nud
",690.2906954260543,None,return,5.885280753020197,690.3737554037943,None,,,,,,,,,,,,,,,,,,,,,,,,,,,,,,,,,,,,,,,167,001,2024_Feb_26_1343,SpeechDraft1Carolyn_lessNoise_PlusLocalization,2021.2.3,60.018036626350714,
gab.wav,gab.mpg,gab,3,A,Pink_Noise_3_1.wav,Pink_Noise_3_2.wav,,,,,,,,,,,,,,,0,102,102,14,,,,,,,,,,,,,,,,,,,,,,,696.2906082468107,None,697.8066617990844,None,699.1903848061338,None,"gab
",699.1903848061338,None,return,4.201168214902282,699.2738542468287,None,,,,,,,,,,,,,,,,,,,,,,,,,,,,,,,,,,,,,,,167,001,2024_Feb_26_1343,SpeechDraft1Carolyn_lessNoise_PlusLocalization,2021.2.3,60.018036626350714,
dark.wav,dark.mpg,dark,3,AV,Pink_Noise_3_1.wav,Pink_Noise_3_2.wav,,,,,,,,,,,,,,,0,103,103,68,,,,,,,,,,,,,,,,,,,,,,,703.5070320009254,None,705.0404599369504,None,706.4236841290258,None,dark,706.4236841290258,None,return,4.088047196157277,706.5069604851305,None,,,,,,,,,,,,,,,,,,,,,,,,,,,,,,,,,,,,,,,167,001,2024_Feb_26_1343,SpeechDraft1Carolyn_lessNoise_PlusLocalization,2021.2.3,60.018036626350714,
unit.wav,unit.mpg,unit,5,A,Pink_Noise_5_1.wav,Pink_Noise_5_2.wav,,,,,,,,,,,,,,,0,104,104,12,,,,,,,,,,,,,,,,,,,,,,,710.62379912287,None,712.1569129130803,None,713.5405220747925,None,"it
",713.5405220747925,None,return,7.63522326387465,713.6238145860843,None,,,,,,,,,,,,,,,,,,,,,,,,,,,,,,,,,,,,,,,167,001,2024_Feb_26_1343,SpeechDraft1Carolyn_lessNoise_PlusLocalization,2021.2.3,60.018036626350714,
lost.wav,lost.mpg,lost,2,AV,Pink_Noise_2_1.wav,Pink_Noise_2_2.wav,,,,,,,,,,,,,,,0,105,105,79,,,,,,,,,,,,,,,,,,,,,,,721.2904315199703,None,722.823496452067,None,724.2071862458251,None,lost,724.2071862458251,None,return,4.4163816389627755,724.2907313690521,None,,,,,,,,,,,,,,,,,,,,,,,,,,,,,,,,,,,,,,,167,001,2024_Feb_26_1343,SpeechDraft1Carolyn_lessNoise_PlusLocalization,2021.2.3,60.018036626350714,
flake.wav,flake.mpg,flake,5,AV,Pink_Noise_5_1.wav,Pink_Noise_5_2.wav,,,,,,,,,,,,,,,0,106,106,111,,,,,,,,,,,,,,,,,,,,,,,728.7239400651306,None,730.2404046831653,None,731.6236678808928,None,fate,731.6236678808928,None,return,2.52791377203539,731.7070903251879,None,,,,,,,,,,,,,,,,,,,,,,,,,,,,,,,,,,,,,,,167,001,2024_Feb_26_1343,SpeechDraft1Carolyn_lessNoise_PlusLocalization,2021.2.3,60.018036626350714,
dance.wav,dance.mpg,dance,4,A,Pink_Noise_4_1.wav,Pink_Noise_4_2.wav,,,,,,,,,,,,,,,0,107,107,41,,,,,,,,,,,,,,,,,,,,,,,734.2573969690129,None,735.840155437123,None,737.2237746138126,None,dance,737.2237746138126,None,return,1.6799145806580782,737.3071738891304,None,,,,,,,,,,,,,,,,,,,,,,,,,,,,,,,,,,,,,,,167,001,2024_Feb_26_1343,SpeechDraft1Carolyn_lessNoise_PlusLocalization,2021.2.3,60.018036626350714,
grail.wav,grail.mpg,grail,6,A,Pink_Noise_6_1.wav,Pink_Noise_6_2.wav,,,,,,,,,,,,,,,0,108,108,39,,,,,,,,,,,,,,,,,,,,,,,739.0073016379029,None,740.5234219557606,None,741.9070700560696,None,red,741.9070700560696,None,return,1.5326584680005908,741.9904085998423,None,,,,,,,,,,,,,,,,,,,,,,,,,,,,,,,,,,,,,,,167,001,2024_Feb_26_1343,SpeechDraft1Carolyn_lessNoise_PlusLocalization,2021.2.3,60.018036626350714,
gate.wav,gate.mpg,gate,4,AV,Pink_Noise_4_1.wav,Pink_Noise_4_2.wav,,,,,,,,,,,,,,,0,109,109,95,,,,,,,,,,,,,,,,,,,,,,,743.5403434038162,None,745.0738760810345,None,746.4571973648854,None,gant,746.4571973648854,None,return,3.7585648321546614,746.5404626568779,None,,,,,,,,,,,,,,,,,,,,,,,,,,,,,,,,,,,,,,,167,001,2024_Feb_26_1343,SpeechDraft1Carolyn_lessNoise_PlusLocalization,2021.2.3,60.018036626350714,
swan.wav,swan.mpg,swan,2,A,Pink_Noise_2_1.wav,Pink_Noise_2_2.wav,,,,,,,,,,,,,,,0,110,110,36,,,,,,,,,,,,,,,,,,,,,,,750.3240518700331,None,751.8404783909209,None,753.2238460001536,None,swerve,753.2238460001536,None,return,2.2318027187138796,753.3073156080209,None,,,,,,,,,,,,,,,,,,,,,,,,,,,,,,,,,,,,,,,167,001,2024_Feb_26_1343,SpeechDraft1Carolyn_lessNoise_PlusLocalization,2021.2.3,60.018036626350714,
flesh.wav,flesh.mpg,flesh,4,AV,Pink_Noise_4_1.wav,Pink_Noise_4_2.wav,,,,,,,,,,,,,,,0,111,111,115,,,,,,,,,,,,,,,,,,,,,,,755.5573150720447,None,757.0902810930274,None,758.4739318490028,None,flesh,758.4739318490028,None,return,2.373761110007763,758.5573109099641,None,,,,,,,,,,,,,,,,,,,,,,,,,,,,,,,,,,,,,,,167,001,2024_Feb_26_1343,SpeechDraft1Carolyn_lessNoise_PlusLocalization,2021.2.3,60.018036626350714,
flog.wav,flog.mpg,flog,3,A,Pink_Noise_3_1.wav,Pink_Noise_3_2.wav,,,,,,,,,,,,,,,0,112,112,55,,,,,,,,,,,,,,,,,,,,,,,760.9573830049485,None,762.4905830021016,None,763.8736967369914,None,flog,763.8736967369914,None,return,2.5979324569925666,763.9571163929068,None,,,,,,,,,,,,,,,,,,,,,,,,,,,,,,,,,,,,,,,167,001,2024_Feb_26_1343,SpeechDraft1Carolyn_lessNoise_PlusLocalization,2021.2.3,60.018036626350714,
drain.wav,drain.mpg,drain,2,AV,Pink_Noise_2_1.wav,Pink_Noise_2_2.wav,,,,,,,,,,,,,,,0,113,113,67,,,,,,,,,,,,,,,,,,,,,,,766.5737097021192,None,768.0903829559684,None,769.4738424350508,None,dramw,769.4738424350508,None,return,4.125873629935086,769.5571393128484,None,,,,,,,,,,,,,,,,,,,,,,,,,,,,,,,,,,,,,,,167,001,2024_Feb_26_1343,SpeechDraft1Carolyn_lessNoise_PlusLocalization,2021.2.3,60.018036626350714,
due.wav,due.mpg,due,3,AV,Pink_Noise_3_1.wav,Pink_Noise_3_2.wav,,,,,,,,,,,,,,,0,114,114,81,,,,,,,,,,,,,,,,,,,,,,,773.7071193000302,None,775.2070269449614,None,776.5904701971449,None,do,776.5904701971449,None,return,2.105175900273025,776.6739084669389,None,,,,,,,,,,,,,,,,,,,,,,,,,,,,,,,,,,,,,,,167,001,2024_Feb_26_1343,SpeechDraft1Carolyn_lessNoise_PlusLocalization,2021.2.3,60.018036626350714,
boost.wav,boost.mpg,boost,3,AV,Pink_Noise_3_1.wav,Pink_Noise_3_2.wav,,,,,,,,,,,,,,,0,115,115,78,,,,,,,,,,,,,,,,,,,,,,,778.8070893199183,None,780.3235371671617,None,781.7074899110012,None,boost,781.7074899110012,None,return,2.524703101720661,781.7904811198823,None,,,,,,,,,,,,,,,,,,,,,,,,,,,,,,,,,,,,,,,167,001,2024_Feb_26_1343,SpeechDraft1Carolyn_lessNoise_PlusLocalization,2021.2.3,60.018036626350714,
broke.wav,broke.mpg,broke,1,AV,Pink_Noise_1_1.wav,Pink_Noise_1_2.wav,,,,,,,,,,,,,,,0,116,116,62,,,,,,,,,,,,,,,,,,,,,,,784.3407446341589,None,785.857155866921,None,787.2405524039641,None,broke,787.2405524039641,None,return,1.759180920664221,787.3238300471567,None,,,,,,,,,,,,,,,,,,,,,,,,,,,,,,,,,,,,,,,167,001,2024_Feb_26_1343,SpeechDraft1Carolyn_lessNoise_PlusLocalization,2021.2.3,60.018036626350714,
tank.wav,tank.mpg,tank,4,A,Pink_Noise_4_1.wav,Pink_Noise_4_2.wav,,,,,,,,,,,,,,,0,117,117,6,,,,,,,,,,,,,,,,,,,,,,,789.1074132029898,None,790.6236047148705,None,792.0073943999596,None,"tight
",792.0073943999596,None,return,1.9525655009783804,792.0904583060183,None,,,,,,,,,,,,,,,,,,,,,,,,,,,,,,,,,,,,,,,167,001,2024_Feb_26_1343,SpeechDraft1Carolyn_lessNoise_PlusLocalization,2021.2.3,60.018036626350714,
cop.wav,cop.mpg,cop,3,AV,Pink_Noise_3_1.wav,Pink_Noise_3_2.wav,,,,,,,,,,,,,,,0,118,118,99,,,,,,,,,,,,,,,,,,,,,,,794.0741107608192,None,795.573712779209,None,796.9571130629629,None,cop,796.9571130629629,None,return,1.1302654789760709,797.0408681440167,None,,,,,,,,,,,,,,,,,,,,,,,,,,,,,,,,,,,,,,,167,001,2024_Feb_26_1343,SpeechDraft1Carolyn_lessNoise_PlusLocalization,2021.2.3,60.018036626350714,
chin.wav,chin.mpg,chin,1,AV,Pink_Noise_1_1.wav,Pink_Noise_1_2.wav,,,,,,,,,,,,,,,0,119,119,90,,,,,,,,,,,,,,,,,,,,,,,798.1903883451596,None,799.7071029520594,None,801.0904619521461,None,"chin
",801.0904619521461,None,return,4.8850949248299,801.1739372308366,None,,,,,,,,,,,,,,,,,,,,,,,,,,,,,,,,,,,,,,,167,001,2024_Feb_26_1343,SpeechDraft1Carolyn_lessNoise_PlusLocalization,2021.2.3,60.018036626350714,
,,,,,,,,,,,,,,,,,,,,,,,,,,,,,,,,,,,,,,,,,,,,,,,,,,,,,,,,,,,,,,,,,,space,16.045259954873472,806.1738011678681,None,,,,,,,,,,,,,,,,,,,,,,,,,,,,,167,001,2024_Feb_26_1343,SpeechDraft1Carolyn_lessNoise_PlusLocalization,2021.2.3,60.018036626350714,
,,,,,,,,center,0.0,6,ch1Sound_localizationTask.wav,0.0,"(952, 878)","(-8,-202)",0,-338,,,,,,,,,0,0,0,3,,,,,,,,,,,,,,,,,,,,,,,,,,,,,,,,,,,,,,,,,,806.1738011678681,None,822.2570659229532,None,823.3744039251469,None,824.3072134940885,None,1.3947089947089948,3.013102929107845,824.3072134940885,None,,,,,,,,,,,,,,,,,167,001,2024_Feb_26_1343,SpeechDraft1Carolyn_lessNoise_PlusLocalization,2021.2.3,60.018036626350714,
,,,,,,,,midRight,13.0,3,ch1Sound_localizationTask.wav,13.0,"(1142, 878)","(182, -202)",190,-338,,,,,,,,,0,1,1,5,,,,,,,,,,,,,,,,,,,,,,,,,,,,,,,,,,,,,,,,,,,,827.3240856300108,None,828.4239512351342,None,829.3570991470478,None,1.5338624338624338,0.7304903571493924,829.3570991470478,None,,,,,,,,,,,,,,,,,167,001,2024_Feb_26_1343,SpeechDraft1Carolyn_lessNoise_PlusLocalization,2021.2.3,60.018036626350714,
,,,,,,,,midLeft,-13.0,2,ch1Sound_localizationTask.wav,-13.0,"(762, 878)","(-198,-202)",-190,-338,,,,,,,,,0,2,2,1,,,,,,,,,,,,,,,,,,,,,,,,,,,,,,,,,,,,,,,,,,,,830.1074005048722,None,831.2068462758325,None,832.140410698019,None,1.3746031746031746,0.9502812828868628,832.140410698019,None,,,,,,,,,,,,,,,,,167,001,2024_Feb_26_1343,SpeechDraft1Carolyn_lessNoise_PlusLocalization,2021.2.3,60.018036626350714,
,,,,,,,,nearLeft,-6.5,1,ch1Sound_localizationTask.wav,-6.5,"(857, 878)","(-103,-202)",-95,-338,,,,,,,,,0,3,3,2,,,,,,,,,,,,,,,,,,,,,,,,,,,,,,,,,,,,,,,,,,,,833.1072564600036,None,834.2069893041626,None,835.1406115088612,None,1.41005291005291,0.5186800556257367,835.1406115088612,None,,,,,,,,,,,,,,,,,167,001,2024_Feb_26_1343,SpeechDraft1Carolyn_lessNoise_PlusLocalization,2021.2.3,60.018036626350714,
,,,,,,,,nearRight,6.5,0,ch1Sound_localizationTask.wav,6.5,"(1047, 878)","(87, -202)",95,-338,,,,,,,,,0,4,4,4,,,,,,,,,,,,,,,,,,,,,,,,,,,,,,,,,,,,,,,,,,,,835.6737932329997,None,836.7736564129591,None,837.7069917498156,None,1.535978835978836,1.5843308907933533,837.7069917498156,None,,,,,,,,,,,,,,,,,167,001,2024_Feb_26_1343,SpeechDraft1Carolyn_lessNoise_PlusLocalization,2021.2.3,60.018036626350714,
,,,,,,,,center,0.0,6,ch1Sound_localizationTask.wav,0.0,"(952, 878)","(-8,-202)",0,-338,,,,,,,,,0,5,5,3,,,,,,,,,,,,,,,,,,,,,,,,,,,,,,,,,,,,,,,,,,,,839.3075610981323,None,840.4071173188277,None,841.3406341378577,None,1.4793650793650794,0.5168315060436726,841.3406341378577,None,,,,,,,,,,,,,,,,,167,001,2024_Feb_26_1343,SpeechDraft1Carolyn_lessNoise_PlusLocalization,2021.2.3,60.018036626350714,
,,,,,,,,nearRight,6.5,0,ch1Sound_localizationTask.wav,6.5,"(1047, 878)","(87, -202)",95,-338,,,,,,,,,0,6,6,4,,,,,,,,,,,,,,,,,,,,,,,,,,,,,,,,,,,,,,,,,,,,841.8577555608936,None,842.9570379508659,None,843.8903973200358,None,1.5269841269841269,0.43275222927331924,843.8903973200358,None,,,,,,,,,,,,,,,,,167,001,2024_Feb_26_1343,SpeechDraft1Carolyn_lessNoise_PlusLocalization,2021.2.3,60.018036626350714,
,,,,,,,,center,0.0,6,ch1Sound_localizationTask.wav,0.0,"(952, 878)","(-8,-202)",0,-338,,,,,,,,,1,0,7,3,,,,,,,,,,,,,,,,,,,,,,,,,,,,,,,,,,,,,,,,,,,,844.3243751050904,None,845.4239568188787,None,846.3571676588617,None,1.4804232804232804,0.4998045852407813,846.3571676588617,None,,,,,,,,,,,,,,,,,167,001,2024_Feb_26_1343,SpeechDraft1Carolyn_lessNoise_PlusLocalization,2021.2.3,60.018036626350714,
,,,,,,,,farRight,19.1,4,ch1Sound_localizationTask.wav,19.1,"(1237, 878)","(277,-202)",285,-338,,,,,,,,,1,1,8,6,,,,,,,,,,,,,,,,,,,,,,,,,,,,,,,,,,,,,,,,,,,,846.8739826767705,None,847.9735847311094,None,848.9070080397651,None,1.5931216931216932,0.6172717530280352,848.9070080397651,None,,,,,,,,,,,,,,,,,167,001,2024_Feb_26_1343,SpeechDraft1Carolyn_lessNoise_PlusLocalization,2021.2.3,60.018036626350714,
,,,,,,,,farLeft,-19.1,5,ch1Sound_localizationTask.wav,-19.1,"(667, 878)","(-293,-202)",-285,-338,,,,,,,,,1,2,9,0,,,,,,,,,,,,,,,,,,,,,,,,,,,,,,,,,,,,,,,,,,,,849.5243319878355,None,850.6235462888144,None,851.5571300671436,None,1.3455026455026455,0.7838302496820688,851.5571300671436,None,,,,,,,,,,,,,,,,,167,001,2024_Feb_26_1343,SpeechDraft1Carolyn_lessNoise_PlusLocalization,2021.2.3,60.018036626350714,
,,,,,,,,nearLeft,-6.5,1,ch1Sound_localizationTask.wav,-6.5,"(857, 878)","(-103,-202)",-95,-338,,,,,,,,,1,3,10,2,,,,,,,,,,,,,,,,,,,,,,,,,,,,,,,,,,,,,,,,,,,,852.3573967879638,None,853.4573579737917,None,854.390699476935,None,1.4317460317460318,0.600242218002677,854.390699476935,None,,,,,,,,,,,,,,,,,167,001,2024_Feb_26_1343,SpeechDraft1Carolyn_lessNoise_PlusLocalization,2021.2.3,60.018036626350714,
,,,,,,,,nearLeft,-6.5,1,ch1Sound_localizationTask.wav,-6.5,"(857, 878)","(-103,-202)",-95,-338,,,,,,,,,1,4,11,2,,,,,,,,,,,,,,,,,,,,,,,,,,,,,,,,,,,,,,,,,,,,855.0074296551757,None,856.1073042359203,None,857.0404965598136,None,1.4328042328042327,0.3833375289104879,857.0404965598136,None,,,,,,,,,,,,,,,,,167,001,2024_Feb_26_1343,SpeechDraft1Carolyn_lessNoise_PlusLocalization,2021.2.3,60.018036626350714,
,,,,,,,,midRight,13.0,3,ch1Sound_localizationTask.wav,13.0,"(1142, 878)","(182, -202)",190,-338,,,,,,,,,1,5,12,5,,,,,,,,,,,,,,,,,,,,,,,,,,,,,,,,,,,,,,,,,,,,857.424236364197,None,858.5238530989736,None,859.4570060330443,None,1.6153439153439153,0.8485660669393837,859.4570060330443,None,,,,,,,,,,,,,,,,,167,001,2024_Feb_26_1343,SpeechDraft1Carolyn_lessNoise_PlusLocalization,2021.2.3,60.018036626350714,
,,,,,,,,farLeft,-19.1,5,ch1Sound_localizationTask.wav,-19.1,"(667, 878)","(-293,-202)",-285,-338,,,,,,,,,1,6,13,0,,,,,,,,,,,,,,,,,,,,,,,,,,,,,,,,,,,,,,,,,,,,860.3075953661464,None,861.4069097978063,None,862.3404227728024,None,1.328042328042328,0.649428331758827,862.3404227728024,None,,,,,,,,,,,,,,,,,167,001,2024_Feb_26_1343,SpeechDraft1Carolyn_lessNoise_PlusLocalization,2021.2.3,60.018036626350714,
,,,,,,,,farLeft,-19.1,5,ch1Sound_localizationTask.wav,-19.1,"(667, 878)","(-293,-202)",-285,-338,,,,,,,,,2,0,14,0,,,,,,,,,,,,,,,,,,,,,,,,,,,,,,,,,,,,,,,,,,,,863.0073802010156,None,864.1070053637959,None,865.0406247079372,None,1.3185185185185184,0.4323742398992181,865.0406247079372,None,,,,,,,,,,,,,,,,,167,001,2024_Feb_26_1343,SpeechDraft1Carolyn_lessNoise_PlusLocalization,2021.2.3,60.018036626350714,
,,,,,,,,midLeft,-13.0,2,ch1Sound_localizationTask.wav,-13.0,"(762, 878)","(-198,-202)",-190,-338,,,,,,,,,2,1,15,1,,,,,,,,,,,,,,,,,,,,,,,,,,,,,,,,,,,,,,,,,,,,865.4739776318893,None,866.5737634878606,None,867.5072757881135,None,1.3576719576719576,0.41579727176576853,867.5072757881135,None,,,,,,,,,,,,,,,,,167,001,2024_Feb_26_1343,SpeechDraft1Carolyn_lessNoise_PlusLocalization,2021.2.3,60.018036626350714,
,,,,,,,,farRight,19.1,4,ch1Sound_localizationTask.wav,19.1,"(1237, 878)","(277,-202)",285,-338,,,,,,,,,2,2,16,6,,,,,,,,,,,,,,,,,,,,,,,,,,,,,,,,,,,,,,,,,,,,867.9240789189935,None,869.0237196641974,None,869.9572049449198,None,1.632804232804233,0.7493090787902474,869.9572049449198,None,,,,,,,,,,,,,,,,,167,001,2024_Feb_26_1343,SpeechDraft1Carolyn_lessNoise_PlusLocalization,2021.2.3,60.018036626350714,
,,,,,,,,nearRight,6.5,0,ch1Sound_localizationTask.wav,6.5,"(1047, 878)","(87, -202)",95,-338,,,,,,,,,2,3,17,4,,,,,,,,,,,,,,,,,,,,,,,,,,,,,,,,,,,,,,,,,,,,870.7075857669115,None,871.8071889369749,None,872.7404787992127,None,1.5402116402116404,0.6494974247179925,872.7404787992127,None,,,,,,,,,,,,,,,,,167,001,2024_Feb_26_1343,SpeechDraft1Carolyn_lessNoise_PlusLocalization,2021.2.3,60.018036626350714,
,,,,,,,,farRight,19.1,4,ch1Sound_localizationTask.wav,19.1,"(1237, 878)","(277,-202)",285,-338,,,,,,,,,2,4,18,6,,,,,,,,,,,,,,,,,,,,,,,,,,,,,,,,,,,,,,,,,,,,873.3916267729364,None,874.5074204639532,None,875.4238769928925,None,1.6386243386243386,0.5999434748664498,875.4238769928925,None,,,,,,,,,,,,,,,,,167,001,2024_Feb_26_1343,SpeechDraft1Carolyn_lessNoise_PlusLocalization,2021.2.3,60.018036626350714,
,,,,,,,,nearRight,6.5,0,ch1Sound_localizationTask.wav,6.5,"(1047, 878)","(87, -202)",95,-338,,,,,,,,,2,5,19,4,,,,,,,,,,,,,,,,,,,,,,,,,,,,,,,,,,,,,,,,,,,,876.0408164528199,None,877.1403298121877,None,878.0736186769791,None,1.5005291005291004,0.6507223388180137,878.0736186769791,None,,,,,,,,,,,,,,,,,167,001,2024_Feb_26_1343,SpeechDraft1Carolyn_lessNoise_PlusLocalization,2021.2.3,60.018036626350714,
,,,,,,,,nearRight,6.5,0,ch1Sound_localizationTask.wav,6.5,"(1047, 878)","(87, -202)",95,-338,,,,,,,,,2,6,20,4,,,,,,,,,,,,,,,,,,,,,,,,,,,,,,,,,,,,,,,,,,,,878.7408502260223,None,879.8404360148124,None,880.773894270882,None,1.552910052910053,0.4659788040444255,880.773894270882,None,,,,,,,,,,,,,,,,,167,001,2024_Feb_26_1343,SpeechDraft1Carolyn_lessNoise_PlusLocalization,2021.2.3,60.018036626350714,
,,,,,,,,midRight,13.0,3,ch1Sound_localizationTask.wav,13.0,"(1142, 878)","(182, -202)",190,-338,,,,,,,,,3,0,21,5,,,,,,,,,,,,,,,,,,,,,,,,,,,,,,,,,,,,,,,,,,,,881.2408491000533,None,882.3402098398656,None,883.2737857517786,None,1.5693121693121692,0.3984184842556715,883.2737857517786,None,,,,,,,,,,,,,,,,,167,001,2024_Feb_26_1343,SpeechDraft1Carolyn_lessNoise_PlusLocalization,2021.2.3,60.018036626350714,
,,,,,,,,nearRight,6.5,0,ch1Sound_localizationTask.wav,6.5,"(1047, 878)","(87, -202)",95,-338,,,,,,,,,3,1,22,4,,,,,,,,,,,,,,,,,,,,,,,,,,,,,,,,,,,,,,,,,,,,883.6740732509643,None,884.7738442937844,None,885.7072299881838,None,1.5216931216931218,0.533305985853076,885.7072299881838,None,,,,,,,,,,,,,,,,,167,001,2024_Feb_26_1343,SpeechDraft1Carolyn_lessNoise_PlusLocalization,2021.2.3,60.018036626350714,
,,,,,,,,nearLeft,-6.5,1,ch1Sound_localizationTask.wav,-6.5,"(857, 878)","(-103,-202)",-95,-338,,,,,,,,,3,2,23,2,,,,,,,,,,,,,,,,,,,,,,,,,,,,,,,,,,,,,,,,,,,,886.2574642300606,None,887.356908292044,None,888.2902805008925,None,1.408994708994709,0.48267852794378996,888.2902805008925,None,,,,,,,,,,,,,,,,,167,001,2024_Feb_26_1343,SpeechDraft1Carolyn_lessNoise_PlusLocalization,2021.2.3,60.018036626350714,
,,,,,,,,farRight,19.1,4,ch1Sound_localizationTask.wav,19.1,"(1237, 878)","(277,-202)",285,-338,,,,,,,,,3,3,24,6,,,,,,,,,,,,,,,,,,,,,,,,,,,,,,,,,,,,,,,,,,,,888.7744776811451,None,889.8738094880246,None,890.8070617890917,None,1.6111111111111112,0.8327452158555388,890.8070617890917,None,,,,,,,,,,,,,,,,,167,001,2024_Feb_26_1343,SpeechDraft1Carolyn_lessNoise_PlusLocalization,2021.2.3,60.018036626350714,
,,,,,,,,farRight,19.1,4,ch1Sound_localizationTask.wav,19.1,"(1237, 878)","(277,-202)",285,-338,,,,,,,,,3,4,25,6,,,,,,,,,,,,,,,,,,,,,,,,,,,,,,,,,,,,,,,,,,,,891.6416334989481,None,892.7573203430511,None,893.6739581627771,None,1.6084656084656084,0.3666948522441089,893.6739581627771,None,,,,,,,,,,,,,,,,,167,001,2024_Feb_26_1343,SpeechDraft1Carolyn_lessNoise_PlusLocalization,2021.2.3,60.018036626350714,
,,,,,,,,farRight,19.1,4,ch1Sound_localizationTask.wav,19.1,"(1237, 878)","(277,-202)",285,-338,,,,,,,,,3,5,26,6,,,,,,,,,,,,,,,,,,,,,,,,,,,,,,,,,,,,,,,,,,,,894.040892412886,None,895.140536276158,None,896.0736934081651,None,1.6179894179894179,0.3646938451565802,896.0736934081651,None,,,,,,,,,,,,,,,,,167,001,2024_Feb_26_1343,SpeechDraft1Carolyn_lessNoise_PlusLocalization,2021.2.3,60.018036626350714,
,,,,,,,,farLeft,-19.1,5,ch1Sound_localizationTask.wav,-19.1,"(667, 878)","(-293,-202)",-285,-338,,,,,,,,,3,6,27,0,,,,,,,,,,,,,,,,,,,,,,,,,,,,,,,,,,,,,,,,,,,,896.4406071691774,None,897.54055204615,None,898.4735946338624,None,1.2687830687830688,0.7494769957847893,898.4735946338624,None,,,,,,,,,,,,,,,,,167,001,2024_Feb_26_1343,SpeechDraft1Carolyn_lessNoise_PlusLocalization,2021.2.3,60.018036626350714,
,,,,,,,,midLeft,-13.0,2,ch1Sound_localizationTask.wav,-13.0,"(762, 878)","(-198,-202)",-190,-338,,,,,,,,,4,0,28,1,,,,,,,,,,,,,,,,,,,,,,,,,,,,,,,,,,,,,,,,,,,,899.2253312030807,None,900.3405518392101,None,901.2572292350233,None,1.3523809523809525,0.5651572388596833,901.2572292350233,None,,,,,,,,,,,,,,,,,167,001,2024_Feb_26_1343,SpeechDraft1Carolyn_lessNoise_PlusLocalization,2021.2.3,60.018036626350714,
,,,,,,,,midRight,13.0,3,ch1Sound_localizationTask.wav,13.0,"(1142, 878)","(182, -202)",190,-338,,,,,,,,,4,1,29,5,,,,,,,,,,,,,,,,,,,,,,,,,,,,,,,,,,,,,,,,,,,,901.8240388222039,None,902.9239679621533,None,903.8572224602103,None,1.5962962962962963,0.7329038581810892,903.8572224602103,None,,,,,,,,,,,,,,,,,167,001,2024_Feb_26_1343,SpeechDraft1Carolyn_lessNoise_PlusLocalization,2021.2.3,60.018036626350714,
,,,,,,,,center,0.0,6,ch1Sound_localizationTask.wav,0.0,"(952, 878)","(-8,-202)",0,-338,,,,,,,,,4,2,30,3,,,,,,,,,,,,,,,,,,,,,,,,,,,,,,,,,,,,,,,,,,,,904.5906442389823,None,905.6904290867969,None,906.6239552767947,None,1.494179894179894,0.6828861008398235,906.6239552767947,None,,,,,,,,,,,,,,,,,167,001,2024_Feb_26_1343,SpeechDraft1Carolyn_lessNoise_PlusLocalization,2021.2.3,60.018036626350714,
,,,,,,,,farRight,19.1,4,ch1Sound_localizationTask.wav,19.1,"(1237, 878)","(277,-202)",285,-338,,,,,,,,,4,3,31,6,,,,,,,,,,,,,,,,,,,,,,,,,,,,,,,,,,,,,,,,,,,,907.3239206508733,None,908.4239654969424,None,909.3572332807817,None,1.6613756613756614,0.4161999770440161,909.3572332807817,None,,,,,,,,,,,,,,,,,167,001,2024_Feb_26_1343,SpeechDraft1Carolyn_lessNoise_PlusLocalization,2021.2.3,60.018036626350714,
,,,,,,,,midLeft,-13.0,2,ch1Sound_localizationTask.wav,-13.0,"(762, 878)","(-198,-202)",-190,-338,,,,,,,,,4,4,32,1,,,,,,,,,,,,,,,,,,,,,,,,,,,,,,,,,,,,,,,,,,,,909.7744651371613,None,910.8737790752202,None,911.8071166011505,None,1.3761904761904762,0.6994898249395192,911.8071166011505,None,,,,,,,,,,,,,,,,,167,001,2024_Feb_26_1343,SpeechDraft1Carolyn_lessNoise_PlusLocalization,2021.2.3,60.018036626350714,
,,,,,,,,midRight,13.0,3,ch1Sound_localizationTask.wav,13.0,"(1142, 878)","(182, -202)",190,-338,,,,,,,,,4,5,33,5,,,,,,,,,,,,,,,,,,,,,,,,,,,,,,,,,,,,,,,,,,,,912.5239727990702,None,913.6238331478089,None,914.5572274872102,None,1.6264550264550266,0.6657109120860696,914.5572274872102,None,,,,,,,,,,,,,,,,,167,001,2024_Feb_26_1343,SpeechDraft1Carolyn_lessNoise_PlusLocalization,2021.2.3,60.018036626350714,
,,,,,,,,nearLeft,-6.5,1,ch1Sound_localizationTask.wav,-6.5,"(857, 878)","(-103,-202)",-95,-338,,,,,,,,,4,6,34,2,,,,,,,,,,,,,,,,,,,,,,,,,,,,,,,,,,,,,,,,,,,,915.2243600310758,None,916.3239392992109,None,917.2571746711619,None,1.37989417989418,0.5822472050786018,917.2571746711619,None,,,,,,,,,,,,,,,,,167,001,2024_Feb_26_1343,SpeechDraft1Carolyn_lessNoise_PlusLocalization,2021.2.3,60.018036626350714,
,,,,,,,,farLeft,-19.1,5,ch1Sound_localizationTask.wav,-19.1,"(667, 878)","(-293,-202)",-285,-338,,,,,,,,,5,0,35,0,,,,,,,,,,,,,,,,,,,,,,,,,,,,,,,,,,,,,,,,,,,,917.8406746638939,None,918.9406875488348,None,919.8737189071253,None,1.308994708994709,0.4824373768642545,919.8737189071253,None,,,,,,,,,,,,,,,,,167,001,2024_Feb_26_1343,SpeechDraft1Carolyn_lessNoise_PlusLocalization,2021.2.3,60.018036626350714,
,,,,,,,,midRight,13.0,3,ch1Sound_localizationTask.wav,13.0,"(1142, 878)","(182, -202)",190,-338,,,,,,,,,5,1,36,5,,,,,,,,,,,,,,,,,,,,,,,,,,,,,,,,,,,,,,,,,,,,920.3575334479101,None,921.4572068150155,None,922.3909047772177,None,1.6169312169312169,0.5654182317666709,922.3909047772177,None,,,,,,,,,,,,,,,,,167,001,2024_Feb_26_1343,SpeechDraft1Carolyn_lessNoise_PlusLocalization,2021.2.3,60.018036626350714,
,,,,,,,,midLeft,-13.0,2,ch1Sound_localizationTask.wav,-13.0,"(762, 878)","(-198,-202)",-190,-338,,,,,,,,,5,2,37,1,,,,,,,,,,,,,,,,,,,,,,,,,,,,,,,,,,,,,,,,,,,,922.9576506861486,None,924.0571874240413,None,924.9908696548082,None,1.3513227513227513,0.5661698011681437,924.9908696548082,None,,,,,,,,,,,,,,,,,167,001,2024_Feb_26_1343,SpeechDraft1Carolyn_lessNoise_PlusLocalization,2021.2.3,60.018036626350714,
,,,,,,,,midRight,13.0,3,ch1Sound_localizationTask.wav,13.0,"(1142, 878)","(182, -202)",190,-338,,,,,,,,,5,3,38,5,,,,,,,,,,,,,,,,,,,,,,,,,,,,,,,,,,,,,,,,,,,,925.5575059028342,None,926.6572775049135,None,927.5904913861305,None,1.5989417989417989,0.4820731650106609,927.5904913861305,None,,,,,,,,,,,,,,,,,167,001,2024_Feb_26_1343,SpeechDraft1Carolyn_lessNoise_PlusLocalization,2021.2.3,60.018036626350714,
,,,,,,,,farLeft,-19.1,5,ch1Sound_localizationTask.wav,-19.1,"(667, 878)","(-293,-202)",-285,-338,,,,,,,,,5,4,39,0,,,,,,,,,,,,,,,,,,,,,,,,,,,,,,,,,,,,,,,,,,,,928.0739975199103,None,929.1736078420654,None,930.1072909650393,None,1.3423280423280424,0.46616983227431774,930.1072909650393,None,,,,,,,,,,,,,,,,,167,001,2024_Feb_26_1343,SpeechDraft1Carolyn_lessNoise_PlusLocalization,2021.2.3,60.018036626350714,
,,,,,,,,nearLeft,-6.5,1,ch1Sound_localizationTask.wav,-6.5,"(857, 878)","(-103,-202)",-95,-338,,,,,,,,,5,5,40,2,,,,,,,,,,,,,,,,,,,,,,,,,,,,,,,,,,,,,,,,,,,,930.5744491391815,None,931.6739131351933,None,932.6072142450139,None,1.433862433862434,0.43194070737808943,932.6072142450139,None,,,,,,,,,,,,,,,,,167,001,2024_Feb_26_1343,SpeechDraft1Carolyn_lessNoise_PlusLocalization,2021.2.3,60.018036626350714,
,,,,,,,,center,0.0,6,ch1Sound_localizationTask.wav,0.0,"(952, 878)","(-8,-202)",0,-338,,,,,,,,,5,6,41,3,,,,,,,,,,,,,,,,,,,,,,,,,,,,,,,,,,,,,,,,,,,,933.0408566179685,None,934.1405388531275,None,935.0737657002173,None,1.5084656084656085,0.3991326983086765,935.0737657002173,None,,,,,,,,,,,,,,,,,167,001,2024_Feb_26_1343,SpeechDraft1Carolyn_lessNoise_PlusLocalization,2021.2.3,60.018036626350714,
,,,,,,,,midLeft,-13.0,2,ch1Sound_localizationTask.wav,-13.0,"(762, 878)","(-198,-202)",-190,-338,,,,,,,,,6,0,42,1,,,,,,,,,,,,,,,,,,,,,,,,,,,,,,,,,,,,,,,,,,,,935.4739936590195,None,936.573830136098,None,937.5072212237865,None,1.38994708994709,0.4166034758090973,937.5072212237865,None,,,,,,,,,,,,,,,,,167,001,2024_Feb_26_1343,SpeechDraft1Carolyn_lessNoise_PlusLocalization,2021.2.3,60.018036626350714,
,,,,,,,,farLeft,-19.1,5,ch1Sound_localizationTask.wav,-19.1,"(667, 878)","(-293,-202)",-285,-338,,,,,,,,,6,1,43,0,,,,,,,,,,,,,,,,,,,,,,,,,,,,,,,,,,,,,,,,,,,,937.9241934651509,None,939.023824354168,None,939.9571556961164,None,1.3164021164021165,0.3157309368252754,939.9571556961164,None,,,,,,,,,,,,,,,,,167,001,2024_Feb_26_1343,SpeechDraft1Carolyn_lessNoise_PlusLocalization,2021.2.3,60.018036626350714,
,,,,,,,,nearLeft,-6.5,1,ch1Sound_localizationTask.wav,-6.5,"(857, 878)","(-103,-202)",-95,-338,,,,,,,,,6,2,44,2,,,,,,,,,,,,,,,,,,,,,,,,,,,,,,,,,,,,,,,,,,,,940.2740114959888,None,941.3737972578965,None,942.3070014799014,None,1.41005291005291,0.5315393679775298,942.3070014799014,None,,,,,,,,,,,,,,,,,167,001,2024_Feb_26_1343,SpeechDraft1Carolyn_lessNoise_PlusLocalization,2021.2.3,60.018036626350714,
,,,,,,,,midLeft,-13.0,2,ch1Sound_localizationTask.wav,-13.0,"(762, 878)","(-198,-202)",-190,-338,,,,,,,,,6,3,45,1,,,,,,,,,,,,,,,,,,,,,,,,,,,,,,,,,,,,,,,,,,,,942.8407313870266,None,943.9405008777976,None,944.8737416611984,None,1.2783068783068783,0.5658067208714783,944.8737416611984,None,,,,,,,,,,,,,,,,,167,001,2024_Feb_26_1343,SpeechDraft1Carolyn_lessNoise_PlusLocalization,2021.2.3,60.018036626350714,
,,,,,,,,center,0.0,6,ch1Sound_localizationTask.wav,0.0,"(952, 878)","(-8,-202)",0,-338,,,,,,,,,6,4,46,3,,,,,,,,,,,,,,,,,,,,,,,,,,,,,,,,,,,,,,,,,,,,945.4411386707798,None,946.5404598899186,None,947.4737512948923,None,1.492063492063492,0.6326905307359993,947.4737512948923,None,,,,,,,,,,,,,,,,,167,001,2024_Feb_26_1343,SpeechDraft1Carolyn_lessNoise_PlusLocalization,2021.2.3,60.018036626350714,
,,,,,,,,midLeft,-13.0,2,ch1Sound_localizationTask.wav,-13.0,"(762, 878)","(-198,-202)",-190,-338,,,,,,,,,6,5,47,1,,,,,,,,,,,,,,,,,,,,,,,,,,,,,,,,,,,,,,,,,,,,948.1074170339853,None,949.2073264699429,None,950.1406601811759,None,1.3264550264550263,0.4993848530575633,950.1406601811759,None,,,,,,,,,,,,,,,,,167,001,2024_Feb_26_1343,SpeechDraft1Carolyn_lessNoise_PlusLocalization,2021.2.3,60.018036626350714,
,,,,,,,,center,0.0,6,ch1Sound_localizationTask.wav,0.0,"(952, 878)","(-8,-202)",0,-338,,,,,,,,,6,6,48,3,,,,,,,,,,,,,,,,,,,,,,,,,,,,,,,,,,,,,,,,,,,,950.6411755601875,None,951.7404028871097,None,952.6736342869699,None,1.506878306878307,0.5327695948071778,952.6736342869699,None,,,,,,,,,,,,,,,,,167,001,2024_Feb_26_1343,SpeechDraft1Carolyn_lessNoise_PlusLocalization,2021.2.3,60.018036626350714,
,,,,,,,,nearLeft,-6.5,1,ch1Sound_localizationTask.wav,-6.5,"(857, 878)","(-103,-202)",-95,-338,,,,,,,,,7,0,49,2,,,,,,,,,,,,,,,,,,,,,,,,,,,,,,,,,,,,,,,,,,,,953.2078913780861,None,954.3071729717776,None,955.2406220450066,None,1.3857142857142857,0.4655061401426792,955.2406220450066,None,,,,,,,,,,,,,,,,,167,001,2024_Feb_26_1343,SpeechDraft1Carolyn_lessNoise_PlusLocalization,2021.2.3,60.018036626350714,
,,,,,,,,center,0.0,6,ch1Sound_localizationTask.wav,0.0,"(952, 878)","(-8,-202)",0,-338,,,,,,,,,7,1,50,3,,,,,,,,,,,,,,,,,,,,,,,,,,,,,,,,,,,,,,,,,,,,955.7075274749659,None,956.8071373892017,None,957.740650636144,None,1.511111111111111,0.49840759579092264,957.740650636144,None,,,,,,,,,,,,,,,,,167,001,2024_Feb_26_1343,SpeechDraft1Carolyn_lessNoise_PlusLocalization,2021.2.3,60.018036626350714,
,,,,,,,,farLeft,-19.1,5,ch1Sound_localizationTask.wav,-19.1,"(667, 878)","(-293,-202)",-285,-338,,,,,,,,,7,2,51,0,,,,,,,,,,,,,,,,,,,,,,,,,,,,,,,,,,,,,,,,,,,,958.2409330047667,None,959.3405752750114,None,960.27399771614,None,1.298941798941799,0.5016783848404884,960.27399771614,None,,,,,,,,,,,,,,,,,167,001,2024_Feb_26_1343,SpeechDraft1Carolyn_lessNoise_PlusLocalization,2021.2.3,60.018036626350714,
,,,,,,,,nearRight,6.5,0,ch1Sound_localizationTask.wav,6.5,"(1047, 878)","(87, -202)",95,-338,,,,,,,,,7,3,52,4,,,,,,,,,,,,,,,,,,,,,,,,,,,,,,,,,,,,,,,,,,,,960.7907784911804,None,961.8903897088021,None,962.8240151158534,None,1.5518518518518518,0.5157248061150312,962.8240151158534,None,,,,,,,,,,,,,,,,,167,001,2024_Feb_26_1343,SpeechDraft1Carolyn_lessNoise_PlusLocalization,2021.2.3,60.018036626350714,
,,,,,,,,midRight,13.0,3,ch1Sound_localizationTask.wav,13.0,"(1142, 878)","(182, -202)",190,-338,,,,,,,,,7,4,53,5,,,,,,,,,,,,,,,,,,,,,,,,,,,,,,,,,,,,,,,,,,,,963.3409278690815,None,964.4405072848313,None,965.3738907109946,None,1.6132275132275131,0.4157459130510688,965.3738907109946,None,,,,,,,,,,,,,,,,,167,001,2024_Feb_26_1343,SpeechDraft1Carolyn_lessNoise_PlusLocalization,2021.2.3,60.018036626350714,
,,,,,,,,farRight,19.1,4,ch1Sound_localizationTask.wav,19.1,"(1237, 878)","(277,-202)",285,-338,,,,,,,,,7,5,54,6,,,,,,,,,,,,,,,,,,,,,,,,,,,,,,,,,,,,,,,,,,,,965.7908128099516,None,966.8905445127748,None,967.8240776727907,None,1.6142857142857143,0.3663511071354151,967.8240776727907,None,,,,,,,,,,,,,,,,,167,001,2024_Feb_26_1343,SpeechDraft1Carolyn_lessNoise_PlusLocalization,2021.2.3,60.018036626350714,
,,,,,,,,nearRight,6.5,0,ch1Sound_localizationTask.wav,6.5,"(1047, 878)","(87, -202)",95,-338,,,,,,,,,7,6,55,4,,,,,,,,,,,,,,,,,,,,,,,,,,,,,,,,,,,,,,,,,,,,968.1907455557957,None,969.2904273159802,None,970.2243316960521,None,1.5666666666666667,0.381467676255852,970.2243316960521,None,,,,,,,,,,,,,,,,,167,001,2024_Feb_26_1343,SpeechDraft1Carolyn_lessNoise_PlusLocalization,2021.2.3,60.018036626350714,
,,,,,,,,,,,,,,,,,,,,,,,,,,,,,,,,,,,,,,,,,,,,,,,,,,,,,,,,,,,,,,,,,,,,,,,,,,,,,,,,,,space,9.032401885837317,970.6906934301369,None,,,,,,,,,,,,,167,001,2024_Feb_26_1343,SpeechDraft1Carolyn_lessNoise_PlusLocalization,2021.2.3,60.018036626350714,
,,,,,,,,farRight,19.1,4,ch1Sound_localizationTask.wav,19.1,"(1237, 878)","(277,-202)",285,-338,,,,,,,,,,,,,0,0,0,6,,,,,,,,,,,,,,,,,,,,,,,,,,,,,,,,,,,,,,,,979.7572745000944,None,,,982.7906026639976,None,1.6677248677248677,0.8369188942015171,982.7906026639976,None,,,,,970.6906934301369,None,980.757848050911,None,980.9412883832119,980.9578572390601,,,,,,,167,001,2024_Feb_26_1343,SpeechDraft1Carolyn_lessNoise_PlusLocalization,2021.2.3,60.018036626350714,
,,,,,,,,center,0.0,6,ch1Sound_localizationTask.wav,0.0,"(952, 878)","(-8,-202)",0,-338,,,,,,,,,,,,,0,1,1,3,,,,,,,,,,,,,,,,,,,,,,,,,,,,,,,,,,,,,,,,983.6252683182247,None,,,986.6573206791654,None,1.5037037037037035,0.8160178069956601,986.6573206791654,None,,,,,,,984.6407937682234,None,984.8242681948468,984.8407743978314,,,,,,,167,001,2024_Feb_26_1343,SpeechDraft1Carolyn_lessNoise_PlusLocalization,2021.2.3,60.018036626350714,
,,,,,,,,midLeft,-13.0,2,ch1Sound_localizationTask.wav,-13.0,"(762, 878)","(-198,-202)",-190,-338,,,,,,,,,,,,,0,2,2,1,,,,,,,,,,,,,,,,,,,,,,,,,,,,,,,,,,,,,,,,987.4744682651944,None,,,990.4903918090276,None,1.4042328042328043,0.649137201718986,990.4903918090276,None,,,,,,,988.4741934938356,None,988.6573644899763,988.6740777720697,,,,,,,167,001,2024_Feb_26_1343,SpeechDraft1Carolyn_lessNoise_PlusLocalization,2021.2.3,60.018036626350714,
,,,,,,,,nearRight,6.5,0,ch1Sound_localizationTask.wav,6.5,"(1047, 878)","(87, -202)",95,-338,,,,,,,,,,,,,0,3,3,4,,,,,,,,,,,,,,,,,,,,,,,,,,,,,,,,,,,,,,,,991.1409701718949,None,,,994.1574714267626,None,1.5624338624338625,0.7334599420428276,994.1574714267626,None,,,,,,,992.14076376101,None,992.3242716849782,992.3408397277817,,,,,,,167,001,2024_Feb_26_1343,SpeechDraft1Carolyn_lessNoise_PlusLocalization,2021.2.3,60.018036626350714,
,,,,,,,,nearLeft,-6.5,1,ch1Sound_localizationTask.wav,-6.5,"(857, 878)","(-103,-202)",-95,-338,,,,,,,,,,,,,0,4,4,2,,,,,,,,,,,,,,,,,,,,,,,,,,,,,,,,,,,,,,,,994.9074338967912,None,,,997.9239509259351,None,1.4492063492063492,0.76623375993222,997.9239509259351,None,,,,,,,995.907592589967,None,996.0910869808868,996.1077981228009,,,,,,,167,001,2024_Feb_26_1343,SpeechDraft1Carolyn_lessNoise_PlusLocalization,2021.2.3,60.018036626350714,
,,,,,,,,farRight,19.1,4,ch1Sound_localizationTask.wav,19.1,"(1237, 878)","(277,-202)",285,-338,,,,,,,,,,,,,0,5,5,6,,,,,,,,,,,,,,,,,,,,,,,,,,,,,,,,,,,,,,,,998.6907361401245,None,,,1001.7071894551627,None,1.67989417989418,0.8010759716853499,1001.7071894551627,None,,,,,,,999.6907783569768,None,999.8740392331965,999.8909118887968,,,,,,,167,001,2024_Feb_26_1343,SpeechDraft1Carolyn_lessNoise_PlusLocalization,2021.2.3,60.018036626350714,
,,,,,,,,center,0.0,6,ch1Sound_localizationTask.wav,0.0,"(952, 878)","(-8,-202)",0,-338,,,,,,,,,,,,,0,6,6,3,,,,,,,,,,,,,,,,,,,,,,,,,,,,,,,,,,,,,,,,1002.5242324178107,None,,,1005.5407674680464,None,1.4962962962962962,1.0811814740300179,1005.5407674680464,None,,,,,,,1003.5242646439001,None,1003.7075374028645,1003.7240833579563,,,,,,,167,001,2024_Feb_26_1343,SpeechDraft1Carolyn_lessNoise_PlusLocalization,2021.2.3,60.018036626350714,
,,,,,,,,farRight,19.1,4,ch1Sound_localizationTask.wav,19.1,"(1237, 878)","(277,-202)",285,-338,,,,,,,,,,,,,1,0,7,6,,,,,,,,,,,,,,,,,,,,,,,,,,,,,,,,,,,,,,,,1006.6243316577747,None,,,1009.640461564064,None,1.6851851851851851,0.864474471192807,1009.640461564064,None,,,,,,,1007.6244458272122,None,1007.807475859765,1007.8240984901786,,,,,,,167,001,2024_Feb_26_1343,SpeechDraft1Carolyn_lessNoise_PlusLocalization,2021.2.3,60.018036626350714,
,,,,,,,,farLeft,-19.1,5,ch1Sound_localizationTask.wav,-19.1,"(667, 878)","(-293,-202)",-285,-338,,,,,,,,,,,,,1,1,8,0,,,,,,,,,,,,,,,,,,,,,,,,,,,,,,,,,,,,,,,,1010.5078351120465,None,,,1013.5239599822089,None,1.3116402116402117,0.76510673109442,1013.5239599822089,None,,,,,,,1011.507865103893,None,1011.6909265858121,1011.7076014778577,,,,,,,167,001,2024_Feb_26_1343,SpeechDraft1Carolyn_lessNoise_PlusLocalization,2021.2.3,60.018036626350714,
,,,,,,,,center,0.0,6,ch1Sound_localizationTask.wav,0.0,"(952, 878)","(-8,-202)",0,-338,,,,,,,,,,,,,1,2,9,3,,,,,,,,,,,,,,,,,,,,,,,,,,,,,,,,,,,,,,,,1014.2906679180451,None,,,1017.3072679541074,None,1.4994708994708994,0.6151348031125963,1017.3072679541074,None,,,,,,,1015.2908066408709,None,1015.4740659091622,1015.4907899769023,,,,,,,167,001,2024_Feb_26_1343,SpeechDraft1Carolyn_lessNoise_PlusLocalization,2021.2.3,60.018036626350714,
,,,,,,,,farLeft,-19.1,5,ch1Sound_localizationTask.wav,-19.1,"(667, 878)","(-293,-202)",-285,-338,,,,,,,,,,,,,1,3,10,0,,,,,,,,,,,,,,,,,,,,,,,,,,,,,,,,,,,,,,,,1017.9240432158113,None,,,1020.940662026871,None,1.3391534391534392,0.8488052999600768,1020.940662026871,None,,,,,,,1018.9241223977879,None,1019.1074589299969,1019.1241940911859,,,,,,,167,001,2024_Feb_26_1343,SpeechDraft1Carolyn_lessNoise_PlusLocalization,2021.2.3,60.018036626350714,
,,,,,,,,farRight,19.1,4,ch1Sound_localizationTask.wav,19.1,"(1237, 878)","(277,-202)",285,-338,,,,,,,,,,,,,1,4,11,6,,,,,,,,,,,,,,,,,,,,,,,,,,,,,,,,,,,,,,,,1021.7910022367723,None,,,1024.807322525885,None,1.6656084656084655,0.9152646460570395,1024.807322525885,None,,,,,,,1022.7907805708237,None,1022.9741285569035,1022.990794191137,,,,,,,167,001,2024_Feb_26_1343,SpeechDraft1Carolyn_lessNoise_PlusLocalization,2021.2.3,60.018036626350714,
,,,,,,,,midLeft,-13.0,2,ch1Sound_localizationTask.wav,-13.0,"(762, 878)","(-198,-202)",-190,-338,,,,,,,,,,,,,1,5,12,1,,,,,,,,,,,,,,,,,,,,,,,,,,,,,,,,,,,,,,,,1025.7242567511275,None,,,1028.7407229249366,None,1.3857142857142857,0.9656176147982478,1028.7407229249366,None,,,,,,,1026.724140376784,None,1026.907531007193,1026.9241225151345,,,,,,,167,001,2024_Feb_26_1343,SpeechDraft1Carolyn_lessNoise_PlusLocalization,2021.2.3,60.018036626350714,
,,,,,,,,midRight,13.0,3,ch1Sound_localizationTask.wav,13.0,"(1142, 878)","(182, -202)",190,-338,,,,,,,,,,,,,1,6,13,5,,,,,,,,,,,,,,,,,,,,,,,,,,,,,,,,,,,,,,,,1029.7077045962214,None,,,1032.72384830378,None,1.6132275132275131,0.7659563450142741,1032.72384830378,None,,,,,,,1030.7074789190665,None,1030.89082605578,1030.907467818819,,,,,,,167,001,2024_Feb_26_1343,SpeechDraft1Carolyn_lessNoise_PlusLocalization,2021.2.3,60.018036626350714,
,,,,,,,,nearLeft,-6.5,1,ch1Sound_localizationTask.wav,-6.5,"(857, 878)","(-103,-202)",-95,-338,,,,,,,,,,,,,2,0,14,2,,,,,,,,,,,,,,,,,,,,,,,,,,,,,,,,,,,,,,,,1033.4912218637764,None,,,1036.5072959740646,None,1.438095238095238,0.8825448118150234,1036.5072959740646,None,,,,,,,1034.490732602775,None,1034.6741695781238,1034.6907545099966,,,,,,,167,001,2024_Feb_26_1343,SpeechDraft1Carolyn_lessNoise_PlusLocalization,2021.2.3,60.018036626350714,
,,,,,,,,midRight,13.0,3,ch1Sound_localizationTask.wav,13.0,"(1142, 878)","(182, -202)",190,-338,,,,,,,,,,,,,2,1,15,5,,,,,,,,,,,,,,,,,,,,,,,,,,,,,,,,,,,,,,,,1037.3916494008154,None,,,1040.4074055799283,None,1.6227513227513226,0.6823785719461739,1040.4074055799283,None,,,,,,,1038.3909983569756,None,1038.5743722608313,1038.5909290229902,,,,,,,167,001,2024_Feb_26_1343,SpeechDraft1Carolyn_lessNoise_PlusLocalization,2021.2.3,60.018036626350714,
,,,,,,,,farLeft,-19.1,5,ch1Sound_localizationTask.wav,-19.1,"(667, 878)","(-293,-202)",-285,-338,,,,,,,,,,,,,2,2,16,0,,,,,,,,,,,,,,,,,,,,,,,,,,,,,,,,,,,,,,,,1041.1076101250947,None,,,1044.1239960328676,None,1.3460317460317461,0.649393595289439,1044.1239960328676,None,,,,,,,1042.107451079879,None,1042.2911420948803,1042.3074322589673,,,,,,,167,001,2024_Feb_26_1343,SpeechDraft1Carolyn_lessNoise_PlusLocalization,2021.2.3,60.018036626350714,
,,,,,,,,farLeft,-19.1,5,ch1Sound_localizationTask.wav,-19.1,"(667, 878)","(-293,-202)",-285,-338,,,,,,,,,,,,,2,3,17,0,,,,,,,,,,,,,,,,,,,,,,,,,,,,,,,,,,,,,,,,1044.7746536862105,None,,,1047.790627473034,None,1.3444444444444446,0.8819380109198391,1047.790627473034,None,,,,,,,1045.7743134889752,None,1045.957540129777,1045.9745036279783,,,,,,,167,001,2024_Feb_26_1343,SpeechDraft1Carolyn_lessNoise_PlusLocalization,2021.2.3,60.018036626350714,
,,,,,,,,nearRight,6.5,0,ch1Sound_localizationTask.wav,6.5,"(1047, 878)","(87, -202)",95,-338,,,,,,,,,,,,,2,4,18,4,,,,,,,,,,,,,,,,,,,,,,,,,,,,,,,,,,,,,,,,1048.6743068438955,None,,,1051.6906030010432,None,1.5708994708994708,0.8656614567153156,1051.6906030010432,None,,,,,,,1049.6743551888503,None,1049.8575876010582,1049.8741889512166,,,,,,,167,001,2024_Feb_26_1343,SpeechDraft1Carolyn_lessNoise_PlusLocalization,2021.2.3,60.018036626350714,
,,,,,,,,midRight,13.0,3,ch1Sound_localizationTask.wav,13.0,"(1142, 878)","(182, -202)",190,-338,,,,,,,,,,,,,2,5,19,5,,,,,,,,,,,,,,,,,,,,,,,,,,,,,,,,,,,,,,,,1052.557408161927,None,,,1055.5740310871042,None,1.6312169312169313,0.648153399117291,1055.5740310871042,None,,,,,,,1053.55751766311,None,1053.741079647094,1053.7576653040014,,,,,,,167,001,2024_Feb_26_1343,SpeechDraft1Carolyn_lessNoise_PlusLocalization,2021.2.3,60.018036626350714,
,,,,,,,,nearRight,6.5,0,ch1Sound_localizationTask.wav,6.5,"(1047, 878)","(87, -202)",95,-338,,,,,,,,,,,,,2,6,20,4,,,,,,,,,,,,,,,,,,,,,,,,,,,,,,,,,,,,,,,,1056.224356173072,None,,,1059.2407579277642,None,1.564021164021164,0.5323959710076451,1059.2407579277642,None,,,,,,,1057.2243731841445,None,1057.4077422711998,1057.4242048719898,,,,,,,167,001,2024_Feb_26_1343,SpeechDraft1Carolyn_lessNoise_PlusLocalization,2021.2.3,60.018036626350714,
,,,,,,,,midRight,13.0,3,ch1Sound_localizationTask.wav,13.0,"(1142, 878)","(182, -202)",190,-338,,,,,,,,,,,,,3,0,21,5,,,,,,,,,,,,,,,,,,,,,,,,,,,,,,,,,,,,,,,,1059.7754808221944,None,,,1062.8073549368419,None,1.6375661375661377,0.6488625248894095,1062.8073549368419,None,,,,,,,1060.7908298810944,None,1060.974366006907,1060.991020383779,,,,,,,167,001,2024_Feb_26_1343,SpeechDraft1Carolyn_lessNoise_PlusLocalization,2021.2.3,60.018036626350714,
,,,,,,,,farRight,19.1,4,ch1Sound_localizationTask.wav,19.1,"(1237, 878)","(277,-202)",285,-338,,,,,,,,,,,,,3,1,22,6,,,,,,,,,,,,,,,,,,,,,,,,,,,,,,,,,,,,,,,,1063.4578911890276,None,,,1066.47405535914,None,1.680952380952381,0.6158129177056253,1066.47405535914,None,,,,,,,1064.4575233589858,None,1064.6408444968984,1064.6575883659534,,,,,,,167,001,2024_Feb_26_1343,SpeechDraft1Carolyn_lessNoise_PlusLocalization,2021.2.3,60.018036626350714,
,,,,,,,,nearRight,6.5,0,ch1Sound_localizationTask.wav,6.5,"(1047, 878)","(87, -202)",95,-338,,,,,,,,,,,,,3,2,23,4,,,,,,,,,,,,,,,,,,,,,,,,,,,,,,,,,,,,,,,,1067.1077844370157,None,,,1070.1239593941718,None,1.5592592592592593,0.8814472947269678,1070.1239593941718,None,,,,,,,1068.1075174170546,None,1068.2910148059018,1068.3074701759033,,,,,,,167,001,2024_Feb_26_1343,SpeechDraft1Carolyn_lessNoise_PlusLocalization,2021.2.3,60.018036626350714,
,,,,,,,,farLeft,-19.1,5,ch1Sound_localizationTask.wav,-19.1,"(667, 878)","(-293,-202)",-285,-338,,,,,,,,,,,,,3,3,24,0,,,,,,,,,,,,,,,,,,,,,,,,,,,,,,,,,,,,,,,,1071.0077128591947,None,,,1074.0242846929468,None,1.3523809523809525,0.6311685829423368,1074.0242846929468,None,,,,,,,1072.007754676044,None,1072.1910771150142,1072.207626381889,,,,,,,167,001,2024_Feb_26_1343,SpeechDraft1Carolyn_lessNoise_PlusLocalization,2021.2.3,60.018036626350714,
,,,,,,,,center,0.0,6,ch1Sound_localizationTask.wav,0.0,"(952, 878)","(-8,-202)",0,-338,,,,,,,,,,,,,3,4,25,3,,,,,,,,,,,,,,,,,,,,,,,,,,,,,,,,,,,,,,,,1074.6577364332043,None,,,1077.6741145411506,None,1.508994708994709,0.8654530299827456,1077.6741145411506,None,,,,,,,1075.657733857166,None,1075.8410010300577,1075.857797015924,,,,,,,167,001,2024_Feb_26_1343,SpeechDraft1Carolyn_lessNoise_PlusLocalization,2021.2.3,60.018036626350714,
,,,,,,,,nearRight,6.5,0,ch1Sound_localizationTask.wav,6.5,"(1047, 878)","(87, -202)",95,-338,,,,,,,,,,,,,3,5,26,4,,,,,,,,,,,,,,,,,,,,,,,,,,,,,,,,,,,,,,,,1078.541177066043,None,,,1081.5576062821783,None,1.574074074074074,0.5479894508607686,1081.5576062821783,None,,,,,,,1079.5408456181176,None,1079.7242191708647,1079.7409656210802,,,,,,,167,001,2024_Feb_26_1343,SpeechDraft1Carolyn_lessNoise_PlusLocalization,2021.2.3,60.018036626350714,
,,,,,,,,farLeft,-19.1,5,ch1Sound_localizationTask.wav,-19.1,"(667, 878)","(-293,-202)",-285,-338,,,,,,,,,,,,,3,6,27,0,,,,,,,,,,,,,,,,,,,,,,,,,,,,,,,,,,,,,,,,1082.1074628909118,None,,,1085.123969770968,None,1.3677248677248677,0.649287159088999,1085.123969770968,None,,,,,,,1083.107832775917,None,1083.2910308758728,1083.3075392949395,,,,,,,167,001,2024_Feb_26_1343,SpeechDraft1Carolyn_lessNoise_PlusLocalization,2021.2.3,60.018036626350714,
,,,,,,,,nearRight,6.5,0,ch1Sound_localizationTask.wav,6.5,"(1047, 878)","(87, -202)",95,-338,,,,,,,,,,,,,4,0,28,4,,,,,,,,,,,,,,,,,,,,,,,,,,,,,,,,,,,,,,,,1085.7909917738289,None,,,1088.8074814788997,None,1.5624338624338625,0.9985448927618563,1088.8074814788997,None,,,,,,,1086.7908781478181,None,1086.9743229108863,1086.9908937830478,,,,,,,167,001,2024_Feb_26_1343,SpeechDraft1Carolyn_lessNoise_PlusLocalization,2021.2.3,60.018036626350714,
,,,,,,,,center,0.0,6,ch1Sound_localizationTask.wav,0.0,"(952, 878)","(-8,-202)",0,-338,,,,,,,,,,,,,4,1,29,3,,,,,,,,,,,,,,,,,,,,,,,,,,,,,,,,,,,,,,,,1089.8080710847862,None,,,1092.8241989607923,None,1.4957671957671956,0.5815505278296769,1092.8241989607923,None,,,,,,,1090.8076011911035,None,1090.9910554429516,1091.0075872200541,,,,,,,167,001,2024_Feb_26_1343,SpeechDraft1Carolyn_lessNoise_PlusLocalization,2021.2.3,60.018036626350714,
,,,,,,,,center,0.0,6,ch1Sound_localizationTask.wav,0.0,"(952, 878)","(-8,-202)",0,-338,,,,,,,,,,,,,4,2,30,3,,,,,,,,,,,,,,,,,,,,,,,,,,,,,,,,,,,,,,,,1093.407875422854,None,,,1096.424162435811,None,1.4962962962962962,0.46565044298768044,1096.424162435811,None,,,,,,,1094.4075590940192,None,1094.5911337998696,1094.60754941497,,,,,,,167,001,2024_Feb_26_1343,SpeechDraft1Carolyn_lessNoise_PlusLocalization,2021.2.3,60.018036626350714,
,,,,,,,,midLeft,-13.0,2,ch1Sound_localizationTask.wav,-13.0,"(762, 878)","(-198,-202)",-190,-338,,,,,,,,,,,,,4,3,31,1,,,,,,,,,,,,,,,,,,,,,,,,,,,,,,,,,,,,,,,,1096.8911811360158,None,,,1099.9072461700998,None,1.3968253968253967,0.7160286279395223,1099.9072461700998,None,,,,,,,1097.8908748910762,None,1098.0742043838836,1098.090783670079,,,,,,,167,001,2024_Feb_26_1343,SpeechDraft1Carolyn_lessNoise_PlusLocalization,2021.2.3,60.018036626350714,
,,,,,,,,midRight,13.0,3,ch1Sound_localizationTask.wav,13.0,"(1142, 878)","(182, -202)",190,-338,,,,,,,,,,,,,4,4,32,5,,,,,,,,,,,,,,,,,,,,,,,,,,,,,,,,,,,,,,,,1100.641160565894,None,,,1103.6572774760425,None,1.633862433862434,0.882099739741534,1103.6572774760425,None,,,,,,,1101.6411817651242,None,1101.8244372461922,1101.8409934542142,,,,,,,167,001,2024_Feb_26_1343,SpeechDraft1Carolyn_lessNoise_PlusLocalization,2021.2.3,60.018036626350714,
,,,,,,,,midRight,13.0,3,ch1Sound_localizationTask.wav,13.0,"(1142, 878)","(182, -202)",190,-338,,,,,,,,,,,,,4,5,33,5,,,,,,,,,,,,,,,,,,,,,,,,,,,,,,,,,,,,,,,,1104.5411141449586,None,,,1107.5572113338858,None,1.5947089947089947,0.8819063883274794,1107.5572113338858,None,,,,,,,1105.5409990907647,None,1105.724441128783,1105.7409735750407,,,,,,,167,001,2024_Feb_26_1343,SpeechDraft1Carolyn_lessNoise_PlusLocalization,2021.2.3,60.018036626350714,
,,,,,,,,midLeft,-13.0,2,ch1Sound_localizationTask.wav,-13.0,"(762, 878)","(-198,-202)",-190,-338,,,,,,,,,,,,,4,6,34,1,,,,,,,,,,,,,,,,,,,,,,,,,,,,,,,,,,,,,,,,1108.4409263269044,None,,,1111.457597183995,None,1.3973544973544973,0.7648174082860351,1111.457597183995,None,,,,,,,1109.4408997688442,None,1109.6243500160053,1109.6411012308672,,,,,,,167,001,2024_Feb_26_1343,SpeechDraft1Carolyn_lessNoise_PlusLocalization,2021.2.3,60.018036626350714,
,,,,,,,,farRight,19.1,4,ch1Sound_localizationTask.wav,19.1,"(1237, 878)","(277,-202)",285,-338,,,,,,,,,,,,,5,0,35,6,,,,,,,,,,,,,,,,,,,,,,,,,,,,,,,,,,,,,,,,1112.224440633785,None,,,1115.240682747215,None,1.691005291005291,0.9155417769216001,1115.240682747215,None,,,,,,,1113.2241727840155,None,1113.4075921741314,1113.4242379912175,,,,,,,167,001,2024_Feb_26_1343,SpeechDraft1Carolyn_lessNoise_PlusLocalization,2021.2.3,60.018036626350714,
,,,,,,,,farLeft,-19.1,5,ch1Sound_localizationTask.wav,-19.1,"(667, 878)","(-293,-202)",-285,-338,,,,,,,,,,,,,5,1,36,0,,,,,,,,,,,,,,,,,,,,,,,,,,,,,,,,,,,,,,,,1116.1580391549505,None,,,1119.1743439259008,None,1.33015873015873,0.9831088720820844,1119.1743439259008,None,,,,,,,1117.1577088288032,None,1117.3410003702156,1117.3576578069478,,,,,,,167,001,2024_Feb_26_1343,SpeechDraft1Carolyn_lessNoise_PlusLocalization,2021.2.3,60.018036626350714,
,,,,,,,,midRight,13.0,3,ch1Sound_localizationTask.wav,13.0,"(1142, 878)","(182, -202)",190,-338,,,,,,,,,,,,,5,2,37,5,,,,,,,,,,,,,,,,,,,,,,,,,,,,,,,,,,,,,,,,1120.174702913966,None,,,1123.1908257310279,None,1.6386243386243386,0.8317954200319946,1123.1908257310279,None,,,,,,,1121.174630988855,None,1121.3576087839901,1121.3743075588718,,,,,,,167,001,2024_Feb_26_1343,SpeechDraft1Carolyn_lessNoise_PlusLocalization,2021.2.3,60.018036626350714,
,,,,,,,,midLeft,-13.0,2,ch1Sound_localizationTask.wav,-13.0,"(762, 878)","(-198,-202)",-190,-338,,,,,,,,,,,,,5,3,38,1,,,,,,,,,,,,,,,,,,,,,,,,,,,,,,,,,,,,,,,,1124.024461642839,None,,,1127.0407433658838,None,1.384126984126984,0.732606265693903,1127.0407433658838,None,,,,,,,1125.0243721688166,None,1125.207584049087,1125.2243252517655,,,,,,,167,001,2024_Feb_26_1343,SpeechDraft1Carolyn_lessNoise_PlusLocalization,2021.2.3,60.018036626350714,
,,,,,,,,farLeft,-19.1,5,ch1Sound_localizationTask.wav,-19.1,"(667, 878)","(-293,-202)",-285,-338,,,,,,,,,,,,,5,4,39,0,,,,,,,,,,,,,,,,,,,,,,,,,,,,,,,,,,,,,,,,1127.7748786290176,None,,,1130.790834819898,None,1.3333333333333333,0.5323950708843768,1130.790834819898,None,,,,,,,1128.7741949697956,None,1128.9575549671426,1128.9744292357937,,,,,,,167,001,2024_Feb_26_1343,SpeechDraft1Carolyn_lessNoise_PlusLocalization,2021.2.3,60.018036626350714,
,,,,,,,,nearLeft,-6.5,1,ch1Sound_localizationTask.wav,-6.5,"(857, 878)","(-103,-202)",-95,-338,,,,,,,,,,,,,5,5,40,2,,,,,,,,,,,,,,,,,,,,,,,,,,,,,,,,,,,,,,,,1131.3243256201968,None,,,1134.3407992580906,None,1.4412698412698413,0.632669311016798,1134.3407992580906,None,,,,,,,1132.324491254054,None,1132.507740363013,1132.5244671260007,,,,,,,167,001,2024_Feb_26_1343,SpeechDraft1Carolyn_lessNoise_PlusLocalization,2021.2.3,60.018036626350714,
,,,,,,,,nearLeft,-6.5,1,ch1Sound_localizationTask.wav,-6.5,"(857, 878)","(-103,-202)",-95,-338,,,,,,,,,,,,,5,6,41,2,,,,,,,,,,,,,,,,,,,,,,,,,,,,,,,,,,,,,,,,1134.9752896078862,None,,,1138.007707356941,None,1.435978835978836,0.6321828039363027,1138.007707356941,None,,,,,,,1135.990895966068,None,1136.1743256621994,1136.191108901985,,,,,,,167,001,2024_Feb_26_1343,SpeechDraft1Carolyn_lessNoise_PlusLocalization,2021.2.3,60.018036626350714,
,,,,,,,,midLeft,-13.0,2,ch1Sound_localizationTask.wav,-13.0,"(762, 878)","(-198,-202)",-190,-338,,,,,,,,,,,,,6,0,42,1,,,,,,,,,,,,,,,,,,,,,,,,,,,,,,,,,,,,,,,,1138.641063482035,None,,,1141.657459273003,None,1.3888888888888888,0.54910545097664,1141.657459273003,None,,,,,,,1139.6409558658488,None,1139.8244133908302,1139.8410745621659,,,,,,,167,001,2024_Feb_26_1343,SpeechDraft1Carolyn_lessNoise_PlusLocalization,2021.2.3,60.018036626350714,
,,,,,,,,farRight,19.1,4,ch1Sound_localizationTask.wav,19.1,"(1237, 878)","(277,-202)",285,-338,,,,,,,,,,,,,6,1,43,6,,,,,,,,,,,,,,,,,,,,,,,,,,,,,,,,,,,,,,,,1142.2084573758766,None,,,1145.2241956288926,None,1.704232804232804,1.4496573098003864,1145.2241956288926,None,,,,,,,1143.207893463783,None,1143.3909159670584,1143.4076422168873,,,,,,,167,001,2024_Feb_26_1343,SpeechDraft1Carolyn_lessNoise_PlusLocalization,2021.2.3,60.018036626350714,
,,,,,,,,nearRight,6.5,0,ch1Sound_localizationTask.wav,6.5,"(1047, 878)","(87, -202)",95,-338,,,,,,,,,,,,,6,2,44,4,,,,,,,,,,,,,,,,,,,,,,,,,,,,,,,,,,,,,,,,1146.6908555231057,None,,,1149.7075503780507,None,1.5714285714285714,0.5493371109478176,1149.7075503780507,None,,,,,,,1147.6909004808404,None,1147.8746405788697,1147.8911101431586,,,,,,,167,001,2024_Feb_26_1343,SpeechDraft1Carolyn_lessNoise_PlusLocalization,2021.2.3,60.018036626350714,
,,,,,,,,nearLeft,-6.5,1,ch1Sound_localizationTask.wav,-6.5,"(857, 878)","(-103,-202)",-95,-338,,,,,,,,,,,,,6,3,45,2,,,,,,,,,,,,,,,,,,,,,,,,,,,,,,,,,,,,,,,,1150.2580779800192,None,,,1153.274102740921,None,1.4444444444444444,0.7826522039249539,1153.274102740921,None,,,,,,,1151.2577104531229,None,1151.4409515089355,1151.457669918891,,,,,,,167,001,2024_Feb_26_1343,SpeechDraft1Carolyn_lessNoise_PlusLocalization,2021.2.3,60.018036626350714,
,,,,,,,,midRight,13.0,3,ch1Sound_localizationTask.wav,13.0,"(1142, 878)","(182, -202)",190,-338,,,,,,,,,,,,,6,4,46,5,,,,,,,,,,,,,,,,,,,,,,,,,,,,,,,,,,,,,,,,1154.0743528809398,None,,,1157.0910633611493,None,1.6126984126984127,0.7816449939273298,1157.0910633611493,None,,,,,,,1155.074308551848,None,1155.2577168908902,1155.2747002569959,,,,,,,167,001,2024_Feb_26_1343,SpeechDraft1Carolyn_lessNoise_PlusLocalization,2021.2.3,60.018036626350714,
,,,,,,,,nearRight,6.5,0,ch1Sound_localizationTask.wav,6.5,"(1047, 878)","(87, -202)",95,-338,,,,,,,,,,,,,6,5,47,4,,,,,,,,,,,,,,,,,,,,,,,,,,,,,,,,,,,,,,,,1157.8744111051783,None,,,1160.8906611781567,None,1.5666666666666667,0.5483133560046554,1160.8906611781567,None,,,,,,,1158.874531579204,None,1159.0577760101296,1159.0745465820655,,,,,,,167,001,2024_Feb_26_1343,SpeechDraft1Carolyn_lessNoise_PlusLocalization,2021.2.3,60.018036626350714,
,,,,,,,,nearLeft,-6.5,1,ch1Sound_localizationTask.wav,-6.5,"(857, 878)","(-103,-202)",-95,-338,,,,,,,,,,,,,6,6,48,2,,,,,,,,,,,,,,,,,,,,,,,,,,,,,,,,,,,,,,,,1161.441339557059,None,,,1164.4577771350741,None,1.4433862433862434,0.4998198007233441,1164.4577771350741,None,,,,,,,1162.44109423412,None,1162.6246087169275,1162.6410210481845,,,,,,,167,001,2024_Feb_26_1343,SpeechDraft1Carolyn_lessNoise_PlusLocalization,2021.2.3,60.018036626350714,
,,,,,,,,midLeft,-13.0,2,ch1Sound_localizationTask.wav,-13.0,"(762, 878)","(-198,-202)",-190,-338,,,,,,,,,,,,,7,0,49,1,,,,,,,,,,,,,,,,,,,,,,,,,,,,,,,,,,,,,,,,1164.958335482981,None,,,1167.9742044159211,None,1.3973544973544973,0.5655316631309688,1167.9742044159211,None,,,,,,,1165.9576701698825,None,1166.1412880588323,1166.1576806460507,,,,,,,167,001,2024_Feb_26_1343,SpeechDraft1Carolyn_lessNoise_PlusLocalization,2021.2.3,60.018036626350714,
,,,,,,,,midLeft,-13.0,2,ch1Sound_localizationTask.wav,-13.0,"(762, 878)","(-198,-202)",-190,-338,,,,,,,,,,,,,7,1,50,1,,,,,,,,,,,,,,,,,,,,,,,,,,,,,,,,,,,,,,,,1168.5411802120507,None,,,1171.5575091741048,None,1.402116402116402,0.41611407697200775,1171.5575091741048,None,,,,,,,1169.5410121809691,None,1169.7245482690632,1169.7410241859034,,,,,,,167,001,2024_Feb_26_1343,SpeechDraft1Carolyn_lessNoise_PlusLocalization,2021.2.3,60.018036626350714,
,,,,,,,,nearLeft,-6.5,1,ch1Sound_localizationTask.wav,-6.5,"(857, 878)","(-103,-202)",-95,-338,,,,,,,,,,,,,7,2,51,2,,,,,,,,,,,,,,,,,,,,,,,,,,,,,,,,,,,,,,,,1171.9910413599573,None,,,1175.007605098188,None,1.4592592592592593,0.6143736811354756,1175.007605098188,None,,,,,,,1172.9911590712145,None,1173.174368367996,1173.19132354483,,,,,,,167,001,2024_Feb_26_1343,SpeechDraft1Carolyn_lessNoise_PlusLocalization,2021.2.3,60.018036626350714,
,,,,,,,,center,0.0,6,ch1Sound_localizationTask.wav,0.0,"(952, 878)","(-8,-202)",0,-338,,,,,,,,,,,,,7,3,52,3,,,,,,,,,,,,,,,,,,,,,,,,,,,,,,,,,,,,,,,,1175.62459626887,None,,,1178.640828157775,None,1.4904761904761905,0.6820730622857809,1178.640828157775,None,,,,,,,1176.62438732991,None,1176.807705923915,1176.8244286258705,,,,,,,167,001,2024_Feb_26_1343,SpeechDraft1Carolyn_lessNoise_PlusLocalization,2021.2.3,60.018036626350714,
,,,,,,,,center,0.0,6,ch1Sound_localizationTask.wav,0.0,"(952, 878)","(-8,-202)",0,-338,,,,,,,,,,,,,7,4,53,3,,,,,,,,,,,,,,,,,,,,,,,,,,,,,,,,,,,,,,,,1179.3247389742173,None,,,1182.3408690281212,None,1.4952380952380953,0.46582904970273376,1182.3408690281212,None,,,,,,,1180.324624652043,None,1180.5076741147786,1180.524411609862,,,,,,,167,001,2024_Feb_26_1343,SpeechDraft1Carolyn_lessNoise_PlusLocalization,2021.2.3,60.018036626350714,
,,,,,,,,nearLeft,-6.5,1,ch1Sound_localizationTask.wav,-6.5,"(857, 878)","(-103,-202)",-95,-338,,,,,,,,,,,,,7,5,54,2,,,,,,,,,,,,,,,,,,,,,,,,,,,,,,,,,,,,,,,,1182.8080484648235,None,,,1185.824187174905,None,1.4370370370370371,0.6310164970345795,1185.824187174905,None,,,,,,,1183.8082087170333,None,1183.991022168193,1184.0077573410235,,,,,,,167,001,2024_Feb_26_1343,SpeechDraft1Carolyn_lessNoise_PlusLocalization,2021.2.3,60.018036626350714,
,,,,,,,,farRight,19.1,4,ch1Sound_localizationTask.wav,19.1,"(1237, 878)","(277,-202)",285,-338,,,,,,,,,,,,,7,6,55,6,,,,,,,,,,,,,,,,,,,,,,,,,,,,,,,,,,,,,,,,1186.457646091003,None,,,1189.474319072906,None,1.6777777777777778,0.9152125041000545,1189.474319072906,None,,,,,,,1187.4580065747723,None,1187.6409646091051,1187.6575746629387,,,,,,,167,001,2024_Feb_26_1343,SpeechDraft1Carolyn_lessNoise_PlusLocalization,2021.2.3,60.018036626350714,
,,,,,,,,,,,,,,,,,,,,,,,,,,,,,,,,,,,,,,,,,,,,,,,,,,,,,,,,,,,,,,,,,,,,,,,,,,,,,,,,,,,,,,,,,,,,1190.3918676478788,None,c,853.8047597971745,1191.3743406250142,None,167,001,2024_Feb_26_1343,SpeechDraft1Carolyn_lessNoise_PlusLocalization,2021.2.3,60.018036626350714,
