{"meta_data":{"additional_headers":{},"game_name":"Recollect","version":"2.53.01","user_name":"167","organization":"braingamecenter","study":"mpl2_2022_11","session_number":0,"device_id":"74342D95-EE82-45E3-8ADF-48FB3203C5DD"},"data":[{"trial":0,"action":1,"button_pressed":8,"time_out":false,"dwell_time":63.884033203125,"response_time":1708979494092.21},{"trial":0,"action":1,"button_pressed":0,"time_out":false,"dwell_time":63.827880859375,"response_time":1708979494725.19},{"trial":0,"action":9,"button_pressed":-1,"time_out":false,"dwell_time":26.23095703125,"response_time":1708979495067.79},{"trial":1,"action":1,"button_pressed":4,"time_out":false,"dwell_time":63.23583984375,"response_time":1708979504421.43},{"trial":1,"action":1,"button_pressed":7,"time_out":false,"dwell_time":47.487060546875,"response_time":1708979504755.11},{"trial":1,"action":1,"button_pressed":10,"time_out":false,"dwell_time":48.033935546875,"response_time":1708979505039.11},{"trial":1,"action":9,"button_pressed":-1,"time_out":false,"dwell_time":48.100830078125,"response_time":1708979505672.58},{"trial":2,"action":1,"button_pressed":2,"time_out":false,"dwell_time":64.173095703125,"response_time":1708979517600.55},{"trial":2,"action":1,"button_pressed":4,"time_out":false,"dwell_time":80.48388671875,"response_time":1708979517917.78},{"trial":2,"action":1,"button_pressed":10,"time_out":false,"dwell_time":63.713134765625,"response_time":1708979518250.89},{"trial":2,"action":1,"button_pressed":5,"time_out":false,"dwell_time":81.048095703125,"response_time":1708979518634.1},{"trial":2,"action":9,"button_pressed":-1,"time_out":false,"dwell_time":81.14892578125,"response_time":1708979519267.05},{"trial":3,"action":1,"button_pressed":2,"time_out":false,"dwell_time":81.346923828125,"response_time":1708979533746},{"trial":3,"action":1,"button_pressed":6,"time_out":false,"dwell_time":46.8330078125,"response_time":1708979534078.91},{"trial":3,"action":1,"button_pressed":7,"time_out":false,"dwell_time":47.788818359375,"response_time":1708979534428.84},{"trial":3,"action":1,"button_pressed":0,"time_out":false,"dwell_time":63.783935546875,"response_time":1708979534912.06},{"trial":3,"action":1,"button_pressed":8,"time_out":false,"dwell_time":63.778076171875,"response_time":1708979535294.72},{"trial":3,"action":9,"button_pressed":-1,"time_out":false,"dwell_time":64.427978515625,"response_time":1708979535995.46},{"trial":4,"action":1,"button_pressed":5,"time_out":false,"dwell_time":64.212890625,"response_time":1708979553173.06},{"trial":4,"action":1,"button_pressed":10,"time_out":false,"dwell_time":47.507080078125,"response_time":1708979553689.7},{"trial":4,"action":1,"button_pressed":7,"time_out":false,"dwell_time":64.323974609375,"response_time":1708979554189.11},{"trial":4,"action":1,"button_pressed":4,"time_out":false,"dwell_time":46.7548828125,"response_time":1708979554688.63},{"trial":4,"action":1,"button_pressed":0,"time_out":false,"dwell_time":30.06103515625,"response_time":1708979555238.5},{"trial":4,"action":1,"button_pressed":8,"time_out":false,"dwell_time":46.538818359375,"response_time":1708979555755.05},{"trial":4,"action":9,"button_pressed":-1,"time_out":false,"dwell_time":48.31982421875,"response_time":1708979556406.07},{"trial":5,"action":1,"button_pressed":1,"time_out":false,"dwell_time":47.10302734375,"response_time":1708979576048.51},{"trial":5,"action":1,"button_pressed":9,"time_out":false,"dwell_time":63.93994140625,"response_time":1708979576498.04},{"trial":5,"action":1,"button_pressed":7,"time_out":false,"dwell_time":47.9599609375,"response_time":1708979577015.44},{"trial":5,"action":1,"button_pressed":2,"time_out":false,"dwell_time":47.64501953125,"response_time":1708979577548.66},{"trial":5,"action":1,"button_pressed":5,"time_out":false,"dwell_time":63.7900390625,"response_time":1708979578780.48},{"trial":5,"action":1,"button_pressed":11,"time_out":false,"dwell_time":48.373046875,"response_time":1708979579381.41},{"trial":5,"action":1,"button_pressed":3,"time_out":false,"dwell_time":48.5400390625,"response_time":1708979580481.04},{"trial":5,"action":9,"button_pressed":-1,"time_out":false,"dwell_time":48.798095703125,"response_time":1708979581114.63},{"trial":6,"action":1,"button_pressed":2,"time_out":false,"dwell_time":64.862060546875,"response_time":1708979603589.78},{"trial":6,"action":1,"button_pressed":4,"time_out":false,"dwell_time":63.889892578125,"response_time":1708979604272.15},{"trial":6,"action":1,"button_pressed":11,"time_out":false,"dwell_time":63.774169921875,"response_time":1708979605039.1},{"trial":6,"action":1,"button_pressed":3,"time_out":false,"dwell_time":63.774169921875,"response_time":1708979605922.2},{"trial":6,"action":1,"button_pressed":5,"time_out":false,"dwell_time":63.8369140625,"response_time":1708979608388.01},{"trial":6,"action":1,"button_pressed":0,"time_out":false,"dwell_time":64.621826171875,"response_time":1708979609271.1},{"trial":6,"action":1,"button_pressed":10,"time_out":false,"dwell_time":64.381103515625,"response_time":1708979611153.74},{"trial":6,"action":1,"button_pressed":6,"time_out":false,"dwell_time":63.677978515625,"response_time":1708979612386.02},{"trial":6,"action":9,"button_pressed":-1,"time_out":false,"dwell_time":64.60400390625,"response_time":1708979614202.66},{"trial":7,"action":1,"button_pressed":5,"time_out":false,"dwell_time":48.0029296875,"response_time":1708979636862.07},{"trial":7,"action":1,"button_pressed":6,"time_out":false,"dwell_time":62.9599609375,"response_time":1708979637661.23},{"trial":7,"action":1,"button_pressed":11,"time_out":false,"dwell_time":63.81201171875,"response_time":1708979638144.42},{"trial":7,"action":1,"button_pressed":1,"time_out":false,"dwell_time":63.7548828125,"response_time":1708979638644.96},{"trial":7,"action":1,"button_pressed":10,"time_out":false,"dwell_time":63.600830078125,"response_time":1708979639161.35},{"trial":7,"action":1,"button_pressed":7,"time_out":false,"dwell_time":63.430908203125,"response_time":1708979639793.88},{"trial":7,"action":1,"button_pressed":4,"time_out":false,"dwell_time":46.787109375,"response_time":1708979640210.77},{"trial":7,"action":9,"button_pressed":-1,"time_out":false,"dwell_time":64.60302734375,"response_time":1708979640793.89},{"trial":8,"action":1,"button_pressed":11,"time_out":false,"dwell_time":64.918212890625,"response_time":1708979658188.82},{"trial":8,"action":1,"button_pressed":8,"time_out":false,"dwell_time":63.660888671875,"response_time":1708979658637.58},{"trial":8,"action":1,"button_pressed":6,"time_out":false,"dwell_time":47.736083984375,"response_time":1708979659105.26},{"trial":8,"action":1,"button_pressed":4,"time_out":false,"dwell_time":47.491943359375,"response_time":1708979659537.75},{"trial":8,"action":1,"button_pressed":1,"time_out":false,"dwell_time":46.941162109375,"response_time":1708979660021.04},{"trial":8,"action":1,"button_pressed":10,"time_out":false,"dwell_time":64.051025390625,"response_time":1708979660421.58},{"trial":8,"action":9,"button_pressed":-1,"time_out":false,"dwell_time":64.580078125,"response_time":1708979661071.46},{"trial":9,"action":1,"button_pressed":7,"time_out":false,"dwell_time":63.19189453125,"response_time":1708979680614.01},{"trial":9,"action":1,"button_pressed":11,"time_out":false,"dwell_time":46.656005859375,"response_time":1708979681397.24},{"trial":9,"action":1,"button_pressed":0,"time_out":false,"dwell_time":46.81005859375,"response_time":1708979686812.11},{"trial":9,"action":1,"button_pressed":9,"time_out":false,"dwell_time":46.422119140625,"response_time":1708979687412.02},{"trial":9,"action":1,"button_pressed":1,"time_out":false,"dwell_time":47.552001953125,"response_time":1708979689312.13},{"trial":9,"action":1,"button_pressed":8,"time_out":false,"dwell_time":64.424072265625,"response_time":1708979689944.78},{"trial":9,"action":1,"button_pressed":6,"time_out":false,"dwell_time":64.2939453125,"response_time":1708979690394.69},{"trial":9,"action":9,"button_pressed":-1,"time_out":false,"dwell_time":48.79296875,"response_time":1708979691111.94},{"trial":10,"action":1,"button_pressed":10,"time_out":false,"dwell_time":64.719970703125,"response_time":1708979710871.5},{"trial":10,"action":1,"button_pressed":7,"time_out":false,"dwell_time":47.380126953125,"response_time":1708979711338.18},{"trial":10,"action":1,"button_pressed":7,"time_out":false,"dwell_time":48.712158203125,"response_time":1708979711971.44},{"trial":10,"action":1,"button_pressed":7,"time_out":false,"dwell_time":46.85302734375,"response_time":1708979713153.5},{"trial":10,"action":1,"button_pressed":7,"time_out":false,"dwell_time":47.390869140625,"response_time":1708979713586.75},{"trial":10,"action":1,"button_pressed":7,"time_out":false,"dwell_time":47.510986328125,"response_time":1708979713736.79},{"trial":10,"action":1,"button_pressed":7,"time_out":false,"dwell_time":63.911865234375,"response_time":1708979714086.19},{"trial":10,"action":1,"button_pressed":7,"time_out":false,"dwell_time":47.218994140625,"response_time":1708979714653.59},{"trial":10,"action":1,"button_pressed":7,"time_out":false,"dwell_time":64.60302734375,"response_time":1708979715103.19},{"trial":10,"action":1,"button_pressed":7,"time_out":false,"dwell_time":63.763916015625,"response_time":1708979715253.18},{"trial":10,"action":1,"button_pressed":7,"time_out":false,"dwell_time":64.06396484375,"response_time":1708979715535.82},{"trial":10,"action":1,"button_pressed":7,"time_out":false,"dwell_time":63.785888671875,"response_time":1708979715702.44},{"trial":10,"action":1,"button_pressed":7,"time_out":false,"dwell_time":63.889892578125,"response_time":1708979715852.23},{"trial":10,"action":1,"button_pressed":7,"time_out":false,"dwell_time":63.94482421875,"response_time":1708979716019.79},{"trial":10,"action":1,"button_pressed":7,"time_out":false,"dwell_time":47.005859375,"response_time":1708979716152.69},{"trial":10,"action":1,"button_pressed":7,"time_out":false,"dwell_time":63.075927734375,"response_time":1708979716368.79},{"trial":10,"action":1,"button_pressed":7,"time_out":false,"dwell_time":47.781982421875,"response_time":1708979716520.06},{"trial":10,"action":1,"button_pressed":7,"time_out":false,"dwell_time":48.30908203125,"response_time":1708979716636.52},{"trial":10,"action":1,"button_pressed":7,"time_out":false,"dwell_time":63.7451171875,"response_time":1708979716752.76},{"trial":10,"action":1,"button_pressed":7,"time_out":false,"dwell_time":81.592041015625,"response_time":1708979716886.15},{"trial":10,"action":1,"button_pressed":7,"time_out":false,"dwell_time":31.0791015625,"response_time":1708979716953.27},{"trial":10,"action":1,"button_pressed":7,"time_out":false,"dwell_time":47.592041015625,"response_time":1708979717103.15},{"trial":10,"action":1,"button_pressed":7,"time_out":false,"dwell_time":113.768798828125,"response_time":1708979717301.85},{"trial":10,"action":1,"button_pressed":7,"time_out":false,"dwell_time":48.75,"response_time":1708979717452.99},{"trial":10,"action":1,"button_pressed":7,"time_out":false,"dwell_time":47.652099609375,"response_time":1708979717602.98},{"trial":10,"action":1,"button_pressed":7,"time_out":false,"dwell_time":63.791015625,"response_time":1708979717835.72},{"trial":10,"action":1,"button_pressed":7,"time_out":false,"dwell_time":46.968994140625,"response_time":1708979717968.77},{"trial":10,"action":1,"button_pressed":7,"time_out":false,"dwell_time":30.4169921875,"response_time":1708979718185.46},{"trial":10,"action":1,"button_pressed":7,"time_out":false,"dwell_time":47.070068359375,"response_time":1708979719868.24},{"trial":10,"action":1,"button_pressed":7,"time_out":false,"dwell_time":64.556884765625,"response_time":1708979720035.04},{"trial":10,"action":1,"button_pressed":7,"time_out":false,"dwell_time":81.2958984375,"response_time":1708979720185.15},{"trial":10,"action":1,"button_pressed":7,"time_out":false,"dwell_time":164.596923828125,"response_time":1708979720384.9},{"trial":10,"action":1,"button_pressed":7,"time_out":false,"dwell_time":30.35595703125,"response_time":1708979720534.52},{"trial":10,"action":1,"button_pressed":2,"time_out":false,"dwell_time":63.775146484375,"response_time":1708979724800.1},{"trial":10,"action":1,"button_pressed":6,"time_out":false,"dwell_time":46.255126953125,"response_time":1708979728565.11},{"trial":10,"action":1,"button_pressed":1,"time_out":false,"dwell_time":47.339111328125,"response_time":1708979729248.29},{"trial":10,"action":1,"button_pressed":3,"time_out":false,"dwell_time":64.447021484375,"response_time":1708979729731.78},{"trial":10,"action":1,"button_pressed":4,"time_out":false,"dwell_time":81.490966796875,"response_time":1708979729998.55},{"trial":10,"action":9,"button_pressed":-1,"time_out":false,"dwell_time":48.610107421875,"response_time":1708979730799.25}]}