{"meta_data":{"additional_headers":{},"game_name":"Recollect","version":"2.53.01","user_name":"167","organization":"braingamecenter","study":"mpl2_2022_11","session_number":0,"device_id":"74342D95-EE82-45E3-8ADF-48FB3203C5DD"},"data":[{"stage":"Practice","trial":0,"sequence":"6F","letter_input":"F","number_input":"6","is_correct":true,"presentation_start_time":1708979748756.62,"presentation_end_time":1708979751759.48,"response_time":1708979756490.51},{"stage":"Practice","trial":1,"sequence":"G4","letter_input":"G","number_input":"4","is_correct":true,"presentation_start_time":1708979758020.34,"presentation_end_time":1708979761023.22,"response_time":1708979764668.24},{"stage":"Practice","trial":2,"sequence":"3W5","letter_input":"W","number_input":"35","is_correct":true,"presentation_start_time":1708979766201.07,"presentation_end_time":1708979770703.31,"response_time":1708979775114.73},{"stage":"Practice","trial":3,"sequence":"T7L","letter_input":"LT","number_input":"7","is_correct":true,"presentation_start_time":1708979776647.63,"presentation_end_time":1708979781149.55,"response_time":1708979787677.45},{"stage":"Practice","trial":4,"sequence":"9J1","letter_input":"J","number_input":"19","is_correct":true,"presentation_start_time":1708979789210.06,"presentation_end_time":1708979793712.33,"response_time":1708979798390.47},{"stage":"Calibration","trial":0,"sequence":"M2","letter_input":"M","number_input":"2","is_correct":true,"presentation_start_time":1708979806687.69,"presentation_end_time":1708979809690.56,"response_time":1708979812952.48},{"stage":"Calibration","trial":1,"sequence":"7P","letter_input":"P","number_input":"7","is_correct":true,"presentation_start_time":1708979814485.1,"presentation_end_time":1708979817488.08,"response_time":1708979820833.11},{"stage":"Calibration","trial":2,"sequence":"Y6D","letter_input":"DY","number_input":"6","is_correct":true,"presentation_start_time":1708979822365.87,"presentation_end_time":1708979826868.2,"response_time":1708979832812.57},{"stage":"Calibration","trial":3,"sequence":"9B4","letter_input":"B","number_input":"49","is_correct":true,"presentation_start_time":1708979834345.28,"presentation_end_time":1708979838847.78,"response_time":1708979844542.07},{"stage":"Calibration","trial":4,"sequence":"Y5E3","letter_input":"EY","number_input":"35","is_correct":true,"presentation_start_time":1708979846074.74,"presentation_end_time":1708979852076.87,"response_time":1708979857454.47},{"stage":"Calibration","trial":5,"sequence":"7K4A","letter_input":"AK","number_input":"47","is_correct":true,"presentation_start_time":1708979858987.54,"presentation_end_time":1708979864989,"response_time":1708979871816.41},{"stage":"Calibration","trial":6,"sequence":"C8N5H","letter_input":"CHN","number_input":"58","is_correct":true,"presentation_start_time":1708979873349.17,"presentation_end_time":1708979880850.66,"response_time":1708979889577.25},{"stage":"Calibration","trial":7,"sequence":"2F6B4","letter_input":"BF","number_input":"246","is_correct":true,"presentation_start_time":1708979891110,"presentation_end_time":1708979898611.42,"response_time":1708979914102.68},{"stage":"Calibration","trial":8,"sequence":"K9A5Q1","letter_input":"AKQ","number_input":"159","is_correct":true,"presentation_start_time":1708979915635.29,"presentation_end_time":1708979924636.19,"response_time":1708979937178.31},{"stage":"Calibration","trial":9,"sequence":"8M6G3B","letter_input":"BGM","number_input":"368","is_correct":true,"presentation_start_time":1708979938711.13,"presentation_end_time":1708979947711.94,"response_time":1708979972350.23},{"stage":"Calibration","trial":10,"sequence":"J4C2N9E","letter_input":"BJEN","number_input":"149","is_correct":false,"presentation_start_time":1708979973882.89,"presentation_end_time":1708979984383.5,"response_time":1708980009454.66},{"stage":"Calibration","trial":11,"sequence":"3R8F5T1","letter_input":"GERF","number_input":"138","is_correct":false,"presentation_start_time":1708980010987.41,"presentation_end_time":1708980021487.8,"response_time":1708980049764.64}]}