{"meta_data":{"additional_headers":{},"game_name":"Recollect","version":"2.53.01","user_name":"168","organization":"braingamecenter","study":"mpl2_2022_11","session_number":0,"device_id":"74342D95-EE82-45E3-8ADF-48FB3203C5DD"},"data":[{"trial":0,"action":1,"button_pressed":3,"time_out":false,"dwell_time":47.850830078125,"response_time":1708991069283.83},{"trial":0,"action":1,"button_pressed":2,"time_out":false,"dwell_time":50.243896484375,"response_time":1708991069399.88},{"trial":0,"action":9,"button_pressed":-1,"time_out":false,"dwell_time":26.44580078125,"response_time":1708991069925.88},{"trial":1,"action":1,"button_pressed":11,"time_out":false,"dwell_time":15.06103515625,"response_time":1708991079213.7},{"trial":1,"action":1,"button_pressed":2,"time_out":false,"dwell_time":64.592041015625,"response_time":1708991079679.73},{"trial":1,"action":1,"button_pressed":9,"time_out":false,"dwell_time":30.97607421875,"response_time":1708991080012.6},{"trial":1,"action":9,"button_pressed":-1,"time_out":false,"dwell_time":48.31103515625,"response_time":1708991080845.97},{"trial":2,"action":1,"button_pressed":3,"time_out":false,"dwell_time":80.904052734375,"response_time":1708991092492.22},{"trial":2,"action":1,"button_pressed":5,"time_out":false,"dwell_time":79.755126953125,"response_time":1708991092624.51},{"trial":2,"action":1,"button_pressed":9,"time_out":false,"dwell_time":63.705078125,"response_time":1708991092975.06},{"trial":2,"action":1,"button_pressed":2,"time_out":false,"dwell_time":48.22216796875,"response_time":1708991093442.06},{"trial":2,"action":9,"button_pressed":-1,"time_out":false,"dwell_time":16.43505859375,"response_time":1708991094024.3},{"trial":3,"action":1,"button_pressed":8,"time_out":false,"dwell_time":83.093994140625,"response_time":1708991108220.19},{"trial":3,"action":1,"button_pressed":4,"time_out":false,"dwell_time":63.119140625,"response_time":1708991108469.11},{"trial":3,"action":1,"button_pressed":1,"time_out":false,"dwell_time":64.02294921875,"response_time":1708991108669.21},{"trial":3,"action":1,"button_pressed":5,"time_out":false,"dwell_time":63.198974609375,"response_time":1708991108918.99},{"trial":3,"action":1,"button_pressed":3,"time_out":false,"dwell_time":14.245849609375,"response_time":1708991109636.5},{"trial":3,"action":9,"button_pressed":-1,"time_out":false,"dwell_time":48.95703125,"response_time":1708991110020.23},{"trial":4,"action":1,"button_pressed":8,"time_out":false,"dwell_time":47.705078125,"response_time":1708991126880.16},{"trial":4,"action":1,"button_pressed":1,"time_out":false,"dwell_time":64.703857421875,"response_time":1708991127130.29},{"trial":4,"action":1,"button_pressed":0,"time_out":false,"dwell_time":81.326904296875,"response_time":1708991127380.14},{"trial":4,"action":1,"button_pressed":9,"time_out":false,"dwell_time":30.093994140625,"response_time":1708991127579.9},{"trial":4,"action":1,"button_pressed":3,"time_out":false,"dwell_time":46.708984375,"response_time":1708991128196.15},{"trial":4,"action":1,"button_pressed":5,"time_out":false,"dwell_time":12.72216796875,"response_time":1708991128628.57},{"trial":4,"action":9,"button_pressed":-1,"time_out":false,"dwell_time":16.576904296875,"response_time":1708991129462.27},{"trial":5,"action":1,"button_pressed":6,"time_out":false,"dwell_time":98.0888671875,"response_time":1708991147240.29},{"trial":5,"action":1,"button_pressed":5,"time_out":false,"dwell_time":63.1337890625,"response_time":1708991147372.72},{"trial":5,"action":1,"button_pressed":0,"time_out":false,"dwell_time":63.867919921875,"response_time":1708991147589.22},{"trial":5,"action":1,"button_pressed":11,"time_out":false,"dwell_time":63.134033203125,"response_time":1708991147805.8},{"trial":5,"action":1,"button_pressed":8,"time_out":false,"dwell_time":64.474853515625,"response_time":1708991147989.72},{"trial":5,"action":1,"button_pressed":9,"time_out":false,"dwell_time":47.41015625,"response_time":1708991148306.15},{"trial":5,"action":1,"button_pressed":9,"time_out":false,"dwell_time":47.622802734375,"response_time":1708991150272.9},{"trial":5,"action":1,"button_pressed":4,"time_out":false,"dwell_time":30.216064453125,"response_time":1708991150638.63},{"trial":5,"action":1,"button_pressed":9,"time_out":false,"dwell_time":47.39306640625,"response_time":1708991151621.58},{"trial":5,"action":1,"button_pressed":9,"time_out":false,"dwell_time":47.52587890625,"response_time":1708991152222.15},{"trial":5,"action":1,"button_pressed":9,"time_out":false,"dwell_time":64.428955078125,"response_time":1708991152838.01},{"trial":5,"action":0,"button_pressed":-1,"time_out":false,"dwell_time":48.116943359375,"response_time":1708991153555.33},{"trial":5,"action":1,"button_pressed":6,"time_out":false,"dwell_time":48.02001953125,"response_time":1708991154171.48},{"trial":5,"action":1,"button_pressed":5,"time_out":false,"dwell_time":81.4970703125,"response_time":1708991154387.93},{"trial":5,"action":1,"button_pressed":0,"time_out":false,"dwell_time":47.85009765625,"response_time":1708991154637.49},{"trial":5,"action":1,"button_pressed":11,"time_out":false,"dwell_time":64.39306640625,"response_time":1708991155703.76},{"trial":5,"action":1,"button_pressed":8,"time_out":false,"dwell_time":47.52294921875,"response_time":1708991155937.65},{"trial":5,"action":1,"button_pressed":4,"time_out":false,"dwell_time":48.365966796875,"response_time":1708991156120.8},{"trial":5,"action":9,"button_pressed":-1,"time_out":false,"dwell_time":47.9072265625,"response_time":1708991156520.74},{"trial":6,"action":1,"button_pressed":8,"time_out":false,"dwell_time":79.989013671875,"response_time":1708991175896.48},{"trial":6,"action":1,"button_pressed":6,"time_out":false,"dwell_time":97.742919921875,"response_time":1708991176080.34},{"trial":6,"action":1,"button_pressed":1,"time_out":false,"dwell_time":79.4580078125,"response_time":1708991176312.8},{"trial":6,"action":1,"button_pressed":5,"time_out":false,"dwell_time":47.565185546875,"response_time":1708991176930.45},{"trial":6,"action":1,"button_pressed":7,"time_out":false,"dwell_time":47.23583984375,"response_time":1708991177346.14},{"trial":6,"action":1,"button_pressed":0,"time_out":false,"dwell_time":30.921875,"response_time":1708991177680.19},{"trial":6,"action":1,"button_pressed":11,"time_out":false,"dwell_time":47.557861328125,"response_time":1708991177980.04},{"trial":6,"action":9,"button_pressed":-1,"time_out":false,"dwell_time":30.927001953125,"response_time":1708991178529.66},{"trial":7,"action":1,"button_pressed":3,"time_out":false,"dwell_time":30.364990234375,"response_time":1708991198572.51},{"trial":7,"action":1,"button_pressed":5,"time_out":false,"dwell_time":82.68505859375,"response_time":1708991200971.11},{"trial":7,"action":0,"button_pressed":-1,"time_out":false,"dwell_time":65.02197265625,"response_time":1708991202204.94},{"trial":7,"action":1,"button_pressed":3,"time_out":false,"dwell_time":47.368896484375,"response_time":1708991202688.33},{"trial":7,"action":1,"button_pressed":0,"time_out":false,"dwell_time":47.830078125,"response_time":1708991202971.04},{"trial":7,"action":1,"button_pressed":10,"time_out":false,"dwell_time":47.281982421875,"response_time":1708991204087.09},{"trial":7,"action":1,"button_pressed":5,"time_out":false,"dwell_time":81.2060546875,"response_time":1708991204487.3},{"trial":7,"action":1,"button_pressed":4,"time_out":false,"dwell_time":46.910888671875,"response_time":1708991205203.41},{"trial":7,"action":1,"button_pressed":1,"time_out":false,"dwell_time":63.426025390625,"response_time":1708991205586.47},{"trial":7,"action":1,"button_pressed":2,"time_out":false,"dwell_time":63.799072265625,"response_time":1708991205903.42},{"trial":7,"action":9,"button_pressed":-1,"time_out":false,"dwell_time":48.267822265625,"response_time":1708991206386.79},{"trial":8,"action":1,"button_pressed":3,"time_out":false,"dwell_time":47.819091796875,"response_time":1708991228245.76},{"trial":8,"action":1,"button_pressed":0,"time_out":false,"dwell_time":63.7880859375,"response_time":1708991228478.55},{"trial":8,"action":1,"button_pressed":8,"time_out":false,"dwell_time":48.18701171875,"response_time":1708991228746.23},{"trial":8,"action":1,"button_pressed":7,"time_out":false,"dwell_time":48.2958984375,"response_time":1708991228979.46},{"trial":8,"action":1,"button_pressed":5,"time_out":false,"dwell_time":47.610107421875,"response_time":1708991229195.3},{"trial":8,"action":1,"button_pressed":1,"time_out":false,"dwell_time":31.0390625,"response_time":1708991229428.68},{"trial":8,"action":1,"button_pressed":9,"time_out":false,"dwell_time":30.01904296875,"response_time":1708991229728.38},{"trial":8,"action":1,"button_pressed":10,"time_out":false,"dwell_time":47.605224609375,"response_time":1708991229928.45},{"trial":8,"action":9,"button_pressed":-1,"time_out":false,"dwell_time":30.364013671875,"response_time":1708991230361.96},{"trial":9,"action":1,"button_pressed":1,"time_out":false,"dwell_time":64.304931640625,"response_time":1708991252738.09},{"trial":9,"action":1,"button_pressed":10,"time_out":false,"dwell_time":79.97607421875,"response_time":1708991253670.25},{"trial":9,"action":1,"button_pressed":3,"time_out":false,"dwell_time":46.824951171875,"response_time":1708991254286.84},{"trial":9,"action":1,"button_pressed":2,"time_out":false,"dwell_time":47.515869140625,"response_time":1708991254786.77},{"trial":9,"action":0,"button_pressed":-1,"time_out":false,"dwell_time":47.992919921875,"response_time":1708991255836.61},{"trial":9,"action":1,"button_pressed":1,"time_out":false,"dwell_time":47.210205078125,"response_time":1708991256419.4},{"trial":9,"action":1,"button_pressed":10,"time_out":false,"dwell_time":47.261962890625,"response_time":1708991256819.29},{"trial":9,"action":1,"button_pressed":3,"time_out":false,"dwell_time":46.8349609375,"response_time":1708991257219.21},{"trial":9,"action":1,"button_pressed":0,"time_out":false,"dwell_time":30.25390625,"response_time":1708991257485.85},{"trial":9,"action":1,"button_pressed":2,"time_out":false,"dwell_time":46.7138671875,"response_time":1708991257835.61},{"trial":9,"action":1,"button_pressed":7,"time_out":false,"dwell_time":47.640869140625,"response_time":1708991259018.56},{"trial":9,"action":1,"button_pressed":9,"time_out":false,"dwell_time":46.342041015625,"response_time":1708991259435.07},{"trial":9,"action":1,"button_pressed":4,"time_out":false,"dwell_time":64.676025390625,"response_time":1708991259718.76},{"trial":9,"action":9,"button_pressed":-1,"time_out":false,"dwell_time":47.947998046875,"response_time":1708991260201.84},{"trial":10,"action":1,"button_pressed":3,"time_out":false,"dwell_time":31.06005859375,"response_time":1708991277529.14},{"trial":10,"action":1,"button_pressed":7,"time_out":false,"dwell_time":30.904052734375,"response_time":1708991277795.68},{"trial":10,"action":1,"button_pressed":4,"time_out":false,"dwell_time":47.405029296875,"response_time":1708991278211.97},{"trial":10,"action":1,"button_pressed":10,"time_out":false,"dwell_time":30.114013671875,"response_time":1708991278428.74},{"trial":10,"action":1,"button_pressed":2,"time_out":false,"dwell_time":48,"response_time":1708991279195.97},{"trial":10,"action":1,"button_pressed":9,"time_out":false,"dwell_time":47.3291015625,"response_time":1708991279545.63},{"trial":10,"action":9,"button_pressed":-1,"time_out":false,"dwell_time":16.383056640625,"response_time":1708991279977.86},{"trial":11,"action":1,"button_pressed":1,"time_out":false,"dwell_time":49.326904296875,"response_time":1708991299605.07},{"trial":11,"action":1,"button_pressed":9,"time_out":false,"dwell_time":47.18310546875,"response_time":1708991300121.16},{"trial":11,"action":1,"button_pressed":7,"time_out":false,"dwell_time":47.693115234375,"response_time":1708991300455.42},{"trial":11,"action":1,"button_pressed":2,"time_out":false,"dwell_time":46.699951171875,"response_time":1708991301037.6},{"trial":11,"action":1,"button_pressed":5,"time_out":false,"dwell_time":46.7998046875,"response_time":1708991301437.53},{"trial":11,"action":1,"button_pressed":11,"time_out":false,"dwell_time":47.97705078125,"response_time":1708991301838.49},{"trial":11,"action":1,"button_pressed":3,"time_out":false,"dwell_time":47.462158203125,"response_time":1708991302237.92},{"trial":11,"action":9,"button_pressed":-1,"time_out":false,"dwell_time":48.498046875,"response_time":1708991303488.14},{"trial":12,"action":1,"button_pressed":5,"time_out":false,"dwell_time":65.090087890625,"response_time":1708991325779.73},{"trial":12,"action":0,"button_pressed":-1,"time_out":false,"dwell_time":64.72607421875,"response_time":1708991326562.91},{"trial":12,"action":0,"button_pressed":-1,"time_out":false,"dwell_time":81.197998046875,"response_time":1708991326695.6},{"trial":12,"action":0,"button_pressed":-1,"time_out":false,"dwell_time":48.14111328125,"response_time":1708991327428.37},{"trial":12,"action":0,"button_pressed":-1,"time_out":false,"dwell_time":64.2060546875,"response_time":1708991327629.25},{"trial":12,"action":1,"button_pressed":1,"time_out":false,"dwell_time":64.388916015625,"response_time":1708991328861.82},{"trial":12,"action":1,"button_pressed":3,"time_out":false,"dwell_time":47.467041015625,"response_time":1708991330361.73},{"trial":12,"action":1,"button_pressed":4,"time_out":false,"dwell_time":47.39599609375,"response_time":1708991330627.47},{"trial":12,"action":1,"button_pressed":10,"time_out":false,"dwell_time":47.51806640625,"response_time":1708991331228.3},{"trial":12,"action":1,"button_pressed":5,"time_out":false,"dwell_time":47.56689453125,"response_time":1708991331828.04},{"trial":12,"action":1,"button_pressed":7,"time_out":false,"dwell_time":30.873046875,"response_time":1708991332277.88},{"trial":12,"action":1,"button_pressed":0,"time_out":false,"dwell_time":64.743896484375,"response_time":1708991332644.04},{"trial":12,"action":1,"button_pressed":11,"time_out":false,"dwell_time":48.205810546875,"response_time":1708991332960.8},{"trial":12,"action":9,"button_pressed":-1,"time_out":false,"dwell_time":64.299072265625,"response_time":1708991333327.36},{"trial":13,"action":1,"button_pressed":5,"time_out":false,"dwell_time":1763.45288085938,"response_time":1708991354970.21},{"trial":13,"action":1,"button_pressed":8,"time_out":false,"dwell_time":2013.12109375,"response_time":1708991355219.88},{"trial":13,"action":1,"button_pressed":9,"time_out":false,"dwell_time":2446.93701171875,"response_time":1708991355653.7},{"trial":13,"action":0,"button_pressed":-1,"time_out":false,"dwell_time":3012.99609375,"response_time":1708991356219.76},{"trial":13,"action":0,"button_pressed":-1,"time_out":false,"dwell_time":3145.98999023438,"response_time":1708991356352.75},{"trial":13,"action":1,"button_pressed":8,"time_out":false,"dwell_time":3495.98510742188,"response_time":1708991356702.74},{"trial":13,"action":1,"button_pressed":9,"time_out":false,"dwell_time":3729.31811523438,"response_time":1708991356936.08},{"trial":13,"action":1,"button_pressed":2,"time_out":false,"dwell_time":4012.11108398438,"response_time":1708991357218.87},{"trial":13,"action":1,"button_pressed":10,"time_out":false,"dwell_time":4345.34790039063,"response_time":1708991357552.11},{"trial":13,"action":1,"button_pressed":4,"time_out":false,"dwell_time":4595.47900390625,"response_time":1708991357802.24},{"trial":13,"action":1,"button_pressed":1,"time_out":false,"dwell_time":5528.31201171875,"response_time":1708991358735.07},{"trial":13,"action":1,"button_pressed":0,"time_out":false,"dwell_time":5828.27294921875,"response_time":1708991359035.03},{"trial":13,"action":1,"button_pressed":5,"time_out":false,"dwell_time":6078.0458984375,"response_time":1708991359284.8},{"trial":13,"action":9,"button_pressed":-1,"time_out":false,"dwell_time":6512.02197265625,"response_time":1708991359718.78},{"trial":14,"action":1,"button_pressed":6,"time_out":false,"dwell_time":30.201904296875,"response_time":1708991384692.64},{"trial":14,"action":1,"button_pressed":7,"time_out":false,"dwell_time":64.205810546875,"response_time":1708991384925.99},{"trial":14,"action":1,"button_pressed":8,"time_out":false,"dwell_time":47.48388671875,"response_time":1708991385242.39},{"trial":14,"action":1,"button_pressed":1,"time_out":false,"dwell_time":47.632080078125,"response_time":1708991385542.94},{"trial":14,"action":1,"button_pressed":9,"time_out":false,"dwell_time":46.368896484375,"response_time":1708991385925.41},{"trial":14,"action":1,"button_pressed":11,"time_out":false,"dwell_time":64.40283203125,"response_time":1708991386242.69},{"trial":14,"action":1,"button_pressed":3,"time_out":false,"dwell_time":30.093017578125,"response_time":1708991386775.27},{"trial":14,"action":1,"button_pressed":2,"time_out":false,"dwell_time":63.881103515625,"response_time":1708991387407.92},{"trial":14,"action":1,"button_pressed":5,"time_out":false,"dwell_time":63.705810546875,"response_time":1708991387574.7},{"trial":14,"action":9,"button_pressed":-1,"time_out":false,"dwell_time":47.56396484375,"response_time":1708991388358.39},{"trial":15,"action":1,"button_pressed":8,"time_out":false,"dwell_time":64.68798828125,"response_time":1708991412383.72},{"trial":15,"action":0,"button_pressed":-1,"time_out":false,"dwell_time":65.240966796875,"response_time":1708991414432.77},{"trial":15,"action":1,"button_pressed":5,"time_out":false,"dwell_time":29.988037109375,"response_time":1708991415165.53},{"trial":15,"action":1,"button_pressed":3,"time_out":false,"dwell_time":46.843994140625,"response_time":1708991415898.71},{"trial":15,"action":0,"button_pressed":-1,"time_out":false,"dwell_time":49.2822265625,"response_time":1708991417032.36},{"trial":15,"action":1,"button_pressed":5,"time_out":false,"dwell_time":46.6669921875,"response_time":1708991417697.99},{"trial":15,"action":1,"button_pressed":7,"time_out":false,"dwell_time":47.53515625,"response_time":1708991418831.71},{"trial":15,"action":1,"button_pressed":3,"time_out":false,"dwell_time":47.552001953125,"response_time":1708991419331.45},{"trial":15,"action":1,"button_pressed":4,"time_out":false,"dwell_time":47.501953125,"response_time":1708991419647.37},{"trial":15,"action":1,"button_pressed":10,"time_out":false,"dwell_time":64.237060546875,"response_time":1708991420130.7},{"trial":15,"action":1,"button_pressed":9,"time_out":false,"dwell_time":64.6279296875,"response_time":1708991420447.62},{"trial":15,"action":1,"button_pressed":0,"time_out":false,"dwell_time":47.5419921875,"response_time":1708991420846.98},{"trial":15,"action":1,"button_pressed":11,"time_out":false,"dwell_time":47.388916015625,"response_time":1708991421330.77},{"trial":15,"action":9,"button_pressed":-1,"time_out":false,"dwell_time":16.552001953125,"response_time":1708991421863.11}]}