{"meta_data":{"additional_headers":{},"game_name":"Recollect","version":"2.53.01","user_name":"168","organization":"braingamecenter","study":"mpl2_2022_11","session_number":0,"device_id":"74342D95-EE82-45E3-8ADF-48FB3203C5DD"},"data":[{"stage":"Practice","trial":0,"sequence":"6F","letter_input":"F","number_input":"6","is_correct":true,"presentation_start_time":1708991450918.17,"presentation_end_time":1708991453920.89,"response_time":1708991459983.31},{"stage":"Practice","trial":1,"sequence":"G4","letter_input":"G","number_input":"4","is_correct":true,"presentation_start_time":1708991461514.51,"presentation_end_time":1708991464517.37,"response_time":1708991468412.31},{"stage":"Practice","trial":2,"sequence":"3W5","letter_input":"W","number_input":"35","is_correct":true,"presentation_start_time":1708991469945,"presentation_end_time":1708991474447.33,"response_time":1708991478808.75},{"stage":"Practice","trial":3,"sequence":"T7L","letter_input":"LT","number_input":"7","is_correct":true,"presentation_start_time":1708991480341.58,"presentation_end_time":1708991484843.8,"response_time":1708991490204.95},{"stage":"Practice","trial":4,"sequence":"9J1","letter_input":"J","number_input":"19","is_correct":true,"presentation_start_time":1708991491737.6,"presentation_end_time":1708991496239.89,"response_time":1708991499368.52},{"stage":"Calibration","trial":0,"sequence":"C4","letter_input":"C","number_input":"4","is_correct":true,"presentation_start_time":1708991503500.31,"presentation_end_time":1708991506503.21,"response_time":1708991509531.67},{"stage":"Calibration","trial":1,"sequence":"8Y","letter_input":"Y","number_input":"8","is_correct":true,"presentation_start_time":1708991511064.36,"presentation_end_time":1708991514067.21,"response_time":1708991517428.98},{"stage":"Calibration","trial":2,"sequence":"R9A","letter_input":"AR","number_input":"9","is_correct":true,"presentation_start_time":1708991518961.76,"presentation_end_time":1708991523464.03,"response_time":1708991527159.11},{"stage":"Calibration","trial":3,"sequence":"8D4","letter_input":"D","number_input":"48","is_correct":true,"presentation_start_time":1708991528691.76,"presentation_end_time":1708991533194.04,"response_time":1708991537055.72},{"stage":"Calibration","trial":4,"sequence":"V9T3","letter_input":"TV","number_input":"39","is_correct":true,"presentation_start_time":1708991538588.42,"presentation_end_time":1708991544590.2,"response_time":1708991553483.55},{"stage":"Calibration","trial":5,"sequence":"4R1A","letter_input":"AR","number_input":"14","is_correct":true,"presentation_start_time":1708991555016.26,"presentation_end_time":1708991561017.87,"response_time":1708991565146.17},{"stage":"Calibration","trial":6,"sequence":"J8Y3S","letter_input":"JSY","number_input":"38","is_correct":true,"presentation_start_time":1708991566678.81,"presentation_end_time":1708991574180.12,"response_time":1708991579657.81},{"stage":"Calibration","trial":7,"sequence":"7N1F9","letter_input":"FN","number_input":"17","is_correct":false,"presentation_start_time":1708991581190.62,"presentation_end_time":1708991588691.86,"response_time":1708991594702.77},{"stage":"Calibration","trial":8,"sequence":"C5Q2K8","letter_input":"CQY","number_input":"258","is_correct":false,"presentation_start_time":1708991596235.51,"presentation_end_time":1708991605236.35,"response_time":1708991613546.5},{"stage":"Calibration","trial":9,"sequence":"4N1Z6S","letter_input":"JNS","number_input":"146","is_correct":false,"presentation_start_time":1708991615079.1,"presentation_end_time":1708991624079.71,"response_time":1708991632456.65}]}