{"meta_data":{"additional_headers":{},"game_name":"Recollect","version":"2.53.01","user_name":"169","organization":"braingamecenter","study":"mpl2_2022_11","session_number":0,"device_id":"74342D95-EE82-45E3-8ADF-48FB3203C5DD"},"data":[{"trial":0,"action":1,"button_pressed":4,"time_out":false,"dwell_time":46.949951171875,"response_time":1709059340393.32},{"trial":0,"action":1,"button_pressed":11,"time_out":false,"dwell_time":63.798095703125,"response_time":1709059340992.44},{"trial":0,"action":9,"button_pressed":-1,"time_out":false,"dwell_time":75.197021484375,"response_time":1709059342320.49},{"trial":1,"action":1,"button_pressed":3,"time_out":false,"dwell_time":47.178955078125,"response_time":1709059352022.77},{"trial":1,"action":1,"button_pressed":9,"time_out":false,"dwell_time":47.44189453125,"response_time":1709059352456.55},{"trial":1,"action":1,"button_pressed":7,"time_out":false,"dwell_time":46.66015625,"response_time":1709059353122.18},{"trial":1,"action":9,"button_pressed":-1,"time_out":false,"dwell_time":48.244140625,"response_time":1709059353806.47},{"trial":2,"action":1,"button_pressed":0,"time_out":false,"dwell_time":80.75390625,"response_time":1709059365717.77},{"trial":2,"action":1,"button_pressed":10,"time_out":false,"dwell_time":47.412109375,"response_time":1709059366101.3},{"trial":2,"action":1,"button_pressed":2,"time_out":false,"dwell_time":63.580810546875,"response_time":1709059366934.49},{"trial":2,"action":1,"button_pressed":6,"time_out":false,"dwell_time":63.635009765625,"response_time":1709059367450.41},{"trial":2,"action":9,"button_pressed":-1,"time_out":false,"dwell_time":48.35302734375,"response_time":1709059368385.06},{"trial":3,"action":1,"button_pressed":7,"time_out":false,"dwell_time":47.913818359375,"response_time":1709059383262.45},{"trial":3,"action":1,"button_pressed":4,"time_out":false,"dwell_time":113.047119140625,"response_time":1709059383978.3},{"trial":3,"action":1,"button_pressed":11,"time_out":false,"dwell_time":63.008056640625,"response_time":1709059384511.39},{"trial":3,"action":1,"button_pressed":3,"time_out":false,"dwell_time":62.99609375,"response_time":1709059384944.55},{"trial":3,"action":1,"button_pressed":10,"time_out":false,"dwell_time":80.537841796875,"response_time":1709059385394.55},{"trial":3,"action":9,"button_pressed":-1,"time_out":false,"dwell_time":81.829833984375,"response_time":1709059386195.44},{"trial":4,"action":1,"button_pressed":5,"time_out":false,"dwell_time":80.845947265625,"response_time":1709059403420.34},{"trial":4,"action":1,"button_pressed":10,"time_out":false,"dwell_time":46.712158203125,"response_time":1709059404053.51},{"trial":4,"action":1,"button_pressed":7,"time_out":false,"dwell_time":64.47802734375,"response_time":1709059404586.72},{"trial":4,"action":1,"button_pressed":4,"time_out":false,"dwell_time":80.591796875,"response_time":1709059405119.89},{"trial":4,"action":1,"button_pressed":0,"time_out":false,"dwell_time":80.487060546875,"response_time":1709059405418.95},{"trial":4,"action":1,"button_pressed":8,"time_out":false,"dwell_time":79.60009765625,"response_time":1709059405752.07},{"trial":4,"action":9,"button_pressed":-1,"time_out":false,"dwell_time":80.97900390625,"response_time":1709059406985.15},{"trial":5,"action":1,"button_pressed":11,"time_out":false,"dwell_time":31.364013671875,"response_time":1709059427909.25},{"trial":5,"action":1,"button_pressed":4,"time_out":false,"dwell_time":81.14990234375,"response_time":1709059428442.35},{"trial":5,"action":1,"button_pressed":3,"time_out":false,"dwell_time":63.888916015625,"response_time":1709059428742.29},{"trial":5,"action":1,"button_pressed":10,"time_out":false,"dwell_time":81.177001953125,"response_time":1709059429175.46},{"trial":5,"action":1,"button_pressed":2,"time_out":false,"dwell_time":80.388916015625,"response_time":1709059429675.17},{"trial":5,"action":1,"button_pressed":8,"time_out":false,"dwell_time":80.89501953125,"response_time":1709059429958.46},{"trial":5,"action":1,"button_pressed":1,"time_out":false,"dwell_time":80.552978515625,"response_time":1709059430458.31},{"trial":5,"action":9,"button_pressed":-1,"time_out":false,"dwell_time":65.158935546875,"response_time":1709059432957.79},{"trial":6,"action":1,"button_pressed":3,"time_out":false,"dwell_time":63.7578125,"response_time":1709059456349.12},{"trial":6,"action":1,"button_pressed":1,"time_out":false,"dwell_time":63.841064453125,"response_time":1709059456649.04},{"trial":6,"action":1,"button_pressed":8,"time_out":false,"dwell_time":81.02490234375,"response_time":1709059457132.08},{"trial":6,"action":1,"button_pressed":5,"time_out":false,"dwell_time":97.291015625,"response_time":1709059457448.03},{"trial":6,"action":1,"button_pressed":7,"time_out":false,"dwell_time":97.830078125,"response_time":1709059461097.53},{"trial":6,"action":1,"button_pressed":0,"time_out":false,"dwell_time":79.5439453125,"response_time":1709059462462.96},{"trial":6,"action":1,"button_pressed":10,"time_out":false,"dwell_time":64.216064453125,"response_time":1709059462946.78},{"trial":6,"action":9,"button_pressed":-1,"time_out":false,"dwell_time":81.962890625,"response_time":1709059464463.49},{"trial":7,"action":1,"button_pressed":2,"time_out":false,"dwell_time":130.774169921875,"response_time":1709059487572.08},{"trial":7,"action":1,"button_pressed":4,"time_out":false,"dwell_time":181.199951171875,"response_time":1709059488438.46},{"trial":7,"action":1,"button_pressed":6,"time_out":false,"dwell_time":63.8359375,"response_time":1709059489204.24},{"trial":7,"action":1,"button_pressed":6,"time_out":false,"dwell_time":62.968017578125,"response_time":1709059490486.92},{"trial":7,"action":1,"button_pressed":6,"time_out":false,"dwell_time":64.491943359375,"response_time":1709059492586.89},{"trial":7,"action":1,"button_pressed":6,"time_out":false,"dwell_time":46.77294921875,"response_time":1709059493119.74},{"trial":7,"action":1,"button_pressed":6,"time_out":false,"dwell_time":64.510986328125,"response_time":1709059493353.29},{"trial":7,"action":1,"button_pressed":6,"time_out":false,"dwell_time":63.56494140625,"response_time":1709059493836.35},{"trial":7,"action":1,"button_pressed":6,"time_out":false,"dwell_time":63.7919921875,"response_time":1709059494386.29},{"trial":7,"action":1,"button_pressed":6,"time_out":false,"dwell_time":63.412109375,"response_time":1709059494836.06},{"trial":7,"action":1,"button_pressed":6,"time_out":false,"dwell_time":48.2119140625,"response_time":1709059495069.91},{"trial":7,"action":1,"button_pressed":6,"time_out":false,"dwell_time":81.23583984375,"response_time":1709059495752.53},{"trial":7,"action":1,"button_pressed":6,"time_out":false,"dwell_time":62.89990234375,"response_time":1709059496184.9},{"trial":7,"action":1,"button_pressed":6,"time_out":false,"dwell_time":64.427001953125,"response_time":1709059496402.22},{"trial":7,"action":1,"button_pressed":6,"time_out":false,"dwell_time":47.307861328125,"response_time":1709059496602.68},{"trial":7,"action":1,"button_pressed":6,"time_out":false,"dwell_time":65.472900390625,"response_time":1709059497253.01},{"trial":7,"action":1,"button_pressed":6,"time_out":false,"dwell_time":80.3701171875,"response_time":1709059497468.67},{"trial":7,"action":1,"button_pressed":6,"time_out":false,"dwell_time":63.591064453125,"response_time":1709059497651.76},{"trial":7,"action":1,"button_pressed":6,"time_out":false,"dwell_time":63.0810546875,"response_time":1709059497867.81},{"trial":7,"action":1,"button_pressed":6,"time_out":false,"dwell_time":80.43310546875,"response_time":1709059498335.03},{"trial":7,"action":1,"button_pressed":6,"time_out":false,"dwell_time":97.920166015625,"response_time":1709059498518.35},{"trial":7,"action":1,"button_pressed":6,"time_out":false,"dwell_time":97.9072265625,"response_time":1709059498701.73},{"trial":7,"action":1,"button_pressed":6,"time_out":false,"dwell_time":97.676025390625,"response_time":1709059498884.84},{"trial":7,"action":1,"button_pressed":6,"time_out":false,"dwell_time":62.85400390625,"response_time":1709059499017.28},{"trial":7,"action":0,"button_pressed":-1,"time_out":false,"dwell_time":47.947998046875,"response_time":1709059499701.8},{"trial":7,"action":1,"button_pressed":2,"time_out":false,"dwell_time":96.4072265625,"response_time":1709059500850.11},{"trial":7,"action":1,"button_pressed":4,"time_out":false,"dwell_time":98.087158203125,"response_time":1709059501184.21},{"trial":7,"action":1,"button_pressed":11,"time_out":false,"dwell_time":80.18994140625,"response_time":1709059501633.95},{"trial":7,"action":1,"button_pressed":6,"time_out":false,"dwell_time":63.59521484375,"response_time":1709059502032.98},{"trial":7,"action":1,"button_pressed":5,"time_out":false,"dwell_time":80.465087890625,"response_time":1709059503732.51},{"trial":7,"action":1,"button_pressed":0,"time_out":false,"dwell_time":80.56005859375,"response_time":1709059504116.48},{"trial":7,"action":1,"button_pressed":10,"time_out":false,"dwell_time":62.677001953125,"response_time":1709059504498.89},{"trial":7,"action":9,"button_pressed":-1,"time_out":false,"dwell_time":113.751953125,"response_time":1709059506948.55},{"trial":8,"action":1,"button_pressed":1,"time_out":false,"dwell_time":114.201904296875,"response_time":1709059524609.05},{"trial":8,"action":1,"button_pressed":9,"time_out":false,"dwell_time":46.81298828125,"response_time":1709059531073.87},{"trial":8,"action":1,"button_pressed":5,"time_out":false,"dwell_time":80.60693359375,"response_time":1709059531606.65},{"trial":8,"action":1,"button_pressed":6,"time_out":false,"dwell_time":63.73193359375,"response_time":1709059532239.69},{"trial":8,"action":1,"button_pressed":7,"time_out":false,"dwell_time":47.72998046875,"response_time":1709059532456.92},{"trial":8,"action":1,"button_pressed":3,"time_out":false,"dwell_time":64.326171875,"response_time":1709059537672.03},{"trial":8,"action":9,"button_pressed":-1,"time_out":false,"dwell_time":97.780029296875,"response_time":1709059538305.51},{"trial":9,"action":1,"button_pressed":6,"time_out":false,"dwell_time":81.333984375,"response_time":1709059556315.97},{"trial":9,"action":1,"button_pressed":5,"time_out":false,"dwell_time":63.348876953125,"response_time":1709059556964.78},{"trial":9,"action":1,"button_pressed":0,"time_out":false,"dwell_time":97.995849609375,"response_time":1709059557432.05},{"trial":9,"action":1,"button_pressed":11,"time_out":false,"dwell_time":64.365966796875,"response_time":1709059557865.19},{"trial":9,"action":1,"button_pressed":8,"time_out":false,"dwell_time":80.3291015625,"response_time":1709059558448.39},{"trial":9,"action":1,"button_pressed":4,"time_out":false,"dwell_time":97.901123046875,"response_time":1709059558881.53},{"trial":9,"action":9,"button_pressed":-1,"time_out":false,"dwell_time":48.109130859375,"response_time":1709059559514.69},{"trial":10,"action":1,"button_pressed":5,"time_out":false,"dwell_time":114.6728515625,"response_time":1709059579458.22},{"trial":10,"action":1,"button_pressed":3,"time_out":false,"dwell_time":63.789794921875,"response_time":1709059579873.83},{"trial":10,"action":1,"button_pressed":8,"time_out":false,"dwell_time":46.68603515625,"response_time":1709059580240.83},{"trial":10,"action":1,"button_pressed":11,"time_out":false,"dwell_time":63.617919921875,"response_time":1709059580774.18},{"trial":10,"action":1,"button_pressed":7,"time_out":false,"dwell_time":47.364013671875,"response_time":1709059581258.02},{"trial":10,"action":1,"button_pressed":2,"time_out":false,"dwell_time":99.316162109375,"response_time":1709059588221.74},{"trial":10,"action":1,"button_pressed":10,"time_out":false,"dwell_time":46.808837890625,"response_time":1709059588754.7},{"trial":10,"action":9,"button_pressed":-1,"time_out":false,"dwell_time":97.68701171875,"response_time":1709059589404.44},{"trial":11,"action":1,"button_pressed":6,"time_out":false,"dwell_time":81.041015625,"response_time":1709059612763.87},{"trial":11,"action":1,"button_pressed":10,"time_out":false,"dwell_time":64.160888671875,"response_time":1709059613246.84},{"trial":11,"action":1,"button_pressed":11,"time_out":false,"dwell_time":63.198974609375,"response_time":1709059613846.2},{"trial":11,"action":9,"button_pressed":-1,"time_out":false,"dwell_time":82.56103515625,"response_time":1709059622010.46}]}