{"meta_data":{"additional_headers":{},"game_name":"Recollect","version":"2.53.01","user_name":"169","organization":"braingamecenter","study":"mpl2_2022_11","session_number":0,"device_id":"74342D95-EE82-45E3-8ADF-48FB3203C5DD"},"data":[{"stage":"Practice","trial":0,"sequence":"6F","letter_input":"F","number_input":"6","is_correct":true,"presentation_start_time":1709059647883.11,"presentation_end_time":1709059650886.07,"response_time":1709059658749.33},{"stage":"Practice","trial":1,"sequence":"G4","letter_input":"G","number_input":"4","is_correct":true,"presentation_start_time":1709059660279.05,"presentation_end_time":1709059663281.96,"response_time":1709059668543.17},{"stage":"Practice","trial":2,"sequence":"3W5","letter_input":"W","number_input":"35","is_correct":true,"presentation_start_time":1709059670075.72,"presentation_end_time":1709059674578.11,"response_time":1709059681922.03},{"stage":"Practice","trial":3,"sequence":"T7L","letter_input":"LT","number_input":"7","is_correct":true,"presentation_start_time":1709059683454.67,"presentation_end_time":1709059687956.89,"response_time":1709059700815.75},{"stage":"Practice","trial":4,"sequence":"9J1","letter_input":"J","number_input":"19","is_correct":true,"presentation_start_time":1709059702348.38,"presentation_end_time":1709059706850.69,"response_time":1709059711662.12},{"stage":"Calibration","trial":0,"sequence":"W1","letter_input":"W","number_input":"1","is_correct":true,"presentation_start_time":1709059719709.34,"presentation_end_time":1709059722712.16,"response_time":1709059727740.14},{"stage":"Calibration","trial":1,"sequence":"2S","letter_input":"S","number_input":"2","is_correct":true,"presentation_start_time":1709059729272.79,"presentation_end_time":1709059732275.64,"response_time":1709059736603.82},{"stage":"Calibration","trial":2,"sequence":"T5G","letter_input":"GT","number_input":"5","is_correct":true,"presentation_start_time":1709059738136.49,"presentation_end_time":1709059742638.81,"response_time":1709059751498.89},{"stage":"Calibration","trial":3,"sequence":"8V1","letter_input":"V","number_input":"18","is_correct":true,"presentation_start_time":1709059753031.58,"presentation_end_time":1709059757533.92,"response_time":1709059761978.68},{"stage":"Calibration","trial":4,"sequence":"Q9G5","letter_input":"GQ","number_input":"59","is_correct":true,"presentation_start_time":1709059763511.38,"presentation_end_time":1709059769513.35,"response_time":1709059779189.65},{"stage":"Calibration","trial":5,"sequence":"8M3A","letter_input":"","number_input":"","is_correct":false,"presentation_start_time":1709059780722.37,"presentation_end_time":1709059786724.12,"response_time":1709059794484.58},{"stage":"Calibration","trial":6,"sequence":"R4F1Z","letter_input":"FRZ","number_input":"14","is_correct":true,"presentation_start_time":1709059796017.22,"presentation_end_time":1709059803518.52,"response_time":1709059832621.82},{"stage":"Calibration","trial":7,"sequence":"2S9D6","letter_input":"DS","number_input":"269","is_correct":true,"presentation_start_time":1709059834154.61,"presentation_end_time":1709059841655.92,"response_time":1709059860612.49},{"stage":"Calibration","trial":8,"sequence":"W7C5A3","letter_input":"AW","number_input":"57","is_correct":false,"presentation_start_time":1709059862145.25,"presentation_end_time":1709059871146.05,"response_time":1709059912545.25},{"stage":"Calibration","trial":9,"sequence":"2E8M4K","letter_input":"EFD","number_input":"26","is_correct":false,"presentation_start_time":1709059914077.97,"presentation_end_time":1709059923078.8,"response_time":1709059938636.58}]}