{"meta_data":{"additional_headers":{},"game_name":"Recollect","version":"2.53.01","user_name":"16","organization":"braingamecenter","study":"mpl2_2022_11","session_number":0,"device_id":"74342D95-EE82-45E3-8ADF-48FB3203C5DD"},"data":[{"trial":0,"action":1,"button_pressed":11,"time_out":false,"dwell_time":31.660888671875,"response_time":1676329157326.82},{"trial":0,"action":1,"button_pressed":8,"time_out":false,"dwell_time":64.873046875,"response_time":1676329157709.36},{"trial":0,"action":9,"button_pressed":-1,"time_out":false,"dwell_time":58.7119140625,"response_time":1676329158369.26},{"trial":1,"action":1,"button_pressed":6,"time_out":false,"dwell_time":48.201904296875,"response_time":1676329167889.11},{"trial":1,"action":1,"button_pressed":5,"time_out":false,"dwell_time":81.35986328125,"response_time":1676329168455.31},{"trial":1,"action":1,"button_pressed":4,"time_out":false,"dwell_time":48.328857421875,"response_time":1676329168989.48},{"trial":1,"action":9,"button_pressed":-1,"time_out":false,"dwell_time":31.871826171875,"response_time":1676329169638.83},{"trial":2,"action":1,"button_pressed":4,"time_out":false,"dwell_time":64.64208984375,"response_time":1676329181367.68},{"trial":2,"action":1,"button_pressed":2,"time_out":false,"dwell_time":31.43896484375,"response_time":1676329181801.76},{"trial":2,"action":1,"button_pressed":7,"time_out":false,"dwell_time":81.135009765625,"response_time":1676329182183.8},{"trial":2,"action":1,"button_pressed":3,"time_out":false,"dwell_time":30.85498046875,"response_time":1676329182650.82},{"trial":2,"action":9,"button_pressed":-1,"time_out":false,"dwell_time":64.76611328125,"response_time":1676329183417.15},{"trial":3,"action":1,"button_pressed":2,"time_out":false,"dwell_time":48.3359375,"response_time":1676329197696.54},{"trial":3,"action":1,"button_pressed":6,"time_out":false,"dwell_time":63.593017578125,"response_time":1676329197978.57},{"trial":3,"action":1,"button_pressed":7,"time_out":false,"dwell_time":63.7548828125,"response_time":1676329198461.86},{"trial":3,"action":1,"button_pressed":0,"time_out":false,"dwell_time":47.598876953125,"response_time":1676329198745.55},{"trial":3,"action":1,"button_pressed":8,"time_out":false,"dwell_time":63.51513671875,"response_time":1676329199544.68},{"trial":3,"action":9,"button_pressed":-1,"time_out":false,"dwell_time":64.91796875,"response_time":1676329200494.92},{"trial":4,"action":1,"button_pressed":2,"time_out":false,"dwell_time":13.64208984375,"response_time":1676329217238.71},{"trial":4,"action":1,"button_pressed":6,"time_out":false,"dwell_time":48.18310546875,"response_time":1676329217772.41},{"trial":4,"action":1,"button_pressed":10,"time_out":false,"dwell_time":63.590087890625,"response_time":1676329218121.85},{"trial":4,"action":1,"button_pressed":9,"time_out":false,"dwell_time":14.22314453125,"response_time":1676329218472.31},{"trial":4,"action":1,"button_pressed":7,"time_out":false,"dwell_time":30.8369140625,"response_time":1676329219072.09},{"trial":4,"action":1,"button_pressed":3,"time_out":false,"dwell_time":48.291015625,"response_time":1676329219455.17},{"trial":4,"action":9,"button_pressed":-1,"time_out":false,"dwell_time":97.676025390625,"response_time":1676329220221.83},{"trial":5,"action":1,"button_pressed":4,"time_out":false,"dwell_time":48.885986328125,"response_time":1676329237516.59},{"trial":5,"action":1,"button_pressed":11,"time_out":false,"dwell_time":80.736083984375,"response_time":1676329238165.86},{"trial":5,"action":1,"button_pressed":3,"time_out":false,"dwell_time":49.02099609375,"response_time":1676329238666.18},{"trial":5,"action":1,"button_pressed":2,"time_out":false,"dwell_time":31.052978515625,"response_time":1676329239165.56},{"trial":5,"action":1,"button_pressed":10,"time_out":false,"dwell_time":81.81298828125,"response_time":1676329239648.69},{"trial":5,"action":1,"button_pressed":6,"time_out":false,"dwell_time":47.204833984375,"response_time":1676329240031.56},{"trial":5,"action":9,"button_pressed":-1,"time_out":false,"dwell_time":64.886962890625,"response_time":1676329241731.13},{"trial":6,"action":1,"button_pressed":5,"time_out":false,"dwell_time":48.31103515625,"response_time":1676329261107.97},{"trial":6,"action":1,"button_pressed":3,"time_out":false,"dwell_time":82.074951171875,"response_time":1676329261408.18},{"trial":6,"action":1,"button_pressed":8,"time_out":false,"dwell_time":48.166015625,"response_time":1676329261957.7},{"trial":6,"action":1,"button_pressed":11,"time_out":false,"dwell_time":80.912841796875,"response_time":1676329262574.47},{"trial":6,"action":1,"button_pressed":7,"time_out":false,"dwell_time":98.463134765625,"response_time":1676329263490.81},{"trial":6,"action":1,"button_pressed":4,"time_out":false,"dwell_time":48.406982421875,"response_time":1676329264157.07},{"trial":6,"action":1,"button_pressed":10,"time_out":false,"dwell_time":48.8251953125,"response_time":1676329264540.77},{"trial":6,"action":9,"button_pressed":-1,"time_out":false,"dwell_time":49.849853515625,"response_time":1676329265291.45},{"trial":7,"action":1,"button_pressed":9,"time_out":false,"dwell_time":48.221923828125,"response_time":1676329287799.93},{"trial":7,"action":1,"button_pressed":7,"time_out":false,"dwell_time":80.072021484375,"response_time":1676329287965.29},{"trial":7,"action":1,"button_pressed":4,"time_out":false,"dwell_time":48.544921875,"response_time":1676329288449.7},{"trial":7,"action":1,"button_pressed":3,"time_out":false,"dwell_time":47.322998046875,"response_time":1676329289048.7},{"trial":7,"action":1,"button_pressed":10,"time_out":false,"dwell_time":48.118896484375,"response_time":1676329289748.48},{"trial":7,"action":1,"button_pressed":5,"time_out":false,"dwell_time":80.7490234375,"response_time":1676329290531.04},{"trial":7,"action":1,"button_pressed":11,"time_out":false,"dwell_time":64.27001953125,"response_time":1676329291431.48},{"trial":7,"action":1,"button_pressed":11,"time_out":false,"dwell_time":64.362060546875,"response_time":1676329294129.87},{"trial":7,"action":1,"button_pressed":11,"time_out":false,"dwell_time":48.10888671875,"response_time":1676329295729.82},{"trial":7,"action":1,"button_pressed":11,"time_out":false,"dwell_time":81.23583984375,"response_time":1676329296246.21},{"trial":7,"action":1,"button_pressed":11,"time_out":false,"dwell_time":98.301025390625,"response_time":1676329296396.6},{"trial":7,"action":1,"button_pressed":11,"time_out":false,"dwell_time":48.68310546875,"response_time":1676329296546.98},{"trial":7,"action":1,"button_pressed":11,"time_out":false,"dwell_time":81.596923828125,"response_time":1676329296896.28},{"trial":7,"action":1,"button_pressed":11,"time_out":false,"dwell_time":97.196044921875,"response_time":1676329297045.59},{"trial":7,"action":1,"button_pressed":11,"time_out":false,"dwell_time":64.3681640625,"response_time":1676329297212.9},{"trial":7,"action":1,"button_pressed":11,"time_out":false,"dwell_time":63.6689453125,"response_time":1676329297412.16},{"trial":7,"action":1,"button_pressed":11,"time_out":false,"dwell_time":80.344970703125,"response_time":1676329297595.4},{"trial":7,"action":1,"button_pressed":11,"time_out":false,"dwell_time":80.348876953125,"response_time":1676329297762.02},{"trial":7,"action":1,"button_pressed":11,"time_out":false,"dwell_time":81.694091796875,"response_time":1676329297929.24},{"trial":7,"action":1,"button_pressed":11,"time_out":false,"dwell_time":81.014892578125,"response_time":1676329298112.6},{"trial":7,"action":1,"button_pressed":11,"time_out":false,"dwell_time":80.849853515625,"response_time":1676329298279.14},{"trial":7,"action":1,"button_pressed":11,"time_out":false,"dwell_time":81.010986328125,"response_time":1676329298445.18},{"trial":7,"action":1,"button_pressed":11,"time_out":false,"dwell_time":81.009033203125,"response_time":1676329298611.75},{"trial":7,"action":1,"button_pressed":11,"time_out":false,"dwell_time":98.464111328125,"response_time":1676329298795.74},{"trial":7,"action":1,"button_pressed":11,"time_out":false,"dwell_time":80.29296875,"response_time":1676329298961.74},{"trial":7,"action":1,"button_pressed":11,"time_out":false,"dwell_time":80.885009765625,"response_time":1676329299145.67},{"trial":7,"action":1,"button_pressed":11,"time_out":false,"dwell_time":97.77685546875,"response_time":1676329299312.34},{"trial":7,"action":1,"button_pressed":11,"time_out":false,"dwell_time":30.759033203125,"response_time":1676329299428.5},{"trial":7,"action":0,"button_pressed":-1,"time_out":false,"dwell_time":63.946044921875,"response_time":1676329300844.64},{"trial":7,"action":1,"button_pressed":9,"time_out":false,"dwell_time":48.216064453125,"response_time":1676329301444.78},{"trial":7,"action":1,"button_pressed":7,"time_out":false,"dwell_time":80.25,"response_time":1676329301627.55},{"trial":7,"action":1,"button_pressed":4,"time_out":false,"dwell_time":48.47998046875,"response_time":1676329302111.2},{"trial":7,"action":1,"button_pressed":3,"time_out":false,"dwell_time":48.10888671875,"response_time":1676329302561.5},{"trial":7,"action":1,"button_pressed":5,"time_out":false,"dwell_time":98.275146484375,"response_time":1676329303144.25},{"trial":7,"action":1,"button_pressed":8,"time_out":false,"dwell_time":47.343017578125,"response_time":1676329303527.27},{"trial":7,"action":1,"button_pressed":11,"time_out":false,"dwell_time":65.195068359375,"response_time":1676329303760.83},{"trial":7,"action":9,"button_pressed":-1,"time_out":false,"dwell_time":48.43896484375,"response_time":1676329308009.42},{"trial":8,"action":1,"button_pressed":5,"time_out":false,"dwell_time":64.52685546875,"response_time":1676329330218.61},{"trial":8,"action":1,"button_pressed":11,"time_out":false,"dwell_time":64.244873046875,"response_time":1676329330401.69},{"trial":8,"action":1,"button_pressed":11,"time_out":false,"dwell_time":80.9580078125,"response_time":1676329332933.69},{"trial":8,"action":0,"button_pressed":-1,"time_out":false,"dwell_time":48.173095703125,"response_time":1676329334151.17},{"trial":8,"action":1,"button_pressed":6,"time_out":false,"dwell_time":64.06982421875,"response_time":1676329335016.21},{"trial":8,"action":0,"button_pressed":-1,"time_out":false,"dwell_time":12.30712890625,"response_time":1676329335981.58},{"trial":8,"action":1,"button_pressed":5,"time_out":false,"dwell_time":49.14599609375,"response_time":1676329336500.39},{"trial":8,"action":1,"button_pressed":6,"time_out":false,"dwell_time":64.032958984375,"response_time":1676329336882.83},{"trial":8,"action":1,"button_pressed":11,"time_out":false,"dwell_time":30.9169921875,"response_time":1676329337299.3},{"trial":8,"action":1,"button_pressed":1,"time_out":false,"dwell_time":47.389892578125,"response_time":1676329339665.13},{"trial":8,"action":1,"button_pressed":10,"time_out":false,"dwell_time":63.6748046875,"response_time":1676329341897.43},{"trial":8,"action":1,"button_pressed":4,"time_out":false,"dwell_time":31.43115234375,"response_time":1676329342264.25},{"trial":8,"action":1,"button_pressed":7,"time_out":false,"dwell_time":65.095947265625,"response_time":1676329342581.14},{"trial":8,"action":9,"button_pressed":-1,"time_out":false,"dwell_time":47.76904296875,"response_time":1676329343564.2},{"trial":9,"action":1,"button_pressed":11,"time_out":false,"dwell_time":81.118896484375,"response_time":1676329360825.12},{"trial":9,"action":1,"button_pressed":8,"time_out":false,"dwell_time":80.9560546875,"response_time":1676329361024.24},{"trial":9,"action":1,"button_pressed":6,"time_out":false,"dwell_time":80.969970703125,"response_time":1676329361424.03},{"trial":9,"action":1,"button_pressed":4,"time_out":false,"dwell_time":48.10595703125,"response_time":1676329361574.44},{"trial":9,"action":1,"button_pressed":1,"time_out":false,"dwell_time":98.406005859375,"response_time":1676329362007.87},{"trial":9,"action":1,"button_pressed":10,"time_out":false,"dwell_time":47.2490234375,"response_time":1676329362240.85},{"trial":9,"action":9,"button_pressed":-1,"time_out":false,"dwell_time":64.807861328125,"response_time":1676329362974.01},{"trial":10,"action":1,"button_pressed":1,"time_out":false,"dwell_time":81.885986328125,"response_time":1676329382851.15},{"trial":10,"action":1,"button_pressed":9,"time_out":false,"dwell_time":64.416015625,"response_time":1676329383066.84},{"trial":10,"action":1,"button_pressed":7,"time_out":false,"dwell_time":96.952880859375,"response_time":1676329384399.7},{"trial":10,"action":1,"button_pressed":2,"time_out":false,"dwell_time":47.48291015625,"response_time":1676329384966.62},{"trial":10,"action":1,"button_pressed":5,"time_out":false,"dwell_time":81.11083984375,"response_time":1676329385299.43},{"trial":10,"action":1,"button_pressed":11,"time_out":false,"dwell_time":64.569091796875,"response_time":1676329385833.44},{"trial":10,"action":1,"button_pressed":6,"time_out":false,"dwell_time":64.740966796875,"response_time":1676329387182.84},{"trial":10,"action":9,"button_pressed":-1,"time_out":false,"dwell_time":16.927978515625,"response_time":1676329387948.71},{"trial":11,"action":1,"button_pressed":7,"time_out":false,"dwell_time":48.1318359375,"response_time":1676329407293.24},{"trial":11,"action":1,"button_pressed":11,"time_out":false,"dwell_time":47.80712890625,"response_time":1676329407759.75},{"trial":11,"action":1,"button_pressed":0,"time_out":false,"dwell_time":14.7998046875,"response_time":1676329408126.16},{"trial":11,"action":1,"button_pressed":9,"time_out":false,"dwell_time":47.27587890625,"response_time":1676329408842},{"trial":11,"action":1,"button_pressed":3,"time_out":false,"dwell_time":30.80810546875,"response_time":1676329409208.6},{"trial":11,"action":1,"button_pressed":5,"time_out":false,"dwell_time":81.716064453125,"response_time":1676329410125.27},{"trial":11,"action":1,"button_pressed":6,"time_out":false,"dwell_time":81.254150390625,"response_time":1676329410408.4},{"trial":11,"action":9,"button_pressed":-1,"time_out":false,"dwell_time":81.3740234375,"response_time":1676329412540.81}]}