{"meta_data":{"additional_headers":{},"game_name":"Recollect","version":"2.53.01","user_name":"16","organization":"braingamecenter","study":"mpl2_2022_11","session_number":0,"device_id":"74342D95-EE82-45E3-8ADF-48FB3203C5DD"},"data":[{"stage":"Practice","trial":0,"sequence":"6F","letter_input":"F","number_input":"6","is_correct":true,"presentation_start_time":1676329430500.1,"presentation_end_time":1676329433500.42,"response_time":1676329439148.99},{"stage":"Practice","trial":1,"sequence":"G4","letter_input":"G","number_input":"4","is_correct":true,"presentation_start_time":1676329440680.08,"presentation_end_time":1676329443680.23,"response_time":1676329448194.36},{"stage":"Practice","trial":2,"sequence":"3W5","letter_input":"W","number_input":"35","is_correct":true,"presentation_start_time":1676329449727.02,"presentation_end_time":1676329454226.59,"response_time":1676329460157.02},{"stage":"Practice","trial":3,"sequence":"T7L","letter_input":"LT","number_input":"7","is_correct":true,"presentation_start_time":1676329461689.65,"presentation_end_time":1676329466189.46,"response_time":1676329473485.89},{"stage":"Practice","trial":4,"sequence":"9J1","letter_input":"J","number_input":"19","is_correct":true,"presentation_start_time":1676329475018.58,"presentation_end_time":1676329479518.31,"response_time":1676329484882.09},{"stage":"Calibration","trial":0,"sequence":"A6","letter_input":"A","number_input":"6","is_correct":true,"presentation_start_time":1676329490446.71,"presentation_end_time":1676329493446.93,"response_time":1676329497394.52},{"stage":"Calibration","trial":1,"sequence":"9Z","letter_input":"Z","number_input":"9","is_correct":true,"presentation_start_time":1676329498927.24,"presentation_end_time":1676329501927.45,"response_time":1676329505758.38},{"stage":"Calibration","trial":2,"sequence":"N3K","letter_input":"KN","number_input":"3","is_correct":true,"presentation_start_time":1676329507291.12,"presentation_end_time":1676329511790.71,"response_time":1676329516804.68},{"stage":"Calibration","trial":3,"sequence":"6W4","letter_input":"W","number_input":"46","is_correct":true,"presentation_start_time":1676329518337.38,"presentation_end_time":1676329522837.08,"response_time":1676329527251.21},{"stage":"Calibration","trial":4,"sequence":"Y9L1","letter_input":"LY","number_input":"19","is_correct":true,"presentation_start_time":1676329528783.93,"presentation_end_time":1676329534783.05,"response_time":1676329540596.77},{"stage":"Calibration","trial":5,"sequence":"8E6A","letter_input":"AE","number_input":"68","is_correct":true,"presentation_start_time":1676329542129.44,"presentation_end_time":1676329548128.57,"response_time":1676329555608.36},{"stage":"Calibration","trial":6,"sequence":"D9Q7J","letter_input":"DJQ","number_input":"79","is_correct":true,"presentation_start_time":1676329557141.12,"presentation_end_time":1676329564639.9,"response_time":1676329574318.82},{"stage":"Calibration","trial":7,"sequence":"1W8R6","letter_input":"RW","number_input":"168","is_correct":true,"presentation_start_time":1676329575851.49,"presentation_end_time":1676329583350.25,"response_time":1676329588014.26},{"stage":"Calibration","trial":8,"sequence":"M3A9S5","letter_input":"AMS","number_input":"359","is_correct":true,"presentation_start_time":1676329589546.87,"presentation_end_time":1676329598545.13,"response_time":1676329603825.73},{"stage":"Calibration","trial":9,"sequence":"1J8Y6V","letter_input":"JVY","number_input":"168","is_correct":true,"presentation_start_time":1676329605358.27,"presentation_end_time":1676329614356.5,"response_time":1676329620203.42},{"stage":"Calibration","trial":10,"sequence":"G9R7M2C","letter_input":"CGMR","number_input":"127","is_correct":false,"presentation_start_time":1676329621736.18,"presentation_end_time":1676329632233.8,"response_time":1676329641246.42},{"stage":"Calibration","trial":11,"sequence":"5H3F8N1","letter_input":"FHM","number_input":"158","is_correct":false,"presentation_start_time":1676329642779.12,"presentation_end_time":1676329653276.81,"response_time":1676329671952.75}]}