{"meta_data":{"additional_headers":{},"game_name":"Recollect","version":"2.53.01","user_name":"170","organization":"braingamecenter","study":"mpl2_2022_11","session_number":0,"device_id":"74342D95-EE82-45E3-8ADF-48FB3203C5DD"},"data":[{"trial":0,"action":1,"button_pressed":3,"time_out":false,"dwell_time":63.985107421875,"response_time":1709074985726.52},{"trial":0,"action":1,"button_pressed":2,"time_out":false,"dwell_time":63.755126953125,"response_time":1709074986176.24},{"trial":0,"action":9,"button_pressed":-1,"time_out":false,"dwell_time":107.052001953125,"response_time":1709074986919.31},{"trial":1,"action":1,"button_pressed":7,"time_out":false,"dwell_time":30.194091796875,"response_time":1709074996922.57},{"trial":1,"action":1,"button_pressed":3,"time_out":false,"dwell_time":46.62109375,"response_time":1709074997422.29},{"trial":1,"action":1,"button_pressed":2,"time_out":false,"dwell_time":31.4189453125,"response_time":1709074997889.54},{"trial":1,"action":9,"button_pressed":-1,"time_out":false,"dwell_time":47.490966796875,"response_time":1709074998572.38},{"trial":2,"action":1,"button_pressed":8,"time_out":false,"dwell_time":47.744140625,"response_time":1709075010801.55},{"trial":2,"action":1,"button_pressed":1,"time_out":false,"dwell_time":48.138916015625,"response_time":1709075011368.52},{"trial":2,"action":1,"button_pressed":3,"time_out":false,"dwell_time":47.73291015625,"response_time":1709075011801.04},{"trial":2,"action":1,"button_pressed":11,"time_out":false,"dwell_time":47.327880859375,"response_time":1709075012250.74},{"trial":2,"action":9,"button_pressed":-1,"time_out":false,"dwell_time":65.072021484375,"response_time":1709075013051.24},{"trial":3,"action":1,"button_pressed":11,"time_out":false,"dwell_time":30.948974609375,"response_time":1709075027929.2},{"trial":3,"action":1,"button_pressed":1,"time_out":false,"dwell_time":47.6669921875,"response_time":1709075028395.57},{"trial":3,"action":1,"button_pressed":9,"time_out":false,"dwell_time":29.968017578125,"response_time":1709075028828.72},{"trial":3,"action":1,"button_pressed":7,"time_out":false,"dwell_time":47.281005859375,"response_time":1709075029245.25},{"trial":3,"action":1,"button_pressed":4,"time_out":false,"dwell_time":30.34912109375,"response_time":1709075029695.28},{"trial":3,"action":9,"button_pressed":-1,"time_out":false,"dwell_time":31.444091796875,"response_time":1709075030628.46},{"trial":4,"action":1,"button_pressed":6,"time_out":false,"dwell_time":30.942138671875,"response_time":1709075048089.97},{"trial":4,"action":1,"button_pressed":7,"time_out":false,"dwell_time":47.387939453125,"response_time":1709075048555.55},{"trial":4,"action":1,"button_pressed":4,"time_out":false,"dwell_time":47.60595703125,"response_time":1709075049172.08},{"trial":4,"action":1,"button_pressed":10,"time_out":false,"dwell_time":46.89794921875,"response_time":1709075050205.14},{"trial":4,"action":1,"button_pressed":2,"time_out":false,"dwell_time":46.60888671875,"response_time":1709075050538.32},{"trial":4,"action":1,"button_pressed":9,"time_out":false,"dwell_time":30.72900390625,"response_time":1709075050888.95},{"trial":4,"action":9,"button_pressed":-1,"time_out":false,"dwell_time":30.635009765625,"response_time":1709075052254.77},{"trial":5,"action":1,"button_pressed":2,"time_out":false,"dwell_time":64.776123046875,"response_time":1709075069615.81},{"trial":5,"action":1,"button_pressed":6,"time_out":false,"dwell_time":31.202880859375,"response_time":1709075069949.32},{"trial":5,"action":1,"button_pressed":10,"time_out":false,"dwell_time":64.39306640625,"response_time":1709075070298.71},{"trial":5,"action":1,"button_pressed":7,"time_out":false,"dwell_time":48.114990234375,"response_time":1709075071315.61},{"trial":5,"action":1,"button_pressed":9,"time_out":false,"dwell_time":47.485107421875,"response_time":1709075071682.08},{"trial":5,"action":1,"button_pressed":0,"time_out":false,"dwell_time":47.7060546875,"response_time":1709075071964.66},{"trial":5,"action":9,"button_pressed":-1,"time_out":false,"dwell_time":48.137939453125,"response_time":1709075072382.28},{"trial":6,"action":1,"button_pressed":3,"time_out":false,"dwell_time":64.52685546875,"response_time":1709075084777.57},{"trial":6,"action":1,"button_pressed":5,"time_out":false,"dwell_time":30.10400390625,"response_time":1709075085210.35},{"trial":6,"action":1,"button_pressed":9,"time_out":false,"dwell_time":48.1318359375,"response_time":1709075085610.93},{"trial":6,"action":1,"button_pressed":2,"time_out":false,"dwell_time":30.748779296875,"response_time":1709075086010.09},{"trial":6,"action":9,"button_pressed":-1,"time_out":false,"dwell_time":81.762939453125,"response_time":1709075086760.67},{"trial":7,"action":1,"button_pressed":4,"time_out":false,"dwell_time":32.609130859375,"response_time":1709075101406.45},{"trial":7,"action":1,"button_pressed":11,"time_out":false,"dwell_time":46.923828125,"response_time":1709075101788.42},{"trial":7,"action":1,"button_pressed":5,"time_out":false,"dwell_time":46.7509765625,"response_time":1709075102171.4},{"trial":7,"action":1,"button_pressed":3,"time_out":false,"dwell_time":47.333984375,"response_time":1709075102587.98},{"trial":7,"action":1,"button_pressed":9,"time_out":false,"dwell_time":48.14306640625,"response_time":1709075102921.99},{"trial":7,"action":9,"button_pressed":-1,"time_out":false,"dwell_time":63.743896484375,"response_time":1709075104387.34},{"trial":8,"action":1,"button_pressed":8,"time_out":false,"dwell_time":46.743896484375,"response_time":1709075121465.24},{"trial":8,"action":1,"button_pressed":0,"time_out":false,"dwell_time":63.675048828125,"response_time":1709075121965.2},{"trial":8,"action":1,"button_pressed":1,"time_out":false,"dwell_time":64.26611328125,"response_time":1709075122365.59},{"trial":8,"action":1,"button_pressed":3,"time_out":false,"dwell_time":63.860107421875,"response_time":1709075123131.53},{"trial":8,"action":1,"button_pressed":3,"time_out":false,"dwell_time":46.748046875,"response_time":1709075124280.84},{"trial":8,"action":1,"button_pressed":9,"time_out":false,"dwell_time":47.31591796875,"response_time":1709075126064.38},{"trial":8,"action":1,"button_pressed":9,"time_out":false,"dwell_time":48.239990234375,"response_time":1709075127064.04},{"trial":8,"action":1,"button_pressed":9,"time_out":false,"dwell_time":47.60888671875,"response_time":1709075127763},{"trial":8,"action":1,"button_pressed":9,"time_out":false,"dwell_time":30.68798828125,"response_time":1709075128262.76},{"trial":8,"action":1,"button_pressed":9,"time_out":false,"dwell_time":63.93505859375,"response_time":1709075128646.18},{"trial":8,"action":1,"button_pressed":9,"time_out":false,"dwell_time":64.498046875,"response_time":1709075129029.5},{"trial":8,"action":1,"button_pressed":9,"time_out":false,"dwell_time":46.85498046875,"response_time":1709075129362.71},{"trial":8,"action":1,"button_pressed":9,"time_out":false,"dwell_time":64.321044921875,"response_time":1709075129645.97},{"trial":8,"action":1,"button_pressed":9,"time_out":false,"dwell_time":63.950927734375,"response_time":1709075129828.6},{"trial":8,"action":1,"button_pressed":9,"time_out":false,"dwell_time":63.14599609375,"response_time":1709075129995.19},{"trial":8,"action":1,"button_pressed":9,"time_out":false,"dwell_time":65.31103515625,"response_time":1709075130179.21},{"trial":8,"action":1,"button_pressed":9,"time_out":false,"dwell_time":81.39599609375,"response_time":1709075130329.27},{"trial":8,"action":1,"button_pressed":9,"time_out":false,"dwell_time":47.1708984375,"response_time":1709075130478.85},{"trial":8,"action":1,"button_pressed":9,"time_out":false,"dwell_time":63.10302734375,"response_time":1709075130645.13},{"trial":8,"action":1,"button_pressed":9,"time_out":false,"dwell_time":63.996826171875,"response_time":1709075130812.26},{"trial":8,"action":1,"button_pressed":9,"time_out":false,"dwell_time":47.72607421875,"response_time":1709075131228.76},{"trial":8,"action":1,"button_pressed":9,"time_out":false,"dwell_time":63.0849609375,"response_time":1709075131394.9},{"trial":8,"action":1,"button_pressed":9,"time_out":false,"dwell_time":63.600830078125,"response_time":1709075131562.08},{"trial":8,"action":1,"button_pressed":9,"time_out":false,"dwell_time":46.7099609375,"response_time":1709075131695.08},{"trial":8,"action":0,"button_pressed":-1,"time_out":false,"dwell_time":63.672119140625,"response_time":1709075133011.15},{"trial":8,"action":1,"button_pressed":8,"time_out":false,"dwell_time":46.578125,"response_time":1709075133910.96},{"trial":8,"action":1,"button_pressed":0,"time_out":false,"dwell_time":64.279052734375,"response_time":1709075134527.61},{"trial":8,"action":1,"button_pressed":1,"time_out":false,"dwell_time":63.14111328125,"response_time":1709075135226.83},{"trial":8,"action":1,"button_pressed":9,"time_out":false,"dwell_time":63.916015625,"response_time":1709075135827.23},{"trial":8,"action":1,"button_pressed":3,"time_out":false,"dwell_time":47.577880859375,"response_time":1709075136410.38},{"trial":8,"action":1,"button_pressed":5,"time_out":false,"dwell_time":30.932861328125,"response_time":1709075136976.61},{"trial":8,"action":9,"button_pressed":-1,"time_out":false,"dwell_time":48.9609375,"response_time":1709075139143.82},{"trial":9,"action":1,"button_pressed":8,"time_out":false,"dwell_time":64.555908203125,"response_time":1709075159203.11},{"trial":9,"action":1,"button_pressed":5,"time_out":false,"dwell_time":62.990966796875,"response_time":1709075159485.47},{"trial":9,"action":1,"button_pressed":1,"time_out":false,"dwell_time":80.151123046875,"response_time":1709075160452.52},{"trial":9,"action":1,"button_pressed":6,"time_out":false,"dwell_time":80.328857421875,"response_time":1709075160835.85},{"trial":9,"action":1,"button_pressed":0,"time_out":false,"dwell_time":80.507080078125,"response_time":1709075161285.68},{"trial":9,"action":1,"button_pressed":7,"time_out":false,"dwell_time":80.446044921875,"response_time":1709075161718.14},{"trial":9,"action":1,"button_pressed":11,"time_out":false,"dwell_time":31.694091796875,"response_time":1709075162052.58},{"trial":9,"action":9,"button_pressed":-1,"time_out":false,"dwell_time":115.14306640625,"response_time":1709075163052.24},{"trial":10,"action":1,"button_pressed":5,"time_out":false,"dwell_time":46.8779296875,"response_time":1709075185677.49},{"trial":10,"action":9,"button_pressed":-1,"time_out":true,"dwell_time":10058.7880859375,"response_time":1709075195689.4},{"trial":11,"action":1,"button_pressed":10,"time_out":false,"dwell_time":64.44189453125,"response_time":1709075217950.45},{"trial":11,"action":1,"button_pressed":2,"time_out":false,"dwell_time":64.501953125,"response_time":1709075218383.62},{"trial":11,"action":1,"button_pressed":1,"time_out":false,"dwell_time":63.697021484375,"response_time":1709075218833.39},{"trial":11,"action":1,"button_pressed":8,"time_out":false,"dwell_time":46.61181640625,"response_time":1709075219266.34},{"trial":11,"action":1,"button_pressed":11,"time_out":false,"dwell_time":63.76513671875,"response_time":1709075219849.03},{"trial":11,"action":1,"button_pressed":9,"time_out":false,"dwell_time":81.573974609375,"response_time":1709075220233.5},{"trial":11,"action":1,"button_pressed":5,"time_out":false,"dwell_time":30.93603515625,"response_time":1709075220616.66},{"trial":11,"action":9,"button_pressed":-1,"time_out":false,"dwell_time":64.758056640625,"response_time":1709075221382.64}]}