{"meta_data":{"additional_headers":{},"game_name":"Recollect","version":"2.53.01","user_name":"170","organization":"braingamecenter","study":"mpl2_2022_11","session_number":0,"device_id":"74342D95-EE82-45E3-8ADF-48FB3203C5DD"},"data":[{"stage":"Practice","trial":0,"sequence":"6F","letter_input":"F","number_input":"6","is_correct":true,"presentation_start_time":1709075239874.37,"presentation_end_time":1709075242877.24,"response_time":1709075250489.2},{"stage":"Practice","trial":1,"sequence":"G4","letter_input":"G","number_input":"4","is_correct":true,"presentation_start_time":1709075252020.39,"presentation_end_time":1709075255023.27,"response_time":1709075260101.11},{"stage":"Practice","trial":2,"sequence":"3W5","letter_input":"W","number_input":"35","is_correct":true,"presentation_start_time":1709075261633.95,"presentation_end_time":1709075266136.33,"response_time":1709075272830.29},{"stage":"Practice","trial":3,"sequence":"T7L","letter_input":"LT","number_input":"7","is_correct":true,"presentation_start_time":1709075274363.08,"presentation_end_time":1709075278865.57,"response_time":1709075286276.01},{"stage":"Practice","trial":4,"sequence":"9J1","letter_input":"J","number_input":"19","is_correct":true,"presentation_start_time":1709075287808.67,"presentation_end_time":1709075292310.93,"response_time":1709075299521.55},{"stage":"Calibration","trial":0,"sequence":"P5","letter_input":"P","number_input":"5","is_correct":true,"presentation_start_time":1709075303153.61,"presentation_end_time":1709075306156.49,"response_time":1709075310351.37},{"stage":"Calibration","trial":1,"sequence":"1K","letter_input":"K","number_input":"1","is_correct":true,"presentation_start_time":1709075311884.11,"presentation_end_time":1709075314887.02,"response_time":1709075318498.72},{"stage":"Calibration","trial":2,"sequence":"J8D","letter_input":"DJ","number_input":"8","is_correct":true,"presentation_start_time":1709075320031.51,"presentation_end_time":1709075324533.82,"response_time":1709075332327.49},{"stage":"Calibration","trial":3,"sequence":"6Y4","letter_input":"Y","number_input":"46","is_correct":true,"presentation_start_time":1709075333860.28,"presentation_end_time":1709075338362.56,"response_time":1709075342974.04},{"stage":"Calibration","trial":4,"sequence":"W8T3","letter_input":"TW","number_input":"38","is_correct":true,"presentation_start_time":1709075344506.68,"presentation_end_time":1709075350508.58,"response_time":1709075372214.44},{"stage":"Calibration","trial":5,"sequence":"5Z2Q","letter_input":"QZ","number_input":"25","is_correct":true,"presentation_start_time":1709075373747.17,"presentation_end_time":1709075379749.03,"response_time":1709075395606.79},{"stage":"Calibration","trial":6,"sequence":"H8B3J","letter_input":"BHJ","number_input":"38","is_correct":true,"presentation_start_time":1709075397139.45,"presentation_end_time":1709075404641.03,"response_time":1709075436493.37},{"stage":"Calibration","trial":7,"sequence":"4Y2F9","letter_input":"FY","number_input":"249","is_correct":true,"presentation_start_time":1709075438026.06,"presentation_end_time":1709075445527.43,"response_time":1709075466900.09},{"stage":"Calibration","trial":8,"sequence":"B6W3E1","letter_input":"BEW","number_input":"136","is_correct":true,"presentation_start_time":1709075468432.84,"presentation_end_time":1709075477433.57,"response_time":1709075514817.74},{"stage":"Calibration","trial":9,"sequence":"7Q5J2D","letter_input":"EJQ","number_input":"257","is_correct":false,"presentation_start_time":1709075516350.43,"presentation_end_time":1709075525351.36,"response_time":1709075562502.12},{"stage":"Calibration","trial":10,"sequence":"T9H6Z1V","letter_input":"HTVZ","number_input":"169","is_correct":true,"presentation_start_time":1709075564034.79,"presentation_end_time":1709075574535.2,"response_time":1709075624448.41},{"stage":"Calibration","trial":11,"sequence":"3N8J6A5","letter_input":"HJNZ","number_input":"136","is_correct":false,"presentation_start_time":1709075625981.34,"presentation_end_time":1709075636481.56,"response_time":1709075680763.28},{"stage":"Calibration","trial":12,"sequence":"K2R7M4D9","letter_input":"DKMR","number_input":"2479","is_correct":true,"presentation_start_time":1709075682295.97,"presentation_end_time":1709075694295.98,"response_time":1709075756688.39},{"stage":"Calibration","trial":13,"sequence":"1H6S3P8C","letter_input":"CHPS","number_input":"1368","is_correct":true,"presentation_start_time":1709075758221.09,"presentation_end_time":1709075770220.97,"response_time":1709075835029.33},{"stage":"Calibration","trial":14,"sequence":"M4A2Y9T7E","letter_input":"ACMY","number_input":"2478","is_correct":false,"presentation_start_time":1709075836562.02,"presentation_end_time":1709075850061.55,"response_time":1709075930248.1},{"stage":"Calibration","trial":15,"sequence":"1B6R3P8H5","letter_input":"BHPR","number_input":"13568","is_correct":true,"presentation_start_time":1709075931780.78,"presentation_end_time":1709075945280.25,"response_time":1709076003057.49},{"stage":"Calibration","trial":16,"sequence":"G7N4D9K3Q2","letter_input":"GNPQ","number_input":"23479","is_correct":false,"presentation_start_time":1709076004590.24,"presentation_end_time":1709076019589.09,"response_time":1709076075716.99},{"stage":"Calibration","trial":17,"sequence":"5V8T1L7E2C","letter_input":"BCLV","number_input":"13578","is_correct":false,"presentation_start_time":1709076077249.67,"presentation_end_time":1709076092248.51,"response_time":1709076127783.14}]}