{"meta_data":{"additional_headers":{},"game_name":"Recollect","version":"2.53.01","user_name":"171","organization":"braingamecenter","study":"mpl2_2022_11","session_number":0,"device_id":"74342D95-EE82-45E3-8ADF-48FB3203C5DD"},"data":[{"trial":0,"action":1,"button_pressed":8,"time_out":false,"dwell_time":47.7548828125,"response_time":1709153297559.8},{"trial":0,"action":1,"button_pressed":0,"time_out":false,"dwell_time":47.483154296875,"response_time":1709153298058.67},{"trial":0,"action":9,"button_pressed":-1,"time_out":false,"dwell_time":76.0458984375,"response_time":1709153298819.99},{"trial":1,"action":1,"button_pressed":2,"time_out":false,"dwell_time":47.157958984375,"response_time":1709153308388.81},{"trial":1,"action":1,"button_pressed":4,"time_out":false,"dwell_time":66.08984375,"response_time":1709153308688.95},{"trial":1,"action":1,"button_pressed":1,"time_out":false,"dwell_time":48.549072265625,"response_time":1709153309072.64},{"trial":1,"action":9,"button_pressed":-1,"time_out":false,"dwell_time":64.530029296875,"response_time":1709153310255.58},{"trial":2,"action":1,"button_pressed":3,"time_out":false,"dwell_time":47.077880859375,"response_time":1709153322367.61},{"trial":2,"action":1,"button_pressed":5,"time_out":false,"dwell_time":47.092041015625,"response_time":1709153322717.45},{"trial":2,"action":1,"button_pressed":9,"time_out":false,"dwell_time":47.534912109375,"response_time":1709153323067.17},{"trial":2,"action":1,"button_pressed":2,"time_out":false,"dwell_time":30.119140625,"response_time":1709153323433.68},{"trial":2,"action":9,"button_pressed":-1,"time_out":false,"dwell_time":48.307861328125,"response_time":1709153323968.22},{"trial":3,"action":1,"button_pressed":10,"time_out":false,"dwell_time":47.18212890625,"response_time":1709153338611.92},{"trial":3,"action":1,"button_pressed":5,"time_out":false,"dwell_time":47.73388671875,"response_time":1709153338946.16},{"trial":3,"action":1,"button_pressed":3,"time_out":false,"dwell_time":47.39306640625,"response_time":1709153339295.88},{"trial":3,"action":1,"button_pressed":6,"time_out":false,"dwell_time":30.18994140625,"response_time":1709153339561.99},{"trial":3,"action":1,"button_pressed":2,"time_out":false,"dwell_time":48.43408203125,"response_time":1709153339962.5},{"trial":3,"action":1,"button_pressed":6,"time_out":false,"dwell_time":64.343994140625,"response_time":1709153343527.4},{"trial":3,"action":1,"button_pressed":6,"time_out":false,"dwell_time":47.673095703125,"response_time":1709153344277.01},{"trial":3,"action":0,"button_pressed":-1,"time_out":false,"dwell_time":63.491943359375,"response_time":1709153346342.73},{"trial":3,"action":1,"button_pressed":10,"time_out":false,"dwell_time":48.322021484375,"response_time":1709153346910.21},{"trial":3,"action":1,"button_pressed":5,"time_out":false,"dwell_time":47.555908203125,"response_time":1709153347343.35},{"trial":3,"action":1,"button_pressed":6,"time_out":false,"dwell_time":47.455810546875,"response_time":1709153348375.62},{"trial":3,"action":1,"button_pressed":3,"time_out":false,"dwell_time":31.176025390625,"response_time":1709153348576.44},{"trial":3,"action":1,"button_pressed":2,"time_out":false,"dwell_time":47.6650390625,"response_time":1709153348875.36},{"trial":3,"action":9,"button_pressed":-1,"time_out":false,"dwell_time":48.2900390625,"response_time":1709153349509.16},{"trial":4,"action":1,"button_pressed":3,"time_out":false,"dwell_time":47.097900390625,"response_time":1709153364453.78},{"trial":4,"action":1,"button_pressed":8,"time_out":false,"dwell_time":63.60888671875,"response_time":1709153364853.83},{"trial":4,"action":1,"button_pressed":4,"time_out":false,"dwell_time":47.52490234375,"response_time":1709153365154.2},{"trial":4,"action":1,"button_pressed":10,"time_out":false,"dwell_time":47.387939453125,"response_time":1709153365404.02},{"trial":4,"action":1,"button_pressed":11,"time_out":false,"dwell_time":31.14990234375,"response_time":1709153365670.15},{"trial":4,"action":9,"button_pressed":-1,"time_out":false,"dwell_time":47.81005859375,"response_time":1709153370569.18},{"trial":5,"action":1,"button_pressed":3,"time_out":false,"dwell_time":63.9580078125,"response_time":1709153387763.34},{"trial":5,"action":1,"button_pressed":7,"time_out":false,"dwell_time":30.033935546875,"response_time":1709153388029.57},{"trial":5,"action":1,"button_pressed":10,"time_out":false,"dwell_time":48.77294921875,"response_time":1709153388363.63},{"trial":5,"action":1,"button_pressed":4,"time_out":false,"dwell_time":48.23291015625,"response_time":1709153388613.33},{"trial":5,"action":1,"button_pressed":2,"time_out":false,"dwell_time":46.70703125,"response_time":1709153388912.53},{"trial":5,"action":1,"button_pressed":9,"time_out":false,"dwell_time":30.921875,"response_time":1709153389213.25},{"trial":5,"action":9,"button_pressed":-1,"time_out":false,"dwell_time":64.9228515625,"response_time":1709153391045.78},{"trial":6,"action":1,"button_pressed":7,"time_out":false,"dwell_time":47.947021484375,"response_time":1709153408173.89},{"trial":6,"action":1,"button_pressed":3,"time_out":false,"dwell_time":47.7060546875,"response_time":1709153408489.51},{"trial":6,"action":1,"button_pressed":8,"time_out":false,"dwell_time":47.135009765625,"response_time":1709153408822.6},{"trial":6,"action":1,"button_pressed":0,"time_out":false,"dwell_time":63.56494140625,"response_time":1709153409139.39},{"trial":6,"action":1,"button_pressed":4,"time_out":false,"dwell_time":63.825927734375,"response_time":1709153409639.23},{"trial":6,"action":1,"button_pressed":1,"time_out":false,"dwell_time":30.338134765625,"response_time":1709153409855.67},{"trial":6,"action":9,"button_pressed":-1,"time_out":false,"dwell_time":82.052001953125,"response_time":1709153417220.67},{"trial":7,"action":1,"button_pressed":10,"time_out":false,"dwell_time":47.7099609375,"response_time":1709153437013.6},{"trial":7,"action":1,"button_pressed":1,"time_out":false,"dwell_time":48.2529296875,"response_time":1709153437963.86},{"trial":7,"action":1,"button_pressed":2,"time_out":false,"dwell_time":30.968994140625,"response_time":1709153438329.8},{"trial":7,"action":1,"button_pressed":7,"time_out":false,"dwell_time":29.93017578125,"response_time":1709153438796.23},{"trial":7,"action":1,"button_pressed":0,"time_out":false,"dwell_time":46.75,"response_time":1709153439262.7},{"trial":7,"action":1,"button_pressed":6,"time_out":false,"dwell_time":30.006103515625,"response_time":1709153439895.87},{"trial":7,"action":1,"button_pressed":4,"time_out":false,"dwell_time":48.4248046875,"response_time":1709153440213.15},{"trial":7,"action":9,"button_pressed":-1,"time_out":false,"dwell_time":65.347900390625,"response_time":1709153443045.58},{"trial":8,"action":1,"button_pressed":8,"time_out":false,"dwell_time":64.10302734375,"response_time":1709153463021.27},{"trial":8,"action":1,"button_pressed":1,"time_out":false,"dwell_time":47.535888671875,"response_time":1709153465654.77},{"trial":8,"action":1,"button_pressed":5,"time_out":false,"dwell_time":63.906005859375,"response_time":1709153466153.45},{"trial":8,"action":1,"button_pressed":0,"time_out":false,"dwell_time":46.7958984375,"response_time":1709153466770.35},{"trial":8,"action":1,"button_pressed":6,"time_out":false,"dwell_time":64.007080078125,"response_time":1709153467270.34},{"trial":8,"action":1,"button_pressed":7,"time_out":false,"dwell_time":47.60009765625,"response_time":1709153467620.24},{"trial":8,"action":1,"button_pressed":11,"time_out":false,"dwell_time":48.3818359375,"response_time":1709153469803.46},{"trial":8,"action":9,"button_pressed":-1,"time_out":true,"dwell_time":10059.6848144531,"response_time":1709153479814.76},{"trial":9,"action":1,"button_pressed":0,"time_out":false,"dwell_time":64.35009765625,"response_time":1709153494561.33},{"trial":9,"action":1,"button_pressed":7,"time_out":false,"dwell_time":63.048095703125,"response_time":1709153495010.68},{"trial":9,"action":1,"button_pressed":10,"time_out":false,"dwell_time":62.968017578125,"response_time":1709153495443.79},{"trial":9,"action":1,"button_pressed":4,"time_out":false,"dwell_time":79.8330078125,"response_time":1709153495893.71},{"trial":9,"action":1,"button_pressed":1,"time_out":false,"dwell_time":31.10302734375,"response_time":1709153496360.76},{"trial":9,"action":9,"button_pressed":-1,"time_out":false,"dwell_time":114.572021484375,"response_time":1709153497527.01},{"trial":10,"action":1,"button_pressed":0,"time_out":false,"dwell_time":47.192138671875,"response_time":1709153514621.6},{"trial":10,"action":1,"button_pressed":4,"time_out":false,"dwell_time":63.751953125,"response_time":1709153514954.78},{"trial":10,"action":1,"button_pressed":11,"time_out":false,"dwell_time":46.505126953125,"response_time":1709153516970.53},{"trial":10,"action":1,"button_pressed":3,"time_out":false,"dwell_time":46.815185546875,"response_time":1709153517287.28},{"trial":10,"action":1,"button_pressed":5,"time_out":false,"dwell_time":47.68798828125,"response_time":1709153517587.12},{"trial":10,"action":1,"button_pressed":7,"time_out":false,"dwell_time":48.4169921875,"response_time":1709153517987.79},{"trial":10,"action":9,"button_pressed":-1,"time_out":false,"dwell_time":64.329833984375,"response_time":1709153520536.12},{"trial":11,"action":1,"button_pressed":2,"time_out":false,"dwell_time":48.43896484375,"response_time":1709153540064.13},{"trial":11,"action":1,"button_pressed":6,"time_out":false,"dwell_time":30.02490234375,"response_time":1709153540379.72},{"trial":11,"action":1,"button_pressed":9,"time_out":false,"dwell_time":30.1728515625,"response_time":1709153540646.4},{"trial":11,"action":1,"button_pressed":0,"time_out":false,"dwell_time":47.012939453125,"response_time":1709153540979.64},{"trial":11,"action":1,"button_pressed":10,"time_out":false,"dwell_time":64.380859375,"response_time":1709153541579.73},{"trial":11,"action":1,"button_pressed":10,"time_out":false,"dwell_time":47.676025390625,"response_time":1709153542379.19},{"trial":11,"action":0,"button_pressed":-1,"time_out":false,"dwell_time":47.301025390625,"response_time":1709153543195.55},{"trial":11,"action":1,"button_pressed":2,"time_out":false,"dwell_time":63.256103515625,"response_time":1709153543611.68},{"trial":11,"action":1,"button_pressed":6,"time_out":false,"dwell_time":46.81103515625,"response_time":1709153544561.82},{"trial":11,"action":1,"button_pressed":9,"time_out":false,"dwell_time":47.387939453125,"response_time":1709153544928.79},{"trial":11,"action":1,"button_pressed":0,"time_out":false,"dwell_time":63.35205078125,"response_time":1709153545261.12},{"trial":11,"action":1,"button_pressed":3,"time_out":false,"dwell_time":30.414794921875,"response_time":1709153545478.1},{"trial":11,"action":1,"button_pressed":10,"time_out":false,"dwell_time":47.568115234375,"response_time":1709153545761.99},{"trial":11,"action":1,"button_pressed":7,"time_out":false,"dwell_time":30.93505859375,"response_time":1709153545994.51},{"trial":11,"action":9,"button_pressed":-1,"time_out":false,"dwell_time":64.47119140625,"response_time":1709153547227.38},{"trial":12,"action":1,"button_pressed":9,"time_out":false,"dwell_time":47.02099609375,"response_time":1709153572835.9},{"trial":12,"action":1,"button_pressed":7,"time_out":false,"dwell_time":81.18994140625,"response_time":1709153573402.52},{"trial":12,"action":1,"button_pressed":3,"time_out":false,"dwell_time":46.972900390625,"response_time":1709153574818.41},{"trial":12,"action":1,"button_pressed":4,"time_out":false,"dwell_time":47.72607421875,"response_time":1709153575118.42},{"trial":12,"action":1,"button_pressed":8,"time_out":false,"dwell_time":64.27587890625,"response_time":1709153576401.35},{"trial":12,"action":1,"button_pressed":5,"time_out":false,"dwell_time":64.66015625,"response_time":1709153576701.43},{"trial":12,"action":1,"button_pressed":11,"time_out":false,"dwell_time":30.866943359375,"response_time":1709153577067.65},{"trial":12,"action":9,"button_pressed":-1,"time_out":false,"dwell_time":63.798095703125,"response_time":1709153582415.98},{"trial":13,"action":1,"button_pressed":8,"time_out":false,"dwell_time":47.08203125,"response_time":1709153604642.3},{"trial":13,"action":1,"button_pressed":0,"time_out":false,"dwell_time":46.677978515625,"response_time":1709153604958.58},{"trial":13,"action":1,"button_pressed":6,"time_out":false,"dwell_time":47.55419921875,"response_time":1709153605375.27},{"trial":13,"action":1,"button_pressed":9,"time_out":false,"dwell_time":30.0869140625,"response_time":1709153605591.97},{"trial":13,"action":1,"button_pressed":5,"time_out":false,"dwell_time":47.56103515625,"response_time":1709153605975.05},{"trial":13,"action":1,"button_pressed":3,"time_out":false,"dwell_time":63.974853515625,"response_time":1709153608340.99},{"trial":13,"action":1,"button_pressed":7,"time_out":false,"dwell_time":48.362060546875,"response_time":1709153608691.53},{"trial":13,"action":1,"button_pressed":2,"time_out":false,"dwell_time":30.23095703125,"response_time":1709153609057.34},{"trial":13,"action":9,"button_pressed":-1,"time_out":false,"dwell_time":51.176025390625,"response_time":1709153613673.75}]}