{"meta_data":{"additional_headers":{},"game_name":"Recollect","version":"2.53.01","user_name":"171","organization":"braingamecenter","study":"mpl2_2022_11","session_number":0,"device_id":"74342D95-EE82-45E3-8ADF-48FB3203C5DD"},"data":[{"stage":"Practice","trial":0,"sequence":"6F","letter_input":"F","number_input":"6","is_correct":true,"presentation_start_time":1709153661254.92,"presentation_end_time":1709153664257.87,"response_time":1709153672686.3},{"stage":"Practice","trial":1,"sequence":"G4","letter_input":"G","number_input":"4","is_correct":true,"presentation_start_time":1709153674217.31,"presentation_end_time":1709153677220.32,"response_time":1709153681531.69},{"stage":"Practice","trial":2,"sequence":"3W5","letter_input":"W","number_input":"35","is_correct":true,"presentation_start_time":1709153683064.42,"presentation_end_time":1709153687566.88,"response_time":1709153693594.45},{"stage":"Practice","trial":3,"sequence":"T7L","letter_input":"LT","number_input":"7","is_correct":true,"presentation_start_time":1709153695127.26,"presentation_end_time":1709153699629.66,"response_time":1709153703941.03},{"stage":"Practice","trial":4,"sequence":"9J1","letter_input":"J","number_input":"19","is_correct":true,"presentation_start_time":1709153705473.83,"presentation_end_time":1709153709976.23,"response_time":1709153714037.76},{"stage":"Calibration","trial":0,"sequence":"9M","letter_input":"M","number_input":"9","is_correct":true,"presentation_start_time":1709153722768.18,"presentation_end_time":1709153725771.04,"response_time":1709153729332.78},{"stage":"Calibration","trial":1,"sequence":"B8","letter_input":"B","number_input":"8","is_correct":true,"presentation_start_time":1709153730865.51,"presentation_end_time":1709153733868.46,"response_time":1709153739013.01},{"stage":"Calibration","trial":2,"sequence":"5P2","letter_input":"P","number_input":"25","is_correct":true,"presentation_start_time":1709153740545.72,"presentation_end_time":1709153745048.11,"response_time":1709153748476.77},{"stage":"Calibration","trial":3,"sequence":"S1L","letter_input":"LS","number_input":"1","is_correct":true,"presentation_start_time":1709153750009.25,"presentation_end_time":1709153754511.63,"response_time":1709153757906.84},{"stage":"Calibration","trial":4,"sequence":"8K4H","letter_input":"HK","number_input":"48","is_correct":true,"presentation_start_time":1709153759439.47,"presentation_end_time":1709153765441.41,"response_time":1709153773335.1},{"stage":"Calibration","trial":5,"sequence":"G6E1","letter_input":"EG","number_input":"16","is_correct":true,"presentation_start_time":1709153774867.79,"presentation_end_time":1709153780869.68,"response_time":1709153788096.91},{"stage":"Calibration","trial":6,"sequence":"7T2A9","letter_input":"GT","number_input":"279","is_correct":false,"presentation_start_time":1709153789629.67,"presentation_end_time":1709153797130.99,"response_time":1709153805274.67},{"stage":"Calibration","trial":7,"sequence":"H8E3C","letter_input":"CEH","number_input":"38","is_correct":true,"presentation_start_time":1709153806807.41,"presentation_end_time":1709153814308.77,"response_time":1709153825034.87},{"stage":"Calibration","trial":8,"sequence":"6V4N9Z","letter_input":"NVZ","number_input":"469","is_correct":true,"presentation_start_time":1709153826567.57,"presentation_end_time":1709153835568.57,"response_time":1709153848260.57},{"stage":"Calibration","trial":9,"sequence":"S5Q3W1","letter_input":"QSW","number_input":"135","is_correct":true,"presentation_start_time":1709153849793.35,"presentation_end_time":1709153858794.19,"response_time":1709153880383.42},{"stage":"Calibration","trial":10,"sequence":"6Y4V8M2","letter_input":"VY","number_input":"246","is_correct":false,"presentation_start_time":1709153881916.23,"presentation_end_time":1709153892416.69,"response_time":1709153900859.99},{"stage":"Calibration","trial":11,"sequence":"S1Q9Z5D","letter_input":"DQSZ","number_input":"159","is_correct":true,"presentation_start_time":1709153902392.81,"presentation_end_time":1709153912893.18,"response_time":1709153933699.35},{"stage":"Calibration","trial":12,"sequence":"3K8R6E2N","letter_input":"EKNR","number_input":"2368","is_correct":true,"presentation_start_time":1709153935232.09,"presentation_end_time":1709153947232.05,"response_time":1709153981633.64},{"stage":"Calibration","trial":13,"sequence":"M7C1W9S4","letter_input":"CMWS","number_input":"1479","is_correct":false,"presentation_start_time":1709153983166.42,"presentation_end_time":1709153995166.28,"response_time":1709154036582.34},{"stage":"Calibration","trial":14,"sequence":"5N8F2B7L1","letter_input":"BFLM","number_input":"12578","is_correct":false,"presentation_start_time":1709154038115.05,"presentation_end_time":1709154051614.49,"response_time":1709154069792.3},{"stage":"Calibration","trial":15,"sequence":"J9A6W3S1M","letter_input":"AJW","number_input":"1369","is_correct":false,"presentation_start_time":1709154071324.99,"presentation_end_time":1709154084824.35,"response_time":1709154100998.81}]}