{"meta_data":{"additional_headers":{},"game_name":"Recollect","version":"2.53.01","user_name":"172","organization":"braingamecenter","study":"mpl2_2022_11","session_number":0,"device_id":"74342D95-EE82-45E3-8ADF-48FB3203C5DD"},"data":[{"stage":"Practice","trial":0,"sequence":"6F","letter_input":"F","number_input":"6","is_correct":true,"presentation_start_time":1709167226848.75,"presentation_end_time":1709167229851.72,"response_time":1709167237380.28},{"stage":"Practice","trial":1,"sequence":"G4","letter_input":"G","number_input":"4","is_correct":true,"presentation_start_time":1709167238911.4,"presentation_end_time":1709167241914.23,"response_time":1709167246675.56},{"stage":"Practice","trial":2,"sequence":"3W5","letter_input":"W","number_input":"35","is_correct":true,"presentation_start_time":1709167248208.41,"presentation_end_time":1709167252710.61,"response_time":1709167258071.79},{"stage":"Practice","trial":3,"sequence":"T7L","letter_input":"LT","number_input":"7","is_correct":true,"presentation_start_time":1709167259604.5,"presentation_end_time":1709167264106.91,"response_time":1709167271100.74},{"stage":"Practice","trial":4,"sequence":"9J1","letter_input":"J","number_input":"19","is_correct":true,"presentation_start_time":1709167272633.53,"presentation_end_time":1709167277135.89,"response_time":1709167281280.79},{"stage":"Calibration","trial":0,"sequence":"8C","letter_input":"C","number_input":"8","is_correct":true,"presentation_start_time":1709167292393.61,"presentation_end_time":1709167295396.61,"response_time":1709167299607.99},{"stage":"Calibration","trial":1,"sequence":"Z5","letter_input":"Z","number_input":"5","is_correct":true,"presentation_start_time":1709167301140.77,"presentation_end_time":1709167304143.73,"response_time":1709167307588.75},{"stage":"Calibration","trial":2,"sequence":"7J1","letter_input":"J","number_input":"17","is_correct":true,"presentation_start_time":1709167309121.37,"presentation_end_time":1709167313623.94,"response_time":1709167317002.22},{"stage":"Calibration","trial":3,"sequence":"Z3S","letter_input":"SZ","number_input":"3","is_correct":true,"presentation_start_time":1709167318534.98,"presentation_end_time":1709167323037.29,"response_time":1709167327015.6},{"stage":"Calibration","trial":4,"sequence":"9Y7C","letter_input":"CY","number_input":"79","is_correct":true,"presentation_start_time":1709167328548.51,"presentation_end_time":1709167334550.2,"response_time":1709167343026.96},{"stage":"Calibration","trial":5,"sequence":"S6A4","letter_input":"AS","number_input":"46","is_correct":true,"presentation_start_time":1709167344559.68,"presentation_end_time":1709167350561.72,"response_time":1709167361820.68},{"stage":"Calibration","trial":6,"sequence":"5K2G7","letter_input":"GK","number_input":"257","is_correct":true,"presentation_start_time":1709167363353.42,"presentation_end_time":1709167370854.78,"response_time":1709167381714.13},{"stage":"Calibration","trial":7,"sequence":"S3P1L","letter_input":"LPS","number_input":"13","is_correct":true,"presentation_start_time":1709167383246.99,"presentation_end_time":1709167390748.19,"response_time":1709167418102.07},{"stage":"Calibration","trial":8,"sequence":"2Q8C5T","letter_input":"QS","number_input":"258","is_correct":false,"presentation_start_time":1709167419634.78,"presentation_end_time":1709167428635.68,"response_time":1709167442693.88},{"stage":"Calibration","trial":9,"sequence":"B9P6E4","letter_input":"BPX","number_input":"468","is_correct":false,"presentation_start_time":1709167444226.64,"presentation_end_time":1709167453227.52,"response_time":1709167467802.22}]}