{"meta_data":{"additional_headers":{},"game_name":"Recollect","version":"2.53.01","user_name":"172","organization":"braingamecenter","study":"mpl2_2022_11","session_number":0,"device_id":"74342D95-EE82-45E3-8ADF-48FB3203C5DD"},"data":[{"trial":0,"action":1,"button_pressed":9,"time_out":false,"dwell_time":64.748046875,"response_time":1709166880982.34},{"trial":0,"action":1,"button_pressed":1,"time_out":false,"dwell_time":46.833984375,"response_time":1709166881498.36},{"trial":0,"action":9,"button_pressed":-1,"time_out":false,"dwell_time":73.27783203125,"response_time":1709166882125},{"trial":1,"action":1,"button_pressed":6,"time_out":false,"dwell_time":46.718994140625,"response_time":1709166891995.15},{"trial":1,"action":1,"button_pressed":5,"time_out":false,"dwell_time":81.39892578125,"response_time":1709166892228.61},{"trial":1,"action":1,"button_pressed":4,"time_out":false,"dwell_time":48.06884765625,"response_time":1709166892628.77},{"trial":1,"action":9,"button_pressed":-1,"time_out":false,"dwell_time":64.27099609375,"response_time":1709166893561.61},{"trial":2,"action":1,"button_pressed":8,"time_out":false,"dwell_time":46.90478515625,"response_time":1709166905357.37},{"trial":2,"action":1,"button_pressed":1,"time_out":false,"dwell_time":47.5458984375,"response_time":1709166905806.92},{"trial":2,"action":1,"button_pressed":3,"time_out":false,"dwell_time":80.818115234375,"response_time":1709166906323.69},{"trial":2,"action":1,"button_pressed":11,"time_out":false,"dwell_time":31.56689453125,"response_time":1709166906957.38},{"trial":2,"action":9,"button_pressed":-1,"time_out":false,"dwell_time":31.98681640625,"response_time":1709166907891.04},{"trial":3,"action":1,"button_pressed":11,"time_out":false,"dwell_time":63.30615234375,"response_time":1709166922201.33},{"trial":3,"action":1,"button_pressed":1,"time_out":false,"dwell_time":64.51806640625,"response_time":1709166922735.04},{"trial":3,"action":1,"button_pressed":9,"time_out":false,"dwell_time":47.330810546875,"response_time":1709166923284.6},{"trial":3,"action":1,"button_pressed":7,"time_out":false,"dwell_time":47.18701171875,"response_time":1709166923784.41},{"trial":3,"action":1,"button_pressed":4,"time_out":false,"dwell_time":47.465087890625,"response_time":1709166924384.88},{"trial":3,"action":9,"button_pressed":-1,"time_out":false,"dwell_time":63.81103515625,"response_time":1709166925050.71},{"trial":4,"action":1,"button_pressed":6,"time_out":false,"dwell_time":46.924072265625,"response_time":1709166941861.97},{"trial":4,"action":1,"button_pressed":5,"time_out":false,"dwell_time":63.066162109375,"response_time":1709166942027.87},{"trial":4,"action":1,"button_pressed":0,"time_out":false,"dwell_time":63.6708984375,"response_time":1709166942744.37},{"trial":4,"action":1,"button_pressed":11,"time_out":false,"dwell_time":64.221923828125,"response_time":1709166943378.11},{"trial":4,"action":1,"button_pressed":8,"time_out":false,"dwell_time":64.126953125,"response_time":1709166943844.38},{"trial":4,"action":1,"button_pressed":4,"time_out":false,"dwell_time":47.69287109375,"response_time":1709166944527.62},{"trial":4,"action":9,"button_pressed":-1,"time_out":false,"dwell_time":47.482177734375,"response_time":1709166945477.63},{"trial":5,"action":1,"button_pressed":8,"time_out":false,"dwell_time":63.27099609375,"response_time":1709166964837.2},{"trial":5,"action":1,"button_pressed":5,"time_out":false,"dwell_time":64.535888671875,"response_time":1709166965287.52},{"trial":5,"action":1,"button_pressed":1,"time_out":false,"dwell_time":63.154052734375,"response_time":1709166965520.33},{"trial":5,"action":1,"button_pressed":6,"time_out":false,"dwell_time":63.4150390625,"response_time":1709166966387.13},{"trial":5,"action":1,"button_pressed":4,"time_out":false,"dwell_time":64.2939453125,"response_time":1709166966720.36},{"trial":5,"action":1,"button_pressed":0,"time_out":false,"dwell_time":47.514892578125,"response_time":1709166967203.35},{"trial":5,"action":1,"button_pressed":0,"time_out":false,"dwell_time":63.885009765625,"response_time":1709166968952.98},{"trial":5,"action":1,"button_pressed":0,"time_out":false,"dwell_time":47.155029296875,"response_time":1709166969985.89},{"trial":5,"action":1,"button_pressed":0,"time_out":false,"dwell_time":64.510009765625,"response_time":1709166970652.35},{"trial":5,"action":1,"button_pressed":0,"time_out":false,"dwell_time":47.59619140625,"response_time":1709166971102.72},{"trial":5,"action":1,"button_pressed":0,"time_out":false,"dwell_time":63.39794921875,"response_time":1709166971368.36},{"trial":5,"action":0,"button_pressed":-1,"time_out":false,"dwell_time":64.2890625,"response_time":1709166972051.54},{"trial":5,"action":1,"button_pressed":6,"time_out":false,"dwell_time":79.799072265625,"response_time":1709166973100.62},{"trial":5,"action":1,"button_pressed":4,"time_out":false,"dwell_time":64.55810546875,"response_time":1709166973418.25},{"trial":5,"action":1,"button_pressed":1,"time_out":false,"dwell_time":46.657958984375,"response_time":1709166973817.79},{"trial":5,"action":1,"button_pressed":5,"time_out":false,"dwell_time":63.609130859375,"response_time":1709166974617.77},{"trial":5,"action":1,"button_pressed":0,"time_out":false,"dwell_time":64.657958984375,"response_time":1709166974967.74},{"trial":5,"action":1,"button_pressed":7,"time_out":false,"dwell_time":30.1669921875,"response_time":1709166975383.99},{"trial":5,"action":1,"button_pressed":11,"time_out":false,"dwell_time":13.4501953125,"response_time":1709166975817.18},{"trial":5,"action":9,"button_pressed":-1,"time_out":false,"dwell_time":30.929931640625,"response_time":1709166976850.66},{"trial":6,"action":1,"button_pressed":3,"time_out":false,"dwell_time":80.712158203125,"response_time":1709166997226.44},{"trial":6,"action":1,"button_pressed":5,"time_out":false,"dwell_time":63.838134765625,"response_time":1709166997726.09},{"trial":6,"action":1,"button_pressed":10,"time_out":false,"dwell_time":63.494873046875,"response_time":1709166998642.48},{"trial":6,"action":1,"button_pressed":4,"time_out":false,"dwell_time":47.68505859375,"response_time":1709166999193.5},{"trial":6,"action":1,"button_pressed":0,"time_out":false,"dwell_time":63.5390625,"response_time":1709167000342.65},{"trial":6,"action":1,"button_pressed":1,"time_out":false,"dwell_time":64.30615234375,"response_time":1709167000642.54},{"trial":6,"action":1,"button_pressed":2,"time_out":false,"dwell_time":47.48583984375,"response_time":1709167001075.36},{"trial":6,"action":9,"button_pressed":-1,"time_out":false,"dwell_time":65.291015625,"response_time":1709167001676.06},{"trial":7,"action":1,"button_pressed":8,"time_out":false,"dwell_time":63.951171875,"response_time":1709167016603.38},{"trial":7,"action":1,"button_pressed":4,"time_out":false,"dwell_time":64.028076171875,"response_time":1709167017269.75},{"trial":7,"action":1,"button_pressed":1,"time_out":false,"dwell_time":30.970947265625,"response_time":1709167017637.67},{"trial":7,"action":1,"button_pressed":5,"time_out":false,"dwell_time":80.35400390625,"response_time":1709167018070.23},{"trial":7,"action":1,"button_pressed":3,"time_out":false,"dwell_time":47.571044921875,"response_time":1709167018669.87},{"trial":7,"action":9,"button_pressed":-1,"time_out":false,"dwell_time":81.052978515625,"response_time":1709167019402.77},{"trial":8,"action":1,"button_pressed":10,"time_out":false,"dwell_time":63.041015625,"response_time":1709167036480.22},{"trial":8,"action":1,"button_pressed":2,"time_out":false,"dwell_time":79.860107421875,"response_time":1709167037013.35},{"trial":8,"action":1,"button_pressed":9,"time_out":false,"dwell_time":47.505126953125,"response_time":1709167037696.99},{"trial":8,"action":1,"button_pressed":5,"time_out":false,"dwell_time":97.20703125,"response_time":1709167038246.97},{"trial":8,"action":1,"button_pressed":0,"time_out":false,"dwell_time":63.015869140625,"response_time":1709167039095.81},{"trial":8,"action":1,"button_pressed":11,"time_out":false,"dwell_time":30.64599609375,"response_time":1709167039512.72},{"trial":8,"action":9,"button_pressed":-1,"time_out":false,"dwell_time":81.884033203125,"response_time":1709167040596.91},{"trial":9,"action":1,"button_pressed":3,"time_out":false,"dwell_time":62.345947265625,"response_time":1709167057922.08},{"trial":9,"action":1,"button_pressed":7,"time_out":false,"dwell_time":80.48779296875,"response_time":1709167058889.22},{"trial":9,"action":1,"button_pressed":4,"time_out":false,"dwell_time":64.59521484375,"response_time":1709167059873.03},{"trial":9,"action":1,"button_pressed":10,"time_out":false,"dwell_time":62.495849609375,"response_time":1709167060171.04},{"trial":9,"action":1,"button_pressed":2,"time_out":false,"dwell_time":63.197998046875,"response_time":1709167060505.64},{"trial":9,"action":1,"button_pressed":9,"time_out":false,"dwell_time":47.33984375,"response_time":1709167060822.49},{"trial":9,"action":9,"button_pressed":-1,"time_out":false,"dwell_time":48.140869140625,"response_time":1709167061322.65},{"trial":10,"action":1,"button_pressed":5,"time_out":false,"dwell_time":98.017822265625,"response_time":1709167080782.99},{"trial":10,"action":1,"button_pressed":3,"time_out":false,"dwell_time":80.453857421875,"response_time":1709167080999.47},{"trial":10,"action":1,"button_pressed":8,"time_out":false,"dwell_time":63.503173828125,"response_time":1709167081415.78},{"trial":10,"action":1,"button_pressed":7,"time_out":false,"dwell_time":47.939208984375,"response_time":1709167082032.75},{"trial":10,"action":1,"button_pressed":11,"time_out":false,"dwell_time":80.220947265625,"response_time":1709167082382.24},{"trial":10,"action":1,"button_pressed":4,"time_out":false,"dwell_time":97.594970703125,"response_time":1709167083065.26},{"trial":10,"action":1,"button_pressed":10,"time_out":false,"dwell_time":30.06494140625,"response_time":1709167083664.76},{"trial":10,"action":9,"button_pressed":-1,"time_out":false,"dwell_time":63.56494140625,"response_time":1709167084347.83},{"trial":11,"action":1,"button_pressed":1,"time_out":false,"dwell_time":64.964111328125,"response_time":1709167103658.82},{"trial":11,"action":1,"button_pressed":9,"time_out":false,"dwell_time":79.68994140625,"response_time":1709167104457.5},{"trial":11,"action":1,"button_pressed":7,"time_out":false,"dwell_time":63.452880859375,"response_time":1709167104790.67},{"trial":11,"action":1,"button_pressed":2,"time_out":false,"dwell_time":81.35302734375,"response_time":1709167105341.31},{"trial":11,"action":1,"button_pressed":5,"time_out":false,"dwell_time":63.869140625,"response_time":1709167105591.3},{"trial":11,"action":1,"button_pressed":11,"time_out":false,"dwell_time":97.4208984375,"response_time":1709167105891.26},{"trial":11,"action":1,"button_pressed":6,"time_out":false,"dwell_time":63.583984375,"response_time":1709167106407.04},{"trial":11,"action":1,"button_pressed":6,"time_out":false,"dwell_time":64.468017578125,"response_time":1709167107107.46},{"trial":11,"action":0,"button_pressed":-1,"time_out":false,"dwell_time":97.878173828125,"response_time":1709167111422.33},{"trial":11,"action":1,"button_pressed":1,"time_out":false,"dwell_time":62.91796875,"response_time":1709167111855.05},{"trial":11,"action":1,"button_pressed":9,"time_out":false,"dwell_time":47.48095703125,"response_time":1709167112088.8},{"trial":11,"action":1,"button_pressed":7,"time_out":false,"dwell_time":46.522216796875,"response_time":1709167112488.6},{"trial":11,"action":1,"button_pressed":2,"time_out":false,"dwell_time":46.864013671875,"response_time":1709167112871.77},{"trial":11,"action":1,"button_pressed":5,"time_out":false,"dwell_time":78.994140625,"response_time":1709167113154.2},{"trial":11,"action":1,"button_pressed":11,"time_out":false,"dwell_time":96.924072265625,"response_time":1709167113522.09},{"trial":11,"action":1,"button_pressed":3,"time_out":false,"dwell_time":63.958984375,"response_time":1709167113855.47},{"trial":11,"action":9,"button_pressed":-1,"time_out":false,"dwell_time":80.935791015625,"response_time":1709167115171.93},{"trial":12,"action":1,"button_pressed":0,"time_out":false,"dwell_time":80.916015625,"response_time":1709167137796.78},{"trial":12,"action":1,"button_pressed":8,"time_out":false,"dwell_time":63.18896484375,"response_time":1709167138963.32},{"trial":12,"action":1,"button_pressed":9,"time_out":false,"dwell_time":63.568115234375,"response_time":1709167139479.2},{"trial":12,"action":1,"button_pressed":3,"time_out":false,"dwell_time":64.422119140625,"response_time":1709167139896.48},{"trial":12,"action":1,"button_pressed":5,"time_out":false,"dwell_time":114.381103515625,"response_time":1709167140812.91},{"trial":12,"action":1,"button_pressed":6,"time_out":false,"dwell_time":63.632080078125,"response_time":1709167141511.94},{"trial":12,"action":1,"button_pressed":7,"time_out":false,"dwell_time":79.273193359375,"response_time":1709167143427.92},{"trial":12,"action":1,"button_pressed":2,"time_out":false,"dwell_time":47.64892578125,"response_time":1709167143661.87},{"trial":12,"action":9,"button_pressed":-1,"time_out":false,"dwell_time":65.22802734375,"response_time":1709167144395.49},{"trial":13,"action":1,"button_pressed":1,"time_out":false,"dwell_time":47.641845703125,"response_time":1709167166304.34},{"trial":13,"action":1,"button_pressed":10,"time_out":false,"dwell_time":97.7080078125,"response_time":1709167167137.45},{"trial":13,"action":1,"button_pressed":2,"time_out":false,"dwell_time":80.392822265625,"response_time":1709167167604.04},{"trial":13,"action":1,"button_pressed":0,"time_out":false,"dwell_time":30.964111328125,"response_time":1709167168087.56},{"trial":13,"action":1,"button_pressed":3,"time_out":false,"dwell_time":80.39501953125,"response_time":1709167169435.94},{"trial":13,"action":1,"button_pressed":6,"time_out":false,"dwell_time":64.337158203125,"response_time":1709167169803.24},{"trial":13,"action":1,"button_pressed":7,"time_out":false,"dwell_time":47.326171875,"response_time":1709167171653.11},{"trial":13,"action":1,"button_pressed":4,"time_out":false,"dwell_time":29.876953125,"response_time":1709167172085.28},{"trial":13,"action":9,"button_pressed":-1,"time_out":false,"dwell_time":47.489990234375,"response_time":1709167172968.98}]}