{"meta_data":{"additional_headers":{},"game_name":"Recollect","version":"2.53.01","user_name":"173","organization":"braingamecenter","study":"mpl2_2022_11","session_number":0,"device_id":"74342D95-EE82-45E3-8ADF-48FB3203C5DD"},"data":[{"stage":"Practice","trial":0,"sequence":"6F","letter_input":"F","number_input":"6","is_correct":true,"presentation_start_time":1709318371095.88,"presentation_end_time":1709318374098.9,"response_time":1709318380129.36},{"stage":"Practice","trial":1,"sequence":"G4","letter_input":"G","number_input":"4","is_correct":true,"presentation_start_time":1709318381659.03,"presentation_end_time":1709318384661.83,"response_time":1709318389106.66},{"stage":"Practice","trial":2,"sequence":"3W5","letter_input":"W","number_input":"35","is_correct":true,"presentation_start_time":1709318390639.3,"presentation_end_time":1709318395141.82,"response_time":1709318401902.33},{"stage":"Practice","trial":3,"sequence":"T7L","letter_input":"LT","number_input":"7","is_correct":true,"presentation_start_time":1709318403435.06,"presentation_end_time":1709318407937.46,"response_time":1709318416330.88},{"stage":"Practice","trial":4,"sequence":"9J1","letter_input":"J","number_input":"19","is_correct":true,"presentation_start_time":1709318417863.69,"presentation_end_time":1709318422365.94,"response_time":1709318427810.34},{"stage":"Calibration","trial":0,"sequence":"6T","letter_input":"T","number_input":"6","is_correct":true,"presentation_start_time":1709318434408.05,"presentation_end_time":1709318437411.06,"response_time":1709318441705.67},{"stage":"Calibration","trial":1,"sequence":"H8","letter_input":"H","number_input":"8","is_correct":true,"presentation_start_time":1709318443238.46,"presentation_end_time":1709318446241.36,"response_time":1709318450186.21},{"stage":"Calibration","trial":2,"sequence":"7L4","letter_input":"L","number_input":"47","is_correct":true,"presentation_start_time":1709318451718.88,"presentation_end_time":1709318456221.46,"response_time":1709318462931.93},{"stage":"Calibration","trial":3,"sequence":"W2M","letter_input":"MW","number_input":"2","is_correct":true,"presentation_start_time":1709318464464.75,"presentation_end_time":1709318468966.76,"response_time":1709318476693.97},{"stage":"Calibration","trial":4,"sequence":"6N1E","letter_input":"EN","number_input":"16","is_correct":true,"presentation_start_time":1709318478226.7,"presentation_end_time":1709318484228.66,"response_time":1709318491605.74},{"stage":"Calibration","trial":5,"sequence":"Z7V3","letter_input":"V","number_input":"367","is_correct":false,"presentation_start_time":1709318493138.43,"presentation_end_time":1709318499145.2,"response_time":1709318516937.05},{"stage":"Calibration","trial":6,"sequence":"5H2F9","letter_input":"H","number_input":"2579","is_correct":false,"presentation_start_time":1709318518470.59,"presentation_end_time":1709318525975,"response_time":1709318544551.76},{"stage":"Calibration","trial":7,"sequence":"N6D4W","letter_input":"CNW","number_input":"46","is_correct":false,"presentation_start_time":1709318546084.49,"presentation_end_time":1709318553586.69,"response_time":1709318570327.82}]}