Audio_Only_Files,Video_Files,Original_Word_List,noiseLevelCode,conditionCodes,noiseLevelFile1,noiseLevelFile2,InstrTextVar,targetSpeakerName,targetSpeakerEccen,targetSpkrChannel,targetSpkrSound,targetVisualDegrees,visStimLoc,visStimLoc2,visStimW,visStimH,practiceTrials.thisRepN,practiceTrials.thisTrialN,practiceTrials.thisN,practiceTrials.thisIndex,trials.thisRepN,trials.thisTrialN,trials.thisN,trials.thisIndex,audLocalLoop.thisRepN,audLocalLoop.thisTrialN,audLocalLoop.thisN,audLocalLoop.thisIndex,visualLocalLoop.thisRepN,visualLocalLoop.thisTrialN,visualLocalLoop.thisN,visualLocalLoop.thisIndex,letsGoAlready.keys,letsGoAlready.rt,letsGoAlready.started,letsGoAlready.stopped,text_2.started,text_2.stopped,text_3.started,text_3.stopped,key_resp_2.keys,key_resp_2.rt,key_resp_2.started,key_resp_2.stopped,text_5.started,text_5.stopped,fixCross.started,fixCross.stopped,fixCross2.started,fixCross2.stopped,answerPrompt.started,answerPrompt.stopped,getAnswer.text,getAnswer.started,getAnswer.stopped,goToNext.keys,goToNext.rt,goToNext.started,goToNext.stopped,stretchBreakTxrt.started,stretchBreakTxrt.stopped,key_resp_3.keys,key_resp_3.rt,key_resp_3.started,key_resp_3.stopped,letsGoLocal.keys,letsGoLocal.rt,letsGoLocal.started,letsGoLocal.stopped,text_4.started,text_4.stopped,prepFixTxt.started,prepFixTxt.stopped,prepFixTxt_2.started,prepFixTxt_2.stopped,respPromptLocal.started,respPromptLocal.stopped,slider.response,slider.rt,slider.started,slider.stopped,letsGoLocal_2.keys,letsGoLocal_2.rt,letsGoLocal_2.started,letsGoLocal_2.stopped,text_7.started,text_7.stopped,prepFixTxt_3.started,prepFixTxt_3.stopped,grating.started,grating.stopped,exitTxt.started,exitTxt.stopped,key_resp.keys,key_resp.rt,key_resp.started,key_resp.stopped,participant,session,date,expName,psychopyVersion,frameRate,
,,,,,,,,,,,,,,,,,,,,,,,,,,,,,,,,,space,13.76538110896945,143.21091382298619,None,,,,,,,,,,,,,,,,,,,,,,,,,,,,,,,,,,,,,,,,,,,,,,,,,,,,,,,,,,,,,,173,001,2024_Mar_01_1141,SpeechDraft1Carolyn_lessNoise_PlusLocalization,2021.2.3,59.8785951194048,
,,,,,,,,,,,,,,,,,,,,,,,,,,,,,,,,,,,,,143.21091382298619,None,157.09506670944393,None,space,11.546645192429423,157.27761008124799,None,,,,,,,,,,,,,,,,,,,,,,,,,,,,,,,,,,,,,,,,,,,,,,,,,,,,,,173,001,2024_Mar_01_1141,SpeechDraft1Carolyn_lessNoise_PlusLocalization,2021.2.3,59.8785951194048,
ash.wav,ash.mpg,ash,1,A,Pink_Noise_1_1.wav,Pink_Noise_1_2.wav,"This is an example of an

AUDIO trial",,,,,,,,,,0,0,0,0,,,,,,,,,,,,,,,,,,,,,,,,,168.87746789120138,None,169.8611977668479,None,173.12747572921216,None,174.5111981453374,None,"ash
",174.5111981453374,None,return,1.8538981266319752,174.594283554703,None,,,,,,,,,,,,,,,,,,,,,,,,,,,,,,,,,,,,,,,173,001,2024_Mar_01_1141,SpeechDraft1Carolyn_lessNoise_PlusLocalization,2021.2.3,59.8785951194048,
ash.wav,ash.mpg,ash,1,AV,Pink_Noise_1_1.wav,Pink_Noise_1_2.wav,"This is an example of an

AUDIO + VIDEO  trial",,,,,,,,,,0,1,1,1,,,,,,,,,,,,,,,,,,,,,,,,,176.5107603278011,None,177.51096094027162,None,178.99490953143686,None,180.37764234561473,None,"ash
",180.37764234561473,None,return,0.8033342137932777,180.46087759640068,None,,,,,,,,,,,,,,,,,,,,,,,,,,,,,,,,,,,,,,,173,001,2024_Mar_01_1141,SpeechDraft1Carolyn_lessNoise_PlusLocalization,2021.2.3,59.8785951194048,
,,,,,,,,,,,,,,,,,,,,,,,,,,,,,,,,,,,,,,,,,,,,,,,,,,,,,,,,,,,,181.31058763340116,None,space,11.513950260356069,181.49430899415165,None,,,,,,,,,,,,,,,,,,,,,,,,,,,,,,,,,173,001,2024_Mar_01_1141,SpeechDraft1Carolyn_lessNoise_PlusLocalization,2021.2.3,59.8785951194048,
brand.wav,brand.mpg,brand,5,A,Pink_Noise_5_1.wav,Pink_Noise_5_2.wav,,,,,,,,,,,,,,,0,0,0,17,,,,,,,,,,,,,,,,,,,,,,,193.06072019599378,None,194.56070737633854,None,195.94435229711235,None,rain,195.94435229711235,None,return,0.924570388160646,196.0276430817321,None,,,,,,,,,,,,,,,,,,,,,,,,,,,,,,,,,,,,,,,173,001,2024_Mar_01_1141,SpeechDraft1Carolyn_lessNoise_PlusLocalization,2021.2.3,59.8785951194048,
cease.wav,cease.mpg,cease,6,AV,Pink_Noise_6_1.wav,Pink_Noise_6_2.wav,,,,,,,,,,,,,,,0,1,1,70,,,,,,,,,,,,,,,,,,,,,,,196.97775345575064,None,198.47739122528583,None,199.86087906453758,None,six,199.86087906453758,None,return,1.2958639562129974,199.94431878626347,None,,,,,,,,,,,,,,,,,,,,,,,,,,,,,,,,,,,,,,,173,001,2024_Mar_01_1141,SpeechDraft1Carolyn_lessNoise_PlusLocalization,2021.2.3,59.8785951194048,
budge.wav,budge.mpg,budge,6,A,Pink_Noise_6_1.wav,Pink_Noise_6_2.wav,,,,,,,,,,,,,,,0,2,2,22,,,,,,,,,,,,,,,,,,,,,,,201.2609486617148,None,202.76076305285096,None,204.14435794949532,None,bunch,204.14435794949532,None,return,1.876527976244688,204.2276510540396,None,,,,,,,,,,,,,,,,,,,,,,,,,,,,,,,,,,,,,,,173,001,2024_Mar_01_1141,SpeechDraft1Carolyn_lessNoise_PlusLocalization,2021.2.3,59.8785951194048,
sake.wav,sake.mpg,sake,4,AV,Pink_Noise_4_1.wav,Pink_Noise_4_2.wav,,,,,,,,,,,,,,,0,3,3,73,,,,,,,,,,,,,,,,,,,,,,,206.12768845818937,None,207.62744411453605,None,209.01095627900213,None,day,209.01095627900213,None,return,0.8498211652040482,209.09442233107984,None,,,,,,,,,,,,,,,,,,,,,,,,,,,,,,,,,,,,,,,173,001,2024_Mar_01_1141,SpeechDraft1Carolyn_lessNoise_PlusLocalization,2021.2.3,59.8785951194048,
gut.wav,gut.mpg,gut,1,A,Pink_Noise_1_1.wav,Pink_Noise_1_2.wav,,,,,,,,,,,,,,,0,4,4,13,,,,,,,,,,,,,,,,,,,,,,,209.96105088014156,None,211.46071886178106,None,212.84436356183141,None,gut,212.84436356183141,None,return,0.9604435246437788,212.92774209566414,None,,,,,,,,,,,,,,,,,,,,,,,,,,,,,,,,,,,,,,,173,001,2024_Mar_01_1141,SpeechDraft1Carolyn_lessNoise_PlusLocalization,2021.2.3,59.8785951194048,
shock.wav,shock.mpg,shock,2,A,Pink_Noise_2_1.wav,Pink_Noise_2_2.wav,,,,,,,,,,,,,,,0,5,5,31,,,,,,,,,,,,,,,,,,,,,,,213.9110305905342,None,215.41062845103443,None,216.79440579470247,None,shock,216.79440579470247,None,return,2.1305760936811566,216.8776589827612,None,,,,,,,,,,,,,,,,,,,,,,,,,,,,,,,,,,,,,,,173,001,2024_Mar_01_1141,SpeechDraft1Carolyn_lessNoise_PlusLocalization,2021.2.3,59.8785951194048,
nine.wav,nine.mpg,nine,2,AV,Pink_Noise_2_1.wav,Pink_Noise_2_2.wav,,,,,,,,,,,,,,,0,6,6,91,,,,,,,,,,,,,,,,,,,,,,,219.02766778040677,None,220.52741153910756,None,221.89428518339992,None,nine,221.89428518339992,None,return,0.7424830058589578,221.97770489938557,None,,,,,,,,,,,,,,,,,,,,,,,,,,,,,,,,,,,,,,,173,001,2024_Mar_01_1141,SpeechDraft1Carolyn_lessNoise_PlusLocalization,2021.2.3,59.8785951194048,
frail.wav,frail.mpg,frail,1,A,Pink_Noise_1_1.wav,Pink_Noise_1_2.wav,,,,,,,,,,,,,,,0,7,7,52,,,,,,,,,,,,,,,,,,,,,,,222.74452553130686,None,224.22905537765473,None,225.6110733775422,None,frail,225.6110733775422,None,return,0.9537297878414392,225.69445642642677,None,,,,,,,,,,,,,,,,,,,,,,,,,,,,,,,,,,,,,,,173,001,2024_Mar_01_1141,SpeechDraft1Carolyn_lessNoise_PlusLocalization,2021.2.3,59.8785951194048,
blade.wav,blade.mpg,blade,1,A,Pink_Noise_1_1.wav,Pink_Noise_1_2.wav,,,,,,,,,,,,,,,0,8,8,23,,,,,,,,,,,,,,,,,,,,,,,226.67775405850261,None,228.17741274647415,None,229.56101497728378,None,laid,229.56101497728378,None,return,0.7078794427216053,229.64429746195674,None,,,,,,,,,,,,,,,,,,,,,,,,,,,,,,,,,,,,,,,173,001,2024_Mar_01_1141,SpeechDraft1Carolyn_lessNoise_PlusLocalization,2021.2.3,59.8785951194048,
cause.wav,cause.mpg,cause,4,AV,Pink_Noise_4_1.wav,Pink_Noise_4_2.wav,,,,,,,,,,,,,,,0,9,9,98,,,,,,,,,,,,,,,,,,,,,,,230.3777811070904,None,231.87757479492575,None,233.26121589820832,None,cause,233.26121589820832,None,return,0.7998242387548089,233.3444265173748,None,,,,,,,,,,,,,,,,,,,,,,,,,,,,,,,,,,,,,,,173,001,2024_Mar_01_1141,SpeechDraft1Carolyn_lessNoise_PlusLocalization,2021.2.3,59.8785951194048,
crawl.wav,crawl.mpg,crawl,3,A,Pink_Noise_3_1.wav,Pink_Noise_3_2.wav,,,,,,,,,,,,,,,0,10,10,2,,,,,,,,,,,,,,,,,,,,,,,234.16104669030756,None,235.6606467133388,None,237.04447188600898,None,ball,237.04447188600898,None,return,0.8804979790002108,237.12773536145687,None,,,,,,,,,,,,,,,,,,,,,,,,,,,,,,,,,,,,,,,173,001,2024_Mar_01_1141,SpeechDraft1Carolyn_lessNoise_PlusLocalization,2021.2.3,59.8785951194048,
rent.wav,rent.mpg,rent,2,AV,Pink_Noise_2_1.wav,Pink_Noise_2_2.wav,,,,,,,,,,,,,,,0,11,11,69,,,,,,,,,,,,,,,,,,,,,,,238.02764093130827,None,239.5273777609691,None,240.91100782807916,None,"rent
",240.91100782807916,None,return,0.9018621509894729,240.9943285631016,None,,,,,,,,,,,,,,,,,,,,,,,,,,,,,,,,,,,,,,,173,001,2024_Mar_01_1141,SpeechDraft1Carolyn_lessNoise_PlusLocalization,2021.2.3,59.8785951194048,
ditch.wav,ditch.mpg,ditch,6,AV,Pink_Noise_6_1.wav,Pink_Noise_6_2.wav,,,,,,,,,,,,,,,0,12,12,83,,,,,,,,,,,,,,,,,,,,,,,241.9277303526178,None,243.4443046664819,None,244.82767140772194,None,ditch,244.82767140772194,None,return,1.145145719870925,244.9110708879307,None,,,,,,,,,,,,,,,,,,,,,,,,,,,,,,,,,,,,,,,173,001,2024_Mar_01_1141,SpeechDraft1Carolyn_lessNoise_PlusLocalization,2021.2.3,59.8785951194048,
dwell.wav,dwell.mpg,dwell,1,A,Pink_Noise_1_1.wav,Pink_Noise_1_2.wav,,,,,,,,,,,,,,,0,13,13,21,,,,,,,,,,,,,,,,,,,,,,,246.07775649428368,None,247.57746496330947,None,248.96106955967844,None,dwell,248.96106955967844,None,return,0.9318627594038844,249.04443249385804,None,,,,,,,,,,,,,,,,,,,,,,,,,,,,,,,,,,,,,,,173,001,2024_Mar_01_1141,SpeechDraft1Carolyn_lessNoise_PlusLocalization,2021.2.3,59.8785951194048,
curb.wav,curb.mpg,curb,4,AV,Pink_Noise_4_1.wav,Pink_Noise_4_2.wav,,,,,,,,,,,,,,,0,14,14,89,,,,,,,,,,,,,,,,,,,,,,,249.99448658991605,None,251.49412009026855,None,252.87772496975958,None,curb,252.87772496975958,None,return,0.9912675088271499,252.9611013531685,None,,,,,,,,,,,,,,,,,,,,,,,,,,,,,,,,,,,,,,,173,001,2024_Mar_01_1141,SpeechDraft1Carolyn_lessNoise_PlusLocalization,2021.2.3,59.8785951194048,
please.wav,please.mpg,please,3,A,Pink_Noise_3_1.wav,Pink_Noise_3_2.wav,,,,,,,,,,,,,,,0,15,15,7,,,,,,,,,,,,,,,,,,,,,,,253.9777809465304,None,255.47753584384918,None,256.86099824123085,None,face,256.86099824123085,None,return,0.8717788644134998,256.9444147599861,None,,,,,,,,,,,,,,,,,,,,,,,,,,,,,,,,,,,,,,,173,001,2024_Mar_01_1141,SpeechDraft1Carolyn_lessNoise_PlusLocalization,2021.2.3,59.8785951194048,
shrimp.wav,shrimp.mpg,shrimp,1,AV,Pink_Noise_1_1.wav,Pink_Noise_1_2.wav,,,,,,,,,,,,,,,0,16,16,79,,,,,,,,,,,,,,,,,,,,,,,257.8444089507684,None,259.3443274386227,None,260.7277942886576,None,shrimp,260.7277942886576,None,return,2.4770529456436634,260.8111240910366,None,,,,,,,,,,,,,,,,,,,,,,,,,,,,,,,,,,,,,,,173,001,2024_Mar_01_1141,SpeechDraft1Carolyn_lessNoise_PlusLocalization,2021.2.3,59.8785951194048,
count.wav,count.mpg,count,6,A,Pink_Noise_6_1.wav,Pink_Noise_6_2.wav,,,,,,,,,,,,,,,0,17,17,40,,,,,,,,,,,,,,,,,,,,,,,263.3110544877127,None,264.81081870477647,None,266.1943931411952,None,love,266.1943931411952,None,return,0.8906062059104443,266.27769996318966,None,,,,,,,,,,,,,,,,,,,,,,,,,,,,,,,,,,,,,,,173,001,2024_Mar_01_1141,SpeechDraft1Carolyn_lessNoise_PlusLocalization,2021.2.3,59.8785951194048,
three.wav,three.mpg,three,2,AV,Pink_Noise_2_1.wav,Pink_Noise_2_2.wav,,,,,,,,,,,,,,,0,18,18,107,,,,,,,,,,,,,,,,,,,,,,,267.1943902261555,None,268.69415037333965,None,270.0779295293614,None,three,270.0779295293614,None,return,0.7831583404913545,270.16109273023903,None,,,,,,,,,,,,,,,,,,,,,,,,,,,,,,,,,,,,,,,173,001,2024_Mar_01_1141,SpeechDraft1Carolyn_lessNoise_PlusLocalization,2021.2.3,59.8785951194048,
bland.wav,bland.mpg,bland,1,AV,Pink_Noise_1_1.wav,Pink_Noise_1_2.wav,,,,,,,,,,,,,,,0,19,19,93,,,,,,,,,,,,,,,,,,,,,,,270.9611300593242,None,272.4612387828529,None,273.8443757807836,None,bland,273.8443757807836,None,return,0.9044299190863967,273.92778164334595,None,,,,,,,,,,,,,,,,,,,,,,,,,,,,,,,,,,,,,,,173,001,2024_Mar_01_1141,SpeechDraft1Carolyn_lessNoise_PlusLocalization,2021.2.3,59.8785951194048,
eye.wav,eye.mpg,eye,1,A,Pink_Noise_1_1.wav,Pink_Noise_1_2.wav,,,,,,,,,,,,,,,0,20,20,55,,,,,,,,,,,,,,,,,,,,,,,274.86118775513023,None,276.3608247907832,None,277.7444185288623,None,"eye
",277.7444185288623,None,return,3.2844041595235467,277.8277866980061,None,,,,,,,,,,,,,,,,,,,,,,,,,,,,,,,,,,,,,,,173,001,2024_Mar_01_1141,SpeechDraft1Carolyn_lessNoise_PlusLocalization,2021.2.3,59.8785951194048,
fence.wav,fence.mpg,fence,3,A,Pink_Noise_3_1.wav,Pink_Noise_3_2.wav,,,,,,,,,,,,,,,0,21,21,35,,,,,,,,,,,,,,,,,,,,,,,281.1444484964013,None,282.6441420763731,None,284.0277654789388,None,fence,284.0277654789388,None,return,0.8331662686541677,284.11109555047005,None,,,,,,,,,,,,,,,,,,,,,,,,,,,,,,,,,,,,,,,173,001,2024_Mar_01_1141,SpeechDraft1Carolyn_lessNoise_PlusLocalization,2021.2.3,59.8785951194048,
pride.wav,pride.mpg,pride,6,AV,Pink_Noise_6_1.wav,Pink_Noise_6_2.wav,,,,,,,,,,,,,,,0,22,22,77,,,,,,,,,,,,,,,,,,,,,,,284.9611491076648,None,286.460842942819,None,287.8443903801963,None,why,287.8443903801963,None,return,1.2725476156920195,287.92775751650333,None,,,,,,,,,,,,,,,,,,,,,,,,,,,,,,,,,,,,,,,173,001,2024_Mar_01_1141,SpeechDraft1Carolyn_lessNoise_PlusLocalization,2021.2.3,59.8785951194048,
grown.wav,grown.mpg,grown,4,A,Pink_Noise_4_1.wav,Pink_Noise_4_2.wav,,,,,,,,,,,,,,,0,23,23,11,,,,,,,,,,,,,,,,,,,,,,,289.2276638876647,None,290.7275355774909,None,292.11107455566525,None,road,292.11107455566525,None,return,0.5898110363632441,292.1945234052837,None,,,,,,,,,,,,,,,,,,,,,,,,,,,,,,,,,,,,,,,173,001,2024_Mar_01_1141,SpeechDraft1Carolyn_lessNoise_PlusLocalization,2021.2.3,59.8785951194048,
cell.wav,cell.mpg,cell,2,AV,Pink_Noise_2_1.wav,Pink_Noise_2_2.wav,,,,,,,,,,,,,,,0,24,24,117,,,,,,,,,,,,,,,,,,,,,,,292.81120809167624,None,294.3108823513612,None,295.6944151893258,None,sell,295.6944151893258,None,return,1.1103344224393368,295.7778419693932,None,,,,,,,,,,,,,,,,,,,,,,,,,,,,,,,,,,,,,,,173,001,2024_Mar_01_1141,SpeechDraft1Carolyn_lessNoise_PlusLocalization,2021.2.3,59.8785951194048,
brawl.wav,brawl.mpg,brawl,3,AV,Pink_Noise_3_1.wav,Pink_Noise_3_2.wav,,,,,,,,,,,,,,,0,25,25,108,,,,,,,,,,,,,,,,,,,,,,,296.9111416358501,None,298.4110094355419,None,299.7944389199838,None,brawl,299.7944389199838,None,return,2.1944356309249997,299.8777732271701,None,,,,,,,,,,,,,,,,,,,,,,,,,,,,,,,,,,,,,,,173,001,2024_Mar_01_1141,SpeechDraft1Carolyn_lessNoise_PlusLocalization,2021.2.3,59.8785951194048,
grand.wav,grand.mpg,grand,5,A,Pink_Noise_5_1.wav,Pink_Noise_5_2.wav,,,,,,,,,,,,,,,0,26,26,33,,,,,,,,,,,,,,,,,,,,,,,302.0943641383201,None,303.5942173777148,None,304.9777808180079,None,tram,304.9777808180079,None,return,1.3950540348887444,305.06113033927977,None,,,,,,,,,,,,,,,,,,,,,,,,,,,,,,,,,,,,,,,173,001,2024_Mar_01_1141,SpeechDraft1Carolyn_lessNoise_PlusLocalization,2021.2.3,59.8785951194048,
bet.wav,bet.mpg,bet,3,A,Pink_Noise_3_1.wav,Pink_Noise_3_2.wav,,,,,,,,,,,,,,,0,27,27,1,,,,,,,,,,,,,,,,,,,,,,,306.47782105207443,None,307.97748625651,None,309.3611338324845,None,bet,309.3611338324845,None,return,0.9717720104381442,309.4445102736354,None,,,,,,,,,,,,,,,,,,,,,,,,,,,,,,,,,,,,,,,173,001,2024_Mar_01_1141,SpeechDraft1Carolyn_lessNoise_PlusLocalization,2021.2.3,59.8785951194048,
cuff.wav,cuff.mpg,cuff,2,A,Pink_Noise_2_1.wav,Pink_Noise_2_2.wav,,,,,,,,,,,,,,,0,28,28,51,,,,,,,,,,,,,,,,,,,,,,,310.44454475771636,None,311.9441294753924,None,313.3278191825375,None,cuff,313.3278191825375,None,return,0.7409928906708956,313.41118464712054,None,,,,,,,,,,,,,,,,,,,,,,,,,,,,,,,,,,,,,,,173,001,2024_Mar_01_1141,SpeechDraft1Carolyn_lessNoise_PlusLocalization,2021.2.3,59.8785951194048,
paid.wav,paid.mpg,paid,5,AV,Pink_Noise_5_1.wav,Pink_Noise_5_2.wav,,,,,,,,,,,,,,,0,29,29,102,,,,,,,,,,,,,,,,,,,,,,,314.1778179910034,None,315.677603488788,None,317.0611118301749,None,bay,317.0611118301749,None,return,1.5998067678883672,317.14443013072014,None,,,,,,,,,,,,,,,,,,,,,,,,,,,,,,,,,,,,,,,173,001,2024_Mar_01_1141,SpeechDraft1Carolyn_lessNoise_PlusLocalization,2021.2.3,59.8785951194048,
bake.wav,bake.mpg,bake,2,A,Pink_Noise_2_1.wav,Pink_Noise_2_2.wav,,,,,,,,,,,,,,,0,30,30,20,,,,,,,,,,,,,,,,,,,,,,,318.7611438864842,None,320.26076145563275,None,321.6445227470249,None,bak,321.6445227470249,None,return,0.6805183403193951,321.7277484899387,None,,,,,,,,,,,,,,,,,,,,,,,,,,,,,,,,,,,,,,,173,001,2024_Mar_01_1141,SpeechDraft1Carolyn_lessNoise_PlusLocalization,2021.2.3,59.8785951194048,
fade.wav,fade.mpg,fade,1,A,Pink_Noise_1_1.wav,Pink_Noise_1_2.wav,,,,,,,,,,,,,,,0,31,31,8,,,,,,,,,,,,,,,,,,,,,,,322.4277903037146,None,323.92757178097963,None,325.3111644666642,None,"fade
",325.3111644666642,None,return,1.0857126014307141,325.3944690460339,None,,,,,,,,,,,,,,,,,,,,,,,,,,,,,,,,,,,,,,,173,001,2024_Mar_01_1141,SpeechDraft1Carolyn_lessNoise_PlusLocalization,2021.2.3,59.8785951194048,
grasp.wav,grasp.mpg,grasp,3,A,Pink_Noise_3_1.wav,Pink_Noise_3_2.wav,,,,,,,,,,,,,,,0,32,32,43,,,,,,,,,,,,,,,,,,,,,,,326.5111324619502,None,328.0109373787418,None,329.39455208182335,None,grass,329.39455208182335,None,return,2.4423277294263244,329.4778499510139,None,,,,,,,,,,,,,,,,,,,,,,,,,,,,,,,,,,,,,,,173,001,2024_Mar_01_1141,SpeechDraft1Carolyn_lessNoise_PlusLocalization,2021.2.3,59.8785951194048,
grow.wav,grow.mpg,grow,2,A,Pink_Noise_2_1.wav,Pink_Noise_2_2.wav,,,,,,,,,,,,,,,0,33,33,34,,,,,,,,,,,,,,,,,,,,,,,331.9445729618892,None,333.4441853882745,None,334.82793418318033,None,grow,334.82793418318033,None,return,1.5050428677350283,334.91122880298644,None,,,,,,,,,,,,,,,,,,,,,,,,,,,,,,,,,,,,,,,173,001,2024_Mar_01_1141,SpeechDraft1Carolyn_lessNoise_PlusLocalization,2021.2.3,59.8785951194048,
bull.wav,bull.mpg,bull,1,AV,Pink_Noise_1_1.wav,Pink_Noise_1_2.wav,,,,,,,,,,,,,,,0,34,34,63,,,,,,,,,,,,,,,,,,,,,,,336.44452752918005,None,337.94427911937237,None,339.3278604373336,None,"bull
",339.3278604373336,None,return,1.0850597070530057,339.4111566124484,None,,,,,,,,,,,,,,,,,,,,,,,,,,,,,,,,,,,,,,,173,001,2024_Mar_01_1141,SpeechDraft1Carolyn_lessNoise_PlusLocalization,2021.2.3,59.8785951194048,
boil.wav,boil.mpg,boil,5,AV,Pink_Noise_5_1.wav,Pink_Noise_5_2.wav,,,,,,,,,,,,,,,0,35,35,100,,,,,,,,,,,,,,,,,,,,,,,340.52782947476953,None,342.02763551846147,None,343.4112480422482,None,bored,343.4112480422482,None,return,1.2896757880225778,343.49464985448867,None,,,,,,,,,,,,,,,,,,,,,,,,,,,,,,,,,,,,,,,173,001,2024_Mar_01_1141,SpeechDraft1Carolyn_lessNoise_PlusLocalization,2021.2.3,59.8785951194048,
greed.wav,greed.mpg,greed,6,A,Pink_Noise_6_1.wav,Pink_Noise_6_2.wav,,,,,,,,,,,,,,,0,36,36,5,,,,,,,,,,,,,,,,,,,,,,,344.81120719667524,None,346.3108192477375,None,347.6946347113699,None,"glean
",347.6946347113699,None,return,1.3023200053721666,347.77787037938833,None,,,,,,,,,,,,,,,,,,,,,,,,,,,,,,,,,,,,,,,173,001,2024_Mar_01_1141,SpeechDraft1Carolyn_lessNoise_PlusLocalization,2021.2.3,59.8785951194048,
blend.wav,blend.mpg,blend,2,A,Pink_Noise_2_1.wav,Pink_Noise_2_2.wav,,,,,,,,,,,,,,,0,37,37,39,,,,,,,,,,,,,,,,,,,,,,,349.1112063722685,None,350.61082749348134,None,351.9945876216516,None,lent,351.9945876216516,None,return,1.1062986878678203,352.07793604489416,None,,,,,,,,,,,,,,,,,,,,,,,,,,,,,,,,,,,,,,,173,001,2024_Mar_01_1141,SpeechDraft1Carolyn_lessNoise_PlusLocalization,2021.2.3,59.8785951194048,
birch.wav,birch.mpg,birch,1,A,Pink_Noise_1_1.wav,Pink_Noise_1_2.wav,,,,,,,,,,,,,,,0,38,38,59,,,,,,,,,,,,,,,,,,,,,,,353.21121963951737,None,354.71087182778865,None,356.09464970231056,None,birch,356.09464970231056,None,return,1.414266275241971,356.17791654728353,None,,,,,,,,,,,,,,,,,,,,,,,,,,,,,,,,,,,,,,,173,001,2024_Mar_01_1141,SpeechDraft1Carolyn_lessNoise_PlusLocalization,2021.2.3,59.8785951194048,
cash.wav,cash.mpg,cash,1,A,Pink_Noise_1_1.wav,Pink_Noise_1_2.wav,,,,,,,,,,,,,,,0,39,39,41,,,,,,,,,,,,,,,,,,,,,,,357.61134156305343,None,359.1109611829743,None,360.49458341207355,None,cash,360.49458341207355,None,return,2.806443032808602,360.5778435114771,None,,,,,,,,,,,,,,,,,,,,,,,,,,,,,,,,,,,,,,,173,001,2024_Mar_01_1141,SpeechDraft1Carolyn_lessNoise_PlusLocalization,2021.2.3,59.8785951194048,
dim.wav,dim.mpg,dim,2,A,Pink_Noise_2_1.wav,Pink_Noise_2_2.wav,,,,,,,,,,,,,,,0,40,40,6,,,,,,,,,,,,,,,,,,,,,,,363.4111977694556,None,364.9109619902447,None,366.2946156486869,None,"day
",366.2946156486869,None,return,1.3182158702984452,366.37797253765166,None,,,,,,,,,,,,,,,,,,,,,,,,,,,,,,,,,,,,,,,173,001,2024_Mar_01_1141,SpeechDraft1Carolyn_lessNoise_PlusLocalization,2021.2.3,59.8785951194048,
bride.wav,bride.mpg,bride,4,A,Pink_Noise_4_1.wav,Pink_Noise_4_2.wav,,,,,,,,,,,,,,,0,41,41,28,,,,,,,,,,,,,,,,,,,,,,,367.7279302980751,None,369.22757286019623,None,370.6112608164549,None,bride,370.6112608164549,None,return,0.8736793855205178,370.69457302987576,None,,,,,,,,,,,,,,,,,,,,,,,,,,,,,,,,,,,,,,,173,001,2024_Mar_01_1141,SpeechDraft1Carolyn_lessNoise_PlusLocalization,2021.2.3,59.8785951194048,
cheap.wav,cheap.mpg,cheap,4,A,Pink_Noise_4_1.wav,Pink_Noise_4_2.wav,,,,,,,,,,,,,,,0,42,42,24,,,,,,,,,,,,,,,,,,,,,,,371.59458002913743,None,373.0943944407627,None,374.4778330344707,None,cheek,374.4778330344707,None,return,0.7428676830604672,374.5613089101389,None,,,,,,,,,,,,,,,,,,,,,,,,,,,,,,,,,,,,,,,173,001,2024_Mar_01_1141,SpeechDraft1Carolyn_lessNoise_PlusLocalization,2021.2.3,59.8785951194048,
bruise.wav,bruise.mpg,bruise,3,AV,Pink_Noise_3_1.wav,Pink_Noise_3_2.wav,,,,,,,,,,,,,,,0,43,43,87,,,,,,,,,,,,,,,,,,,,,,,375.3281207103282,None,376.8276747344062,None,378.21132223587483,None,ruse,378.21132223587483,None,return,1.473736671730876,378.29454706795514,None,,,,,,,,,,,,,,,,,,,,,,,,,,,,,,,,,,,,,,,173,001,2024_Mar_01_1141,SpeechDraft1Carolyn_lessNoise_PlusLocalization,2021.2.3,59.8785951194048,
egg.wav,egg.mpg,egg,4,A,Pink_Noise_4_1.wav,Pink_Noise_4_2.wav,,,,,,,,,,,,,,,0,44,44,45,,,,,,,,,,,,,,,,,,,,,,,379.79456530697644,None,381.2943118130788,None,382.6779552223161,None,egg,382.6779552223161,None,return,0.6229725303128362,382.76131697837263,None,,,,,,,,,,,,,,,,,,,,,,,,,,,,,,,,,,,,,,,173,001,2024_Mar_01_1141,SpeechDraft1Carolyn_lessNoise_PlusLocalization,2021.2.3,59.8785951194048,
cake.wav,cake.mpg,cake,2,AV,Pink_Noise_2_1.wav,Pink_Noise_2_2.wav,,,,,,,,,,,,,,,0,45,45,118,,,,,,,,,,,,,,,,,,,,,,,383.41128509677947,None,384.91099531482905,None,386.29449308197945,None,cake,386.29449308197945,None,return,0.6142678381875157,386.3779410449788,None,,,,,,,,,,,,,,,,,,,,,,,,,,,,,,,,,,,,,,,173,001,2024_Mar_01_1141,SpeechDraft1Carolyn_lessNoise_PlusLocalization,2021.2.3,59.8785951194048,
born.wav,born.mpg,born,3,A,Pink_Noise_3_1.wav,Pink_Noise_3_2.wav,,,,,,,,,,,,,,,0,46,46,53,,,,,,,,,,,,,,,,,,,,,,,387.01126389205456,None,388.510998765938,None,389.8946794727817,None,borede,389.8946794727817,None,return,0.9663859531283379,389.9779160665348,None,,,,,,,,,,,,,,,,,,,,,,,,,,,,,,,,,,,,,,,173,001,2024_Mar_01_1141,SpeechDraft1Carolyn_lessNoise_PlusLocalization,2021.2.3,59.8785951194048,
flex.wav,flex.mpg,flex,1,AV,Pink_Noise_1_1.wav,Pink_Noise_1_2.wav,,,,,,,,,,,,,,,0,47,47,99,,,,,,,,,,,,,,,,,,,,,,,390.961245726794,None,392.46146870870143,None,393.8445240762085,None,flex,393.8445240762085,None,return,0.912261656485498,393.9279518183321,None,,,,,,,,,,,,,,,,,,,,,,,,,,,,,,,,,,,,,,,173,001,2024_Mar_01_1141,SpeechDraft1Carolyn_lessNoise_PlusLocalization,2021.2.3,59.8785951194048,
clutch.wav,clutch.mpg,clutch,2,AV,Pink_Noise_2_1.wav,Pink_Noise_2_2.wav,,,,,,,,,,,,,,,0,48,48,67,,,,,,,,,,,,,,,,,,,,,,,394.8611334078014,None,396.361092960462,None,397.74454092234373,None,clutch,397.74454092234373,None,return,2.1242945166304708,397.827902126126,None,,,,,,,,,,,,,,,,,,,,,,,,,,,,,,,,,,,,,,,173,001,2024_Mar_01_1141,SpeechDraft1Carolyn_lessNoise_PlusLocalization,2021.2.3,59.8785951194048,
four.wav,four.mpg,four,4,A,Pink_Noise_4_1.wav,Pink_Noise_4_2.wav,,,,,,,,,,,,,,,0,49,49,30,,,,,,,,,,,,,,,,,,,,,,,399.97796489298344,None,401.47762702871114,None,402.8612519996241,None,bored,402.8612519996241,None,return,1.1755216652527452,402.944655617699,None,,,,,,,,,,,,,,,,,,,,,,,,,,,,,,,,,,,,,,,173,001,2024_Mar_01_1141,SpeechDraft1Carolyn_lessNoise_PlusLocalization,2021.2.3,59.8785951194048,
core.wav,core.mpg,core,5,AV,Pink_Noise_5_1.wav,Pink_Noise_5_2.wav,,,,,,,,,,,,,,,0,50,50,111,,,,,,,,,,,,,,,,,,,,,,,404.14465237408876,None,405.64444237947464,None,407.02797292452306,None,orb,407.02797292452306,None,return,0.9209054047241807,407.1112836487591,None,,,,,,,,,,,,,,,,,,,,,,,,,,,,,,,,,,,,,,,173,001,2024_Mar_01_1141,SpeechDraft1Carolyn_lessNoise_PlusLocalization,2021.2.3,59.8785951194048,
crow.wav,crow.mpg,crow,6,AV,Pink_Noise_6_1.wav,Pink_Noise_6_2.wav,,,,,,,,,,,,,,,0,51,51,90,,,,,,,,,,,,,,,,,,,,,,,408.0612725401297,None,409.56115625146776,None,410.9445668216795,None,"grow
",410.9445668216795,None,return,1.2361844200640917,411.02799747884274,None,,,,,,,,,,,,,,,,,,,,,,,,,,,,,,,,,,,,,,,173,001,2024_Mar_01_1141,SpeechDraft1Carolyn_lessNoise_PlusLocalization,2021.2.3,59.8785951194048,
steam.wav,steam.mpg,steam,3,A,Pink_Noise_3_1.wav,Pink_Noise_3_2.wav,,,,,,,,,,,,,,,0,52,52,16,,,,,,,,,,,,,,,,,,,,,,,412.29461698792875,None,413.7944607194513,None,415.1779212122783,None,"steam
",415.1779212122783,None,return,1.03491894248873,415.2612737827003,None,,,,,,,,,,,,,,,,,,,,,,,,,,,,,,,,,,,,,,,173,001,2024_Mar_01_1141,SpeechDraft1Carolyn_lessNoise_PlusLocalization,2021.2.3,59.8785951194048,
bib.wav,bib.mpg,bib,4,AV,Pink_Noise_4_1.wav,Pink_Noise_4_2.wav,,,,,,,,,,,,,,,0,53,53,96,,,,,,,,,,,,,,,,,,,,,,,416.32798875309527,None,417.8276712372899,None,419.2112323194742,None,bib,419.2112323194742,None,return,0.6415972532704473,419.2946167010814,None,,,,,,,,,,,,,,,,,,,,,,,,,,,,,,,,,,,,,,,173,001,2024_Mar_01_1141,SpeechDraft1Carolyn_lessNoise_PlusLocalization,2021.2.3,59.8785951194048,
blind.wav,blind.mpg,blind,1,AV,Pink_Noise_1_1.wav,Pink_Noise_1_2.wav,,,,,,,,,,,,,,,0,54,54,71,,,,,,,,,,,,,,,,,,,,,,,419.9613526808098,None,421.46108677238226,None,422.8444906100631,None,blind,422.8444906100631,None,return,0.8961639618501067,422.9280350804329,None,,,,,,,,,,,,,,,,,,,,,,,,,,,,,,,,,,,,,,,173,001,2024_Mar_01_1141,SpeechDraft1Carolyn_lessNoise_PlusLocalization,2021.2.3,59.8785951194048,
green.wav,green.mpg,green,1,A,Pink_Noise_1_1.wav,Pink_Noise_1_2.wav,,,,,,,,,,,,,,,0,55,55,44,,,,,,,,,,,,,,,,,,,,,,,423.8446837672964,None,425.36107402388006,None,426.7279890347272,None,green,426.7279890347272,None,return,1.3407356180250645,426.81148783583194,None,,,,,,,,,,,,,,,,,,,,,,,,,,,,,,,,,,,,,,,173,001,2024_Mar_01_1141,SpeechDraft1Carolyn_lessNoise_PlusLocalization,2021.2.3,59.8785951194048,
duck.wav,duck.mpg,duck,3,A,Pink_Noise_3_1.wav,Pink_Noise_3_2.wav,,,,,,,,,,,,,,,0,56,56,18,,,,,,,,,,,,,,,,,,,,,,,428.1779837748036,None,429.6777202486992,None,431.0613321326673,None,duck,431.0613321326673,None,return,0.7754582026973367,431.14471714012325,None,,,,,,,,,,,,,,,,,,,,,,,,,,,,,,,,,,,,,,,173,001,2024_Mar_01_1141,SpeechDraft1Carolyn_lessNoise_PlusLocalization,2021.2.3,59.8785951194048,
bun.wav,bun.mpg,bun,4,AV,Pink_Noise_4_1.wav,Pink_Noise_4_2.wav,,,,,,,,,,,,,,,0,57,57,97,,,,,,,,,,,,,,,,,,,,,,,431.9447034280747,None,433.44436912890524,None,434.8280482981354,None,bun,434.8280482981354,None,return,0.7288653906434774,434.9113204134628,None,,,,,,,,,,,,,,,,,,,,,,,,,,,,,,,,,,,,,,,173,001,2024_Mar_01_1141,SpeechDraft1Carolyn_lessNoise_PlusLocalization,2021.2.3,59.8785951194048,
build.wav,build.mpg,build,6,A,Pink_Noise_6_1.wav,Pink_Noise_6_2.wav,,,,,,,,,,,,,,,0,58,58,37,,,,,,,,,,,,,,,,,,,,,,,435.66132859140635,None,437.17764865327626,None,438.54469198640436,None,babe,438.54469198640436,None,return,4.276150195859373,438.6280292440206,None,,,,,,,,,,,,,,,,,,,,,,,,,,,,,,,,,,,,,,,173,001,2024_Mar_01_1141,SpeechDraft1Carolyn_lessNoise_PlusLocalization,2021.2.3,59.8785951194048,
flu.wav,flu.mpg,flu,5,A,Pink_Noise_5_1.wav,Pink_Noise_5_2.wav,,,,,,,,,,,,,,,0,59,59,26,,,,,,,,,,,,,,,,,,,,,,,442.9281360767782,None,444.42765995673835,None,445.8113340148702,None,win,445.8113340148702,None,return,0.8813964519649744,445.89484759792686,None,,,,,,,,,,,,,,,,,,,,,,,,,,,,,,,,,,,,,,,173,001,2024_Mar_01_1141,SpeechDraft1Carolyn_lessNoise_PlusLocalization,2021.2.3,59.8785951194048,
buff.wav,buff.mpg,buff,1,AV,Pink_Noise_1_1.wav,Pink_Noise_1_2.wav,,,,,,,,,,,,,,,0,60,60,80,,,,,,,,,,,,,,,,,,,,,,,446.7946379156783,None,448.294552275911,None,449.6780232647434,None,"buff
",449.6780232647434,None,return,0.75072215590626,449.76145840715617,None,,,,,,,,,,,,,,,,,,,,,,,,,,,,,,,,,,,,,,,173,001,2024_Mar_01_1141,SpeechDraft1Carolyn_lessNoise_PlusLocalization,2021.2.3,59.8785951194048,
layer.wav,layer.mpg,layer,2,AV,Pink_Noise_2_1.wav,Pink_Noise_2_2.wav,,,,,,,,,,,,,,,0,61,61,114,,,,,,,,,,,,,,,,,,,,,,,450.54463234730065,None,452.04567252565175,None,453.42808689177036,None,"layer
",453.42808689177036,None,return,0.9686901355162263,453.5114817908034,None,,,,,,,,,,,,,,,,,,,,,,,,,,,,,,,,,,,,,,,173,001,2024_Mar_01_1141,SpeechDraft1Carolyn_lessNoise_PlusLocalization,2021.2.3,59.8785951194048,
wine.wav,wine.mpg,wine,5,AV,Pink_Noise_5_1.wav,Pink_Noise_5_2.wav,,,,,,,,,,,,,,,0,62,62,72,,,,,,,,,,,,,,,,,,,,,,,454.5114127378911,None,456.02767974697053,None,457.41138644330204,None,why,457.41138644330204,None,return,1.5055934162810445,457.4947954509407,None,,,,,,,,,,,,,,,,,,,,,,,,,,,,,,,,,,,,,,,173,001,2024_Mar_01_1141,SpeechDraft1Carolyn_lessNoise_PlusLocalization,2021.2.3,59.8785951194048,
eel.wav,eel.mpg,eel,4,AV,Pink_Noise_4_1.wav,Pink_Noise_4_2.wav,,,,,,,,,,,,,,,0,63,63,75,,,,,,,,,,,,,,,,,,,,,,,459.02799779735506,None,460.5278319856152,None,461.91134305950254,None,heal,461.91134305950254,None,return,0.7734425850212574,461.9948720186949,None,,,,,,,,,,,,,,,,,,,,,,,,,,,,,,,,,,,,,,,173,001,2024_Mar_01_1141,SpeechDraft1Carolyn_lessNoise_PlusLocalization,2021.2.3,59.8785951194048,
chess.wav,chess.mpg,chess,3,AV,Pink_Noise_3_1.wav,Pink_Noise_3_2.wav,,,,,,,,,,,,,,,0,64,64,61,,,,,,,,,,,,,,,,,,,,,,,462.79475466068834,None,464.2945165699348,None,465.67805016506463,None,chest,465.67805016506463,None,return,1.014885668642819,465.7613964853808,None,,,,,,,,,,,,,,,,,,,,,,,,,,,,,,,,,,,,,,,173,001,2024_Mar_01_1141,SpeechDraft1Carolyn_lessNoise_PlusLocalization,2021.2.3,59.8785951194048,
mars.wav,mars.mpg,mars,5,AV,Pink_Noise_5_1.wav,Pink_Noise_5_2.wav,,,,,,,,,,,,,,,0,65,65,92,,,,,,,,,,,,,,,,,,,,,,,466.79474153276533,None,468.2962417686358,None,469.67793654464185,None,buzz,469.67793654464185,None,return,0.9988308511674404,469.76142946910113,None,,,,,,,,,,,,,,,,,,,,,,,,,,,,,,,,,,,,,,,173,001,2024_Mar_01_1141,SpeechDraft1Carolyn_lessNoise_PlusLocalization,2021.2.3,59.8785951194048,
feud.wav,feud.mpg,feud,6,A,Pink_Noise_6_1.wav,Pink_Noise_6_2.wav,,,,,,,,,,,,,,,0,66,66,3,,,,,,,,,,,,,,,,,,,,,,,470.7779946094379,None,472.27974328491837,None,473.66136247850955,None,clean,473.66136247850955,None,return,2.2715968498960137,473.7447267603129,None,,,,,,,,,,,,,,,,,,,,,,,,,,,,,,,,,,,,,,,173,001,2024_Mar_01_1141,SpeechDraft1Carolyn_lessNoise_PlusLocalization,2021.2.3,59.8785951194048,
feed.wav,feed.mpg,feed,3,AV,Pink_Noise_3_1.wav,Pink_Noise_3_2.wav,,,,,,,,,,,,,,,0,67,67,74,,,,,,,,,,,,,,,,,,,,,,,476.0447553610429,None,477.54438231606036,None,478.92801450472325,None,feeling,478.92801450472325,None,return,1.1328745409846306,479.01140434201807,None,,,,,,,,,,,,,,,,,,,,,,,,,,,,,,,,,,,,,,,173,001,2024_Mar_01_1141,SpeechDraft1Carolyn_lessNoise_PlusLocalization,2021.2.3,59.8785951194048,
fond.wav,fond.mpg,fond,6,AV,Pink_Noise_6_1.wav,Pink_Noise_6_2.wav,,,,,,,,,,,,,,,0,68,68,94,,,,,,,,,,,,,,,,,,,,,,,480.1614077631384,None,481.66142454277724,None,483.044635088183,None,fryer,483.044635088183,None,return,1.4641627417877316,483.1280207326636,None,,,,,,,,,,,,,,,,,,,,,,,,,,,,,,,,,,,,,,,173,001,2024_Mar_01_1141,SpeechDraft1Carolyn_lessNoise_PlusLocalization,2021.2.3,59.8785951194048,
bring.wav,bring.mpg,bring,6,AV,Pink_Noise_6_1.wav,Pink_Noise_6_2.wav,,,,,,,,,,,,,,,0,69,69,104,,,,,,,,,,,,,,,,,,,,,,,484.6114636082202,None,486.11261831317097,None,487.49482868332416,None,bring,487.49482868332416,None,return,0.990280544385314,487.57801621966064,None,,,,,,,,,,,,,,,,,,,,,,,,,,,,,,,,,,,,,,,173,001,2024_Mar_01_1141,SpeechDraft1Carolyn_lessNoise_PlusLocalization,2021.2.3,59.8785951194048,
chief.wav,chief.mpg,chief,1,AV,Pink_Noise_1_1.wav,Pink_Noise_1_2.wav,,,,,,,,,,,,,,,0,70,70,112,,,,,,,,,,,,,,,,,,,,,,,488.59469082485884,None,490.0944825876504,None,491.4780618781224,None,chief,491.4780618781224,None,return,1.6148282811045647,491.5613614572212,None,,,,,,,,,,,,,,,,,,,,,,,,,,,,,,,,,,,,,,,173,001,2024_Mar_01_1141,SpeechDraft1Carolyn_lessNoise_PlusLocalization,2021.2.3,59.8785951194048,
flesh.wav,flesh.mpg,flesh,1,AV,Pink_Noise_1_1.wav,Pink_Noise_1_2.wav,,,,,,,,,,,,,,,0,71,71,116,,,,,,,,,,,,,,,,,,,,,,,493.19467322994024,None,494.6944139963016,None,496.07802510634065,None,flush,496.07802510634065,None,return,0.9106642492115498,496.1615146342665,None,,,,,,,,,,,,,,,,,,,,,,,,,,,,,,,,,,,,,,,173,001,2024_Mar_01_1141,SpeechDraft1Carolyn_lessNoise_PlusLocalization,2021.2.3,59.8785951194048,
golf.wav,golf.mpg,golf,4,A,Pink_Noise_4_1.wav,Pink_Noise_4_2.wav,,,,,,,,,,,,,,,0,72,72,50,,,,,,,,,,,,,,,,,,,,,,,497.0947199584916,None,498.6111812610179,None,499.9947784189135,None,"skull
",499.9947784189135,None,return,1.0339815253391862,500.0781964957714,None,,,,,,,,,,,,,,,,,,,,,,,,,,,,,,,,,,,,,,,173,001,2024_Mar_01_1141,SpeechDraft1Carolyn_lessNoise_PlusLocalization,2021.2.3,59.8785951194048,
cold.wav,cold.mpg,cold,6,AV,Pink_Noise_6_1.wav,Pink_Noise_6_2.wav,,,,,,,,,,,,,,,0,73,73,106,,,,,,,,,,,,,,,,,,,,,,,501.14475103188306,None,502.66119685582817,None,504.04464198928326,None,cord,504.04464198928326,None,return,0.8240911001339555,504.128126504831,None,,,,,,,,,,,,,,,,,,,,,,,,,,,,,,,,,,,,,,,173,001,2024_Mar_01_1141,SpeechDraft1Carolyn_lessNoise_PlusLocalization,2021.2.3,59.8785951194048,
castle.wav,castle.mpg,castle,1,A,Pink_Noise_1_1.wav,Pink_Noise_1_2.wav,,,,,,,,,,,,,,,0,74,74,54,,,,,,,,,,,,,,,,,,,,,,,504.9781383732334,None,506.4779072292149,None,507.86153258010745,None,castle,507.86153258010745,None,return,1.2714070342481136,507.9447836894542,None,,,,,,,,,,,,,,,,,,,,,,,,,,,,,,,,,,,,,,,173,001,2024_Mar_01_1141,SpeechDraft1Carolyn_lessNoise_PlusLocalization,2021.2.3,59.8785951194048,
broad.wav,broad.mpg,broad,1,AV,Pink_Noise_1_1.wav,Pink_Noise_1_2.wav,,,,,,,,,,,,,,,0,75,75,103,,,,,,,,,,,,,,,,,,,,,,,509.24480769317597,None,510.7446313481778,None,512.1280929287896,None,"broad
",512.1280929287896,None,return,1.100719346664846,512.2114818459377,None,,,,,,,,,,,,,,,,,,,,,,,,,,,,,,,,,,,,,,,173,001,2024_Mar_01_1141,SpeechDraft1Carolyn_lessNoise_PlusLocalization,2021.2.3,59.8785951194048,
batch.wav,batch.mpg,batch,6,AV,Pink_Noise_6_1.wav,Pink_Noise_6_2.wav,,,,,,,,,,,,,,,0,76,76,88,,,,,,,,,,,,,,,,,,,,,,,513.3447891268879,None,514.8620701571926,None,516.2446963191032,None,bash,516.2446963191032,None,return,0.8801216268911958,516.3281516488642,None,,,,,,,,,,,,,,,,,,,,,,,,,,,,,,,,,,,,,,,173,001,2024_Mar_01_1141,SpeechDraft1Carolyn_lessNoise_PlusLocalization,2021.2.3,59.8785951194048,
chick.wav,chick.mpg,chick,4,A,Pink_Noise_4_1.wav,Pink_Noise_4_2.wav,,,,,,,,,,,,,,,0,77,77,47,,,,,,,,,,,,,,,,,,,,,,,517.2281457670033,None,518.7612876687199,None,520.1447129324079,None,chin,520.1447129324079,None,return,1.3321903981268406,520.2280897516757,None,,,,,,,,,,,,,,,,,,,,,,,,,,,,,,,,,,,,,,,173,001,2024_Mar_01_1141,SpeechDraft1Carolyn_lessNoise_PlusLocalization,2021.2.3,59.8785951194048,
clue.wav,clue.mpg,clue,3,A,Pink_Noise_3_1.wav,Pink_Noise_3_2.wav,,,,,,,,,,,,,,,0,78,78,25,,,,,,,,,,,,,,,,,,,,,,,521.5781272193417,None,523.0944400411099,None,524.478195246309,None,clear,524.478195246309,None,return,0.774576660245657,524.5615933714435,None,,,,,,,,,,,,,,,,,,,,,,,,,,,,,,,,,,,,,,,173,001,2024_Mar_01_1141,SpeechDraft1Carolyn_lessNoise_PlusLocalization,2021.2.3,59.8785951194048,
clad.wav,clad.mpg,clad,4,AV,Pink_Noise_4_1.wav,Pink_Noise_4_2.wav,,,,,,,,,,,,,,,0,79,79,68,,,,,,,,,,,,,,,,,,,,,,,525.3614710569382,None,526.8612047499046,None,528.2447865372524,None,"clad
",528.2447865372524,None,return,0.7200158592313528,528.3281812956557,None,,,,,,,,,,,,,,,,,,,,,,,,,,,,,,,,,,,,,,,173,001,2024_Mar_01_1141,SpeechDraft1Carolyn_lessNoise_PlusLocalization,2021.2.3,59.8785951194048,
coast.wav,coast.mpg,coast,2,A,Pink_Noise_2_1.wav,Pink_Noise_2_2.wav,,,,,,,,,,,,,,,0,80,80,56,,,,,,,,,,,,,,,,,,,,,,,529.0781846540049,None,530.5778192626312,None,531.9613212626427,None,toast,531.9613212626427,None,return,0.9155495716258883,532.0447905026376,None,,,,,,,,,,,,,,,,,,,,,,,,,,,,,,,,,,,,,,,173,001,2024_Mar_01_1141,SpeechDraft1Carolyn_lessNoise_PlusLocalization,2021.2.3,59.8785951194048,
cloth.wav,cloth.mpg,cloth,2,AV,Pink_Noise_2_1.wav,Pink_Noise_2_2.wav,,,,,,,,,,,,,,,0,81,81,60,,,,,,,,,,,,,,,,,,,,,,,532.9782205037773,None,534.4778548600152,None,535.8613814394921,None,cloth,535.8613814394921,None,return,0.9113495582714677,535.9448289601132,None,,,,,,,,,,,,,,,,,,,,,,,,,,,,,,,,,,,,,,,173,001,2024_Mar_01_1141,SpeechDraft1Carolyn_lessNoise_PlusLocalization,2021.2.3,59.8785951194048,
catch.wav,catch.mpg,catch,4,A,Pink_Noise_4_1.wav,Pink_Noise_4_2.wav,,,,,,,,,,,,,,,0,82,82,19,,,,,,,,,,,,,,,,,,,,,,,536.8780981758609,None,538.3778761401772,None,539.7614481858909,None,"catch
",539.7614481858909,None,return,1.8193401908501983,539.844865931198,None,,,,,,,,,,,,,,,,,,,,,,,,,,,,,,,,,,,,,,,173,001,2024_Mar_01_1141,SpeechDraft1Carolyn_lessNoise_PlusLocalization,2021.2.3,59.8785951194048,
stone.wav,stone.mpg,stone,5,AV,Pink_Noise_5_1.wav,Pink_Noise_5_2.wav,,,,,,,,,,,,,,,0,83,83,115,,,,,,,,,,,,,,,,,,,,,,,541.6949631441385,None,543.2112063271925,None,544.5947004985064,None,stone,544.5947004985064,None,return,2.4499853886663914,544.6781954821199,None,,,,,,,,,,,,,,,,,,,,,,,,,,,,,,,,,,,,,,,173,001,2024_Mar_01_1141,SpeechDraft1Carolyn_lessNoise_PlusLocalization,2021.2.3,59.8785951194048,
fame.wav,fame.mpg,fame,2,A,Pink_Noise_2_1.wav,Pink_Noise_2_2.wav,,,,,,,,,,,,,,,0,84,84,58,,,,,,,,,,,,,,,,,,,,,,,547.1448787329718,None,548.6445044502616,None,550.0281605366617,None,vain,550.0281605366617,None,return,1.4726889953017235,550.1115669421852,None,,,,,,,,,,,,,,,,,,,,,,,,,,,,,,,,,,,,,,,173,001,2024_Mar_01_1141,SpeechDraft1Carolyn_lessNoise_PlusLocalization,2021.2.3,59.8785951194048,
flick.wav,flick.mpg,flick,2,A,Pink_Noise_2_1.wav,Pink_Noise_2_2.wav,,,,,,,,,,,,,,,0,85,85,46,,,,,,,,,,,,,,,,,,,,,,,551.6115023205057,None,553.1112853251398,None,554.4948662472889,None,flick,554.4948662472889,None,return,0.9420351767912507,554.5781497787684,None,,,,,,,,,,,,,,,,,,,,,,,,,,,,,,,,,,,,,,,173,001,2024_Mar_01_1141,SpeechDraft1Carolyn_lessNoise_PlusLocalization,2021.2.3,59.8785951194048,
grip.wav,grip.mpg,grip,3,AV,Pink_Noise_3_1.wav,Pink_Noise_3_2.wav,,,,,,,,,,,,,,,0,86,86,119,,,,,,,,,,,,,,,,,,,,,,,555.5449832798913,None,557.0612342171371,None,558.4447591416538,None,"grip
",558.4447591416538,None,return,0.7839793898165226,558.5282194549218,None,,,,,,,,,,,,,,,,,,,,,,,,,,,,,,,,,,,,,,,173,001,2024_Mar_01_1141,SpeechDraft1Carolyn_lessNoise_PlusLocalization,2021.2.3,59.8785951194048,
dead.wav,dead.mpg,dead,3,AV,Pink_Noise_3_1.wav,Pink_Noise_3_2.wav,,,,,,,,,,,,,,,0,87,87,113,,,,,,,,,,,,,,,,,,,,,,,559.3447925020009,None,560.8462696988136,None,562.2282062489539,None,"day
",562.2282062489539,None,return,0.7205700809136033,562.3116195648909,None,,,,,,,,,,,,,,,,,,,,,,,,,,,,,,,,,,,,,,,173,001,2024_Mar_01_1141,SpeechDraft1Carolyn_lessNoise_PlusLocalization,2021.2.3,59.8785951194048,
curse.wav,curse.mpg,curse,3,AV,Pink_Noise_3_1.wav,Pink_Noise_3_2.wav,,,,,,,,,,,,,,,0,88,88,84,,,,,,,,,,,,,,,,,,,,,,,563.0615926114842,None,564.5611746106297,None,565.9447638550773,None,curse,565.9447638550773,None,return,0.9161243075504899,566.028135783039,None,,,,,,,,,,,,,,,,,,,,,,,,,,,,,,,,,,,,,,,173,001,2024_Mar_01_1141,SpeechDraft1Carolyn_lessNoise_PlusLocalization,2021.2.3,59.8785951194048,
cute.wav,cute.mpg,cute,4,AV,Pink_Noise_4_1.wav,Pink_Noise_4_2.wav,,,,,,,,,,,,,,,0,89,89,65,,,,,,,,,,,,,,,,,,,,,,,566.9615243393928,None,568.4778498997912,None,569.8446957580745,None,cute,569.8446957580745,None,return,0.8401655210182071,569.9281530315056,None,,,,,,,,,,,,,,,,,,,,,,,,,,,,,,,,,,,,,,,173,001,2024_Mar_01_1141,SpeechDraft1Carolyn_lessNoise_PlusLocalization,2021.2.3,59.8785951194048,
bowl.wav,bowl.mpg,bowl,5,A,Pink_Noise_5_1.wav,Pink_Noise_5_2.wav,,,,,,,,,,,,,,,0,90,90,0,,,,,,,,,,,,,,,,,,,,,,,570.7948247594759,None,572.3114838786423,None,573.694820381701,None,bowl,573.694820381701,None,return,1.4220622200518847,573.7782107144594,None,,,,,,,,,,,,,,,,,,,,,,,,,,,,,,,,,,,,,,,173,001,2024_Mar_01_1141,SpeechDraft1Carolyn_lessNoise_PlusLocalization,2021.2.3,59.8785951194048,
lead.wav,lead.mpg,lead,4,AV,Pink_Noise_4_1.wav,Pink_Noise_4_2.wav,,,,,,,,,,,,,,,0,91,91,101,,,,,,,,,,,,,,,,,,,,,,,575.2281796978787,None,576.7283252896741,None,578.1114471005276,None,ledge,578.1114471005276,None,return,1.6772603327408433,578.1949237324297,None,,,,,,,,,,,,,,,,,,,,,,,,,,,,,,,,,,,,,,,173,001,2024_Mar_01_1141,SpeechDraft1Carolyn_lessNoise_PlusLocalization,2021.2.3,59.8785951194048,
fake.wav,fake.mpg,fake,2,A,Pink_Noise_2_1.wav,Pink_Noise_2_2.wav,,,,,,,,,,,,,,,0,92,92,29,,,,,,,,,,,,,,,,,,,,,,,579.8949176287279,None,581.3945246739313,None,582.778212537989,None,thick,582.778212537989,None,return,1.6827449155971408,582.8615401359275,None,,,,,,,,,,,,,,,,,,,,,,,,,,,,,,,,,,,,,,,173,001,2024_Mar_01_1141,SpeechDraft1Carolyn_lessNoise_PlusLocalization,2021.2.3,59.8785951194048,
thorn.wav,thorn.mpg,thorn,5,A,Pink_Noise_5_1.wav,Pink_Noise_5_2.wav,,,,,,,,,,,,,,,0,93,93,10,,,,,,,,,,,,,,,,,,,,,,,584.5616102516651,None,586.0779416300356,None,587.4616693304852,None,dorm,587.4616693304852,None,return,1.7273033829405904,587.5448901792988,None,,,,,,,,,,,,,,,,,,,,,,,,,,,,,,,,,,,,,,,173,001,2024_Mar_01_1141,SpeechDraft1Carolyn_lessNoise_PlusLocalization,2021.2.3,59.8785951194048,
cape.wav,cape.mpg,cape,5,AV,Pink_Noise_5_1.wav,Pink_Noise_5_2.wav,,,,,,,,,,,,,,,0,94,94,105,,,,,,,,,,,,,,,,,,,,,,,589.2948737312108,None,590.7946133026853,None,592.178253072314,None,cape,592.178253072314,None,return,0.8266883650794625,592.2615216653794,None,,,,,,,,,,,,,,,,,,,,,,,,,,,,,,,,,,,,,,,173,001,2024_Mar_01_1141,SpeechDraft1Carolyn_lessNoise_PlusLocalization,2021.2.3,59.8785951194048,
news.wav,news.mpg,news,6,AV,Pink_Noise_6_1.wav,Pink_Noise_6_2.wav,,,,,,,,,,,,,,,0,95,95,85,,,,,,,,,,,,,,,,,,,,,,,593.1115374071524,None,594.6127770356834,None,595.994867388159,None,use,595.994867388159,None,return,0.6499197669327259,596.0782258082181,None,,,,,,,,,,,,,,,,,,,,,,,,,,,,,,,,,,,,,,,173,001,2024_Mar_01_1141,SpeechDraft1Carolyn_lessNoise_PlusLocalization,2021.2.3,59.8785951194048,
brew.wav,brew.mpg,brew,1,AV,Pink_Noise_1_1.wav,Pink_Noise_1_2.wav,,,,,,,,,,,,,,,0,96,96,110,,,,,,,,,,,,,,,,,,,,,,,596.7449248209596,None,598.261237245053,None,599.6448849113658,None,brood,599.6448849113658,None,return,1.6479344395920634,599.728247188963,None,,,,,,,,,,,,,,,,,,,,,,,,,,,,,,,,,,,,,,,173,001,2024_Mar_01_1141,SpeechDraft1Carolyn_lessNoise_PlusLocalization,2021.2.3,59.8785951194048,
row.wav,row.mpg,row,5,A,Pink_Noise_5_1.wav,Pink_Noise_5_2.wav,,,,,,,,,,,,,,,0,97,97,49,,,,,,,,,,,,,,,,,,,,,,,601.3949455637485,None,602.89587986283,None,604.2782308701426,None,no,604.2782308701426,None,return,0.6386510860174894,604.3616192098707,None,,,,,,,,,,,,,,,,,,,,,,,,,,,,,,,,,,,,,,,173,001,2024_Mar_01_1141,SpeechDraft1Carolyn_lessNoise_PlusLocalization,2021.2.3,59.8785951194048,
dust.wav,dust.mpg,dust,5,AV,Pink_Noise_5_1.wav,Pink_Noise_5_2.wav,,,,,,,,,,,,,,,0,98,98,76,,,,,,,,,,,,,,,,,,,,,,,605.0282419444993,None,606.5297041470185,None,607.9114756453782,None,"dust
",607.9114756453782,None,return,0.8532763021066785,607.9949046364054,None,,,,,,,,,,,,,,,,,,,,,,,,,,,,,,,,,,,,,,,173,001,2024_Mar_01_1141,SpeechDraft1Carolyn_lessNoise_PlusLocalization,2021.2.3,59.8785951194048,
bush.wav,bush.mpg,bush,5,AV,Pink_Noise_5_1.wav,Pink_Noise_5_2.wav,,,,,,,,,,,,,,,0,99,99,95,,,,,,,,,,,,,,,,,,,,,,,608.8782655447721,None,610.3946274481714,None,611.7614788282663,None,"brush
",611.7614788282663,None,return,1.003227837383747,611.8449529148638,None,,,,,,,,,,,,,,,,,,,,,,,,,,,,,,,,,,,,,,,173,001,2024_Mar_01_1141,SpeechDraft1Carolyn_lessNoise_PlusLocalization,2021.2.3,59.8785951194048,
flat.wav,flat.mpg,flat,2,AV,Pink_Noise_2_1.wav,Pink_Noise_2_2.wav,,,,,,,,,,,,,,,0,100,100,86,,,,,,,,,,,,,,,,,,,,,,,612.878235667944,None,614.3798849843442,None,615.7614264637232,None,flat,615.7614264637232,None,return,0.9473199723288417,615.8448813408613,None,,,,,,,,,,,,,,,,,,,,,,,,,,,,,,,,,,,,,,,173,001,2024_Mar_01_1141,SpeechDraft1Carolyn_lessNoise_PlusLocalization,2021.2.3,59.8785951194048,
crew.wav,crew.mpg,crew,5,A,Pink_Noise_5_1.wav,Pink_Noise_5_2.wav,,,,,,,,,,,,,,,0,101,101,14,,,,,,,,,,,,,,,,,,,,,,,616.8115381347016,None,618.3279807157815,None,619.7115576500073,None,"cruise
",619.7115576500073,None,return,3.7012717984616756,619.7949016354978,None,,,,,,,,,,,,,,,,,,,,,,,,,,,,,,,,,,,,,,,173,001,2024_Mar_01_1141,SpeechDraft1Carolyn_lessNoise_PlusLocalization,2021.2.3,59.8785951194048,
foot.wav,foot.mpg,foot,5,AV,Pink_Noise_5_1.wav,Pink_Noise_5_2.wav,,,,,,,,,,,,,,,0,102,102,64,,,,,,,,,,,,,,,,,,,,,,,623.5281159067526,None,625.0446665482596,None,626.4282814553007,None,"foot
",626.4282814553007,None,return,0.9365826081484556,626.5116101885214,None,,,,,,,,,,,,,,,,,,,,,,,,,,,,,,,,,,,,,,,173,001,2024_Mar_01_1141,SpeechDraft1Carolyn_lessNoise_PlusLocalization,2021.2.3,59.8785951194048,
peach.wav,peach.mpg,peach,4,A,Pink_Noise_4_1.wav,Pink_Noise_4_2.wav,,,,,,,,,,,,,,,0,103,103,27,,,,,,,,,,,,,,,,,,,,,,,627.4782877527177,None,628.994744470343,None,630.3617264991626,None,bleach,630.3617264991626,None,return,2.011212139390409,630.4449664782733,None,,,,,,,,,,,,,,,,,,,,,,,,,,,,,,,,,,,,,,,173,001,2024_Mar_01_1141,SpeechDraft1Carolyn_lessNoise_PlusLocalization,2021.2.3,59.8785951194048,
flask.wav,flask.mpg,flask,6,A,Pink_Noise_6_1.wav,Pink_Noise_6_2.wav,,,,,,,,,,,,,,,0,104,104,57,,,,,,,,,,,,,,,,,,,,,,,632.4782369351014,None,633.9796498594806,None,635.3618213916197,None,mind,635.3618213916197,None,return,0.763353006914258,635.4449422582984,None,,,,,,,,,,,,,,,,,,,,,,,,,,,,,,,,,,,,,,,173,001,2024_Mar_01_1141,SpeechDraft1Carolyn_lessNoise_PlusLocalization,2021.2.3,59.8785951194048,
bribe.wav,bribe.mpg,bribe,4,A,Pink_Noise_4_1.wav,Pink_Noise_4_2.wav,,,,,,,,,,,,,,,0,105,105,4,,,,,,,,,,,,,,,,,,,,,,,636.2282176623121,None,637.7446443764493,None,639.1282098246738,None,bribe,639.1282098246738,None,return,1.0285422606393695,639.2116533564404,None,,,,,,,,,,,,,,,,,,,,,,,,,,,,,,,,,,,,,,,173,001,2024_Mar_01_1141,SpeechDraft1Carolyn_lessNoise_PlusLocalization,2021.2.3,59.8785951194048,
climb.wav,climb.mpg,climb,6,A,Pink_Noise_6_1.wav,Pink_Noise_6_2.wav,,,,,,,,,,,,,,,0,106,106,48,,,,,,,,,,,,,,,,,,,,,,,640.2615200951695,None,641.7630391586572,None,643.1449071094394,None,"mind
",643.1449071094394,None,return,0.683862772770226,643.2283147480339,None,,,,,,,,,,,,,,,,,,,,,,,,,,,,,,,,,,,,,,,173,001,2024_Mar_01_1141,SpeechDraft1Carolyn_lessNoise_PlusLocalization,2021.2.3,59.8785951194048,
toy.wav,toy.mpg,toy,3,A,Pink_Noise_3_1.wav,Pink_Noise_3_2.wav,,,,,,,,,,,,,,,0,107,107,38,,,,,,,,,,,,,,,,,,,,,,,643.9449348766357,None,645.4613491846249,None,646.844972813502,None,toy,646.844972813502,None,return,0.7118907421827316,646.9283389700577,None,,,,,,,,,,,,,,,,,,,,,,,,,,,,,,,,,,,,,,,173,001,2024_Mar_01_1141,SpeechDraft1Carolyn_lessNoise_PlusLocalization,2021.2.3,59.8785951194048,
cheek.wav,cheek.mpg,cheek,3,AV,Pink_Noise_3_1.wav,Pink_Noise_3_2.wav,,,,,,,,,,,,,,,0,108,108,62,,,,,,,,,,,,,,,,,,,,,,,647.6617632554844,None,649.1779580153525,None,650.5449271472171,None,"cheek
",650.5449271472171,None,return,0.8038602145388722,650.6283131772652,None,,,,,,,,,,,,,,,,,,,,,,,,,,,,,,,,,,,,,,,173,001,2024_Mar_01_1141,SpeechDraft1Carolyn_lessNoise_PlusLocalization,2021.2.3,59.8785951194048,
gas.wav,gas.mpg,gas,4,AV,Pink_Noise_4_1.wav,Pink_Noise_4_2.wav,,,,,,,,,,,,,,,0,109,109,78,,,,,,,,,,,,,,,,,,,,,,,651.4617604156956,None,652.9779441580176,None,654.3616383774206,None,gasp,654.3616383774206,None,return,1.7712076371535659,654.4449767917395,None,,,,,,,,,,,,,,,,,,,,,,,,,,,,,,,,,,,,,,,173,001,2024_Mar_01_1141,SpeechDraft1Carolyn_lessNoise_PlusLocalization,2021.2.3,59.8785951194048,
nice.wav,nice.mpg,nice,5,A,Pink_Noise_5_1.wav,Pink_Noise_5_2.wav,,,,,,,,,,,,,,,0,110,110,9,,,,,,,,,,,,,,,,,,,,,,,656.2449448872358,None,657.7613773448393,None,659.1449127560481,None,rus,659.1449127560481,None,return,2.0998889235779643,659.2283156216145,None,,,,,,,,,,,,,,,,,,,,,,,,,,,,,,,,,,,,,,,173,001,2024_Mar_01_1141,SpeechDraft1Carolyn_lessNoise_PlusLocalization,2021.2.3,59.8785951194048,
wheat.wav,wheat.mpg,wheat,6,AV,Pink_Noise_6_1.wav,Pink_Noise_6_2.wav,,,,,,,,,,,,,,,0,111,111,66,,,,,,,,,,,,,,,,,,,,,,,661.3454081006348,None,662.8614188581705,None,664.2450071154162,None,tweak,664.2450071154162,None,return,1.2078916560858488,664.3283681971952,None,,,,,,,,,,,,,,,,,,,,,,,,,,,,,,,,,,,,,,,173,001,2024_Mar_01_1141,SpeechDraft1Carolyn_lessNoise_PlusLocalization,2021.2.3,59.8785951194048,
glove.wav,glove.mpg,glove,5,A,Pink_Noise_5_1.wav,Pink_Noise_5_2.wav,,,,,,,,,,,,,,,0,112,112,36,,,,,,,,,,,,,,,,,,,,,,,665.5617431113496,None,667.0780392289162,None,668.4449973562732,None,glove,668.4449973562732,None,return,1.6958264587447047,668.5283540729433,None,,,,,,,,,,,,,,,,,,,,,,,,,,,,,,,,,,,,,,,173,001,2024_Mar_01_1141,SpeechDraft1Carolyn_lessNoise_PlusLocalization,2021.2.3,59.8785951194048,
bare.wav,bare.mpg,bare,3,AV,Pink_Noise_3_1.wav,Pink_Noise_3_2.wav,,,,,,,,,,,,,,,0,113,113,82,,,,,,,,,,,,,,,,,,,,,,,670.2449803547934,None,671.7613634699956,None,673.1449376307428,None,bear,673.1449376307428,None,return,0.7959466725587845,673.228272087872,None,,,,,,,,,,,,,,,,,,,,,,,,,,,,,,,,,,,,,,,173,001,2024_Mar_01_1141,SpeechDraft1Carolyn_lessNoise_PlusLocalization,2021.2.3,59.8785951194048,
wet.wav,wet.mpg,wet,6,A,Pink_Noise_6_1.wav,Pink_Noise_6_2.wav,,,,,,,,,,,,,,,0,114,114,42,,,,,,,,,,,,,,,,,,,,,,,674.0450111040846,None,675.5614391919225,None,676.9450014419854,None,brush,676.9450014419854,None,return,1.5799662489444017,677.028319018893,None,,,,,,,,,,,,,,,,,,,,,,,,,,,,,,,,,,,,,,,173,001,2024_Mar_01_1141,SpeechDraft1Carolyn_lessNoise_PlusLocalization,2021.2.3,59.8785951194048,
beige.wav,beige.mpg,beige,6,A,Pink_Noise_6_1.wav,Pink_Noise_6_2.wav,,,,,,,,,,,,,,,0,115,115,32,,,,,,,,,,,,,,,,,,,,,,,678.6285248231143,None,680.1447202963755,None,681.5284742601216,None,"beige
",681.5284742601216,None,return,1.6525099743157625,681.6116927191615,None,,,,,,,,,,,,,,,,,,,,,,,,,,,,,,,,,,,,,,,173,001,2024_Mar_01_1141,SpeechDraft1Carolyn_lessNoise_PlusLocalization,2021.2.3,59.8785951194048,
fear.wav,fear.mpg,fear,3,AV,Pink_Noise_3_1.wav,Pink_Noise_3_2.wav,,,,,,,,,,,,,,,0,116,116,109,,,,,,,,,,,,,,,,,,,,,,,683.2950381590053,None,684.8114020889625,None,686.1949318554252,None,"fear
",686.1949318554252,None,return,0.76981439627707,686.2783743077889,None,,,,,,,,,,,,,,,,,,,,,,,,,,,,,,,,,,,,,,,173,001,2024_Mar_01_1141,SpeechDraft1Carolyn_lessNoise_PlusLocalization,2021.2.3,59.8785951194048,
chop.wav,chop.mpg,chop,2,AV,Pink_Noise_2_1.wav,Pink_Noise_2_2.wav,,,,,,,,,,,,,,,0,117,117,81,,,,,,,,,,,,,,,,,,,,,,,687.0783502571285,None,688.5947226062417,None,689.978271602653,None,"chop
",689.978271602653,None,return,0.8184432219713926,690.0617453763261,None,,,,,,,,,,,,,,,,,,,,,,,,,,,,,,,,,,,,,,,173,001,2024_Mar_01_1141,SpeechDraft1Carolyn_lessNoise_PlusLocalization,2021.2.3,59.8785951194048,
fault.wav,fault.mpg,fault,6,A,Pink_Noise_6_1.wav,Pink_Noise_6_2.wav,,,,,,,,,,,,,,,0,118,118,15,,,,,,,,,,,,,,,,,,,,,,,690.9117065677419,None,692.4285194510594,None,693.8116261474788,None,flus,693.8116261474788,None,return,1.4092353275045753,693.8949424540624,None,,,,,,,,,,,,,,,,,,,,,,,,,,,,,,,,,,,,,,,173,001,2024_Mar_01_1141,SpeechDraft1Carolyn_lessNoise_PlusLocalization,2021.2.3,59.8785951194048,
hike.wav,hike.mpg,hike,5,A,Pink_Noise_5_1.wav,Pink_Noise_5_2.wav,,,,,,,,,,,,,,,0,119,119,12,,,,,,,,,,,,,,,,,,,,,,,695.3283662628382,None,696.8446557903662,None,698.2284834524617,None,"ice
",698.2284834524617,None,return,0.7364973360672593,698.3116847584024,None,,,,,,,,,,,,,,,,,,,,,,,,,,,,,,,,,,,,,,,173,001,2024_Mar_01_1141,SpeechDraft1Carolyn_lessNoise_PlusLocalization,2021.2.3,59.8785951194048,
,,,,,,,,,,,,,,,,,,,,,,,,,,,,,,,,,,,,,,,,,,,,,,,,,,,,,,,,,,,,,,,,,,space,29.246550666168332,699.1618133932352,None,,,,,,,,,,,,,,,,,,,,,,,,,,,,,173,001,2024_Mar_01_1141,SpeechDraft1Carolyn_lessNoise_PlusLocalization,2021.2.3,59.8785951194048,
,,,,,,,,nearLeft,-6.5,1,ch1Sound_localizationTask.wav,-6.5,"(857, 878)","(-103,-202)",-95,-338,,,,,,,,,0,0,0,2,,,,,,,,,,,,,,,,,,,,,,,,,,,,,,,,,,,,,,,,,,699.1618133932352,None,728.444826357998,None,729.545139670372,None,730.4782153721899,None,1.2555555555555555,1.982734689489007,730.4782153721899,None,,,,,,,,,,,,,,,,,173,001,2024_Mar_01_1141,SpeechDraft1Carolyn_lessNoise_PlusLocalization,2021.2.3,59.8785951194048,
,,,,,,,,nearLeft,-6.5,1,ch1Sound_localizationTask.wav,-6.5,"(857, 878)","(-103,-202)",-95,-338,,,,,,,,,0,1,1,2,,,,,,,,,,,,,,,,,,,,,,,,,,,,,,,,,,,,,,,,,,,,732.4617044506595,None,733.5613573929295,None,734.4947263607755,None,1.3973544973544973,0.89922078512609,734.4947263607755,None,,,,,,,,,,,,,,,,,173,001,2024_Mar_01_1141,SpeechDraft1Carolyn_lessNoise_PlusLocalization,2021.2.3,59.8785951194048,
,,,,,,,,midLeft,-13.0,2,ch1Sound_localizationTask.wav,-13.0,"(762, 878)","(-198,-202)",-190,-338,,,,,,,,,0,2,2,1,,,,,,,,,,,,,,,,,,,,,,,,,,,,,,,,,,,,,,,,,,,,735.3949887156487,None,736.4948153560981,None,737.4284154679626,None,1.2047619047619047,0.6486561838537455,737.4284154679626,None,,,,,,,,,,,,,,,,,173,001,2024_Mar_01_1141,SpeechDraft1Carolyn_lessNoise_PlusLocalization,2021.2.3,59.8785951194048,
,,,,,,,,center,0.0,6,ch1Sound_localizationTask.wav,0.0,"(952, 878)","(-8,-202)",0,-338,,,,,,,,,0,3,3,3,,,,,,,,,,,,,,,,,,,,,,,,,,,,,,,,,,,,,,,,,,,,738.0788087770343,None,739.1780567020178,None,740.1116004344076,None,1.5148148148148148,1.0164179196581244,740.1116004344076,None,,,,,,,,,,,,,,,,,173,001,2024_Mar_01_1141,SpeechDraft1Carolyn_lessNoise_PlusLocalization,2021.2.3,59.8785951194048,
,,,,,,,,nearRight,6.5,0,ch1Sound_localizationTask.wav,6.5,"(1047, 878)","(87, -202)",95,-338,,,,,,,,,0,4,4,4,,,,,,,,,,,,,,,,,,,,,,,,,,,,,,,,,,,,,,,,,,,,741.128954407759,None,742.2281575957313,None,743.1615362009034,None,1.6042328042328042,1.2663691183552146,743.1615362009034,None,,,,,,,,,,,,,,,,,173,001,2024_Mar_01_1141,SpeechDraft1Carolyn_lessNoise_PlusLocalization,2021.2.3,59.8785951194048,
,,,,,,,,nearLeft,-6.5,1,ch1Sound_localizationTask.wav,-6.5,"(857, 878)","(-103,-202)",-95,-338,,,,,,,,,0,5,5,2,,,,,,,,,,,,,,,,,,,,,,,,,,,,,,,,,,,,,,,,,,,,744.4289051936939,None,745.5281043350697,None,746.4616888016462,None,1.4576719576719577,0.5164678459987044,746.4616888016462,None,,,,,,,,,,,,,,,,,173,001,2024_Mar_01_1141,SpeechDraft1Carolyn_lessNoise_PlusLocalization,2021.2.3,59.8785951194048,
,,,,,,,,farLeft,-19.1,5,ch1Sound_localizationTask.wav,-19.1,"(667, 878)","(-293,-202)",-285,-338,,,,,,,,,0,6,6,0,,,,,,,,,,,,,,,,,,,,,,,,,,,,,,,,,,,,,,,,,,,,746.9784383233637,None,748.0781895527616,None,749.0114607429132,None,1.4068783068783068,0.6152846198529005,749.0114607429132,None,,,,,,,,,,,,,,,,,173,001,2024_Mar_01_1141,SpeechDraft1Carolyn_lessNoise_PlusLocalization,2021.2.3,59.8785951194048,
,,,,,,,,nearLeft,-6.5,1,ch1Sound_localizationTask.wav,-6.5,"(857, 878)","(-103,-202)",-95,-338,,,,,,,,,1,0,7,2,,,,,,,,,,,,,,,,,,,,,,,,,,,,,,,,,,,,,,,,,,,,749.6282978123054,None,750.7281248681247,None,751.661868782714,None,1.4402116402116403,0.41551356576383114,751.661868782714,None,,,,,,,,,,,,,,,,,173,001,2024_Mar_01_1141,SpeechDraft1Carolyn_lessNoise_PlusLocalization,2021.2.3,59.8785951194048,
,,,,,,,,center,0.0,6,ch1Sound_localizationTask.wav,0.0,"(952, 878)","(-8,-202)",0,-338,,,,,,,,,1,1,8,3,,,,,,,,,,,,,,,,,,,,,,,,,,,,,,,,,,,,,,,,,,,,752.0784154841676,None,753.178182868287,None,754.1114875888452,None,1.4857142857142858,0.4334798464551568,754.1114875888452,None,,,,,,,,,,,,,,,,,173,001,2024_Mar_01_1141,SpeechDraft1Carolyn_lessNoise_PlusLocalization,2021.2.3,59.8785951194048,
,,,,,,,,nearRight,6.5,0,ch1Sound_localizationTask.wav,6.5,"(1047, 878)","(87, -202)",95,-338,,,,,,,,,1,2,9,4,,,,,,,,,,,,,,,,,,,,,,,,,,,,,,,,,,,,,,,,,,,,754.5619366029277,None,755.6615115860477,None,756.5949776982889,None,1.5296296296296297,0.5340491347014904,756.5949776982889,None,,,,,,,,,,,,,,,,,173,001,2024_Mar_01_1141,SpeechDraft1Carolyn_lessNoise_PlusLocalization,2021.2.3,59.8785951194048,
,,,,,,,,center,0.0,6,ch1Sound_localizationTask.wav,0.0,"(952, 878)","(-8,-202)",0,-338,,,,,,,,,1,3,10,3,,,,,,,,,,,,,,,,,,,,,,,,,,,,,,,,,,,,,,,,,,,,757.1289985626936,None,758.228184260428,None,759.1615950306877,None,1.5116402116402117,0.5494993422180414,759.1615950306877,None,,,,,,,,,,,,,,,,,173,001,2024_Mar_01_1141,SpeechDraft1Carolyn_lessNoise_PlusLocalization,2021.2.3,59.8785951194048,
,,,,,,,,nearRight,6.5,0,ch1Sound_localizationTask.wav,6.5,"(1047, 878)","(87, -202)",95,-338,,,,,,,,,1,4,11,4,,,,,,,,,,,,,,,,,,,,,,,,,,,,,,,,,,,,,,,,,,,,759.7117060981691,None,760.8115176279098,None,761.7449068827555,None,1.5423280423280423,0.49864178989082575,761.7449068827555,None,,,,,,,,,,,,,,,,,173,001,2024_Mar_01_1141,SpeechDraft1Carolyn_lessNoise_PlusLocalization,2021.2.3,59.8785951194048,
,,,,,,,,farRight,19.1,4,ch1Sound_localizationTask.wav,19.1,"(1237, 878)","(277,-202)",285,-338,,,,,,,,,1,5,12,6,,,,,,,,,,,,,,,,,,,,,,,,,,,,,,,,,,,,,,,,,,,,762.2451000018045,None,763.3447698634118,None,764.2781418403611,None,1.6296296296296298,0.5996728502213955,764.2781418403611,None,,,,,,,,,,,,,,,,,173,001,2024_Mar_01_1141,SpeechDraft1Carolyn_lessNoise_PlusLocalization,2021.2.3,59.8785951194048,
,,,,,,,,midRight,13.0,3,ch1Sound_localizationTask.wav,13.0,"(1142, 878)","(182, -202)",190,-338,,,,,,,,,1,6,13,5,,,,,,,,,,,,,,,,,,,,,,,,,,,,,,,,,,,,,,,,,,,,764.8785181259736,None,765.9781087217852,None,766.9114971244708,None,1.6105820105820106,0.6324933040887117,766.9114971244708,None,,,,,,,,,,,,,,,,,173,001,2024_Mar_01_1141,SpeechDraft1Carolyn_lessNoise_PlusLocalization,2021.2.3,59.8785951194048,
,,,,,,,,midLeft,-13.0,2,ch1Sound_localizationTask.wav,-13.0,"(762, 878)","(-198,-202)",-190,-338,,,,,,,,,2,0,14,1,,,,,,,,,,,,,,,,,,,,,,,,,,,,,,,,,,,,,,,,,,,,767.5450803823769,None,768.6447777757421,None,769.5782717084512,None,1.4222222222222223,0.6163717163726687,769.5782717084512,None,,,,,,,,,,,,,,,,,173,001,2024_Mar_01_1141,SpeechDraft1Carolyn_lessNoise_PlusLocalization,2021.2.3,59.8785951194048,
,,,,,,,,center,0.0,6,ch1Sound_localizationTask.wav,0.0,"(952, 878)","(-8,-202)",0,-338,,,,,,,,,2,1,15,3,,,,,,,,,,,,,,,,,,,,,,,,,,,,,,,,,,,,,,,,,,,,770.1951231872663,None,771.2949101841077,None,772.2281874669716,None,1.4994708994708994,0.5987198418006301,772.2281874669716,None,,,,,,,,,,,,,,,,,173,001,2024_Mar_01_1141,SpeechDraft1Carolyn_lessNoise_PlusLocalization,2021.2.3,59.8785951194048,
,,,,,,,,nearRight,6.5,0,ch1Sound_localizationTask.wav,6.5,"(1047, 878)","(87, -202)",95,-338,,,,,,,,,2,2,16,4,,,,,,,,,,,,,,,,,,,,,,,,,,,,,,,,,,,,,,,,,,,,772.8285099249333,None,773.9282011454925,None,774.8614912973717,None,1.555026455026455,0.44941890332847834,774.8614912973717,None,,,,,,,,,,,,,,,,,173,001,2024_Mar_01_1141,SpeechDraft1Carolyn_lessNoise_PlusLocalization,2021.2.3,59.8785951194048,
,,,,,,,,farRight,19.1,4,ch1Sound_localizationTask.wav,19.1,"(1237, 878)","(277,-202)",285,-338,,,,,,,,,2,3,17,6,,,,,,,,,,,,,,,,,,,,,,,,,,,,,,,,,,,,,,,,,,,,775.3119115438312,None,776.4114228859544,None,777.3449460864067,None,1.5973544973544973,0.6660218685865402,777.3449460864067,None,,,,,,,,,,,,,,,,,173,001,2024_Mar_01_1141,SpeechDraft1Carolyn_lessNoise_PlusLocalization,2021.2.3,59.8785951194048,
,,,,,,,,nearLeft,-6.5,1,ch1Sound_localizationTask.wav,-6.5,"(857, 878)","(-103,-202)",-95,-338,,,,,,,,,2,4,18,2,,,,,,,,,,,,,,,,,,,,,,,,,,,,,,,,,,,,,,,,,,,,778.0117495469749,None,779.1114899767563,None,780.0450606392696,None,1.4375661375661375,0.7500409195199609,780.0450606392696,None,,,,,,,,,,,,,,,,,173,001,2024_Mar_01_1141,SpeechDraft1Carolyn_lessNoise_PlusLocalization,2021.2.3,59.8785951194048,
,,,,,,,,nearLeft,-6.5,1,ch1Sound_localizationTask.wav,-6.5,"(857, 878)","(-103,-202)",-95,-338,,,,,,,,,2,5,19,2,,,,,,,,,,,,,,,,,,,,,,,,,,,,,,,,,,,,,,,,,,,,780.7967343851924,None,781.9115217374638,None,782.8282398004085,None,1.4285714285714286,0.7331165922805667,782.8282398004085,None,,,,,,,,,,,,,,,,,173,001,2024_Mar_01_1141,SpeechDraft1Carolyn_lessNoise_PlusLocalization,2021.2.3,59.8785951194048,
,,,,,,,,nearLeft,-6.5,1,ch1Sound_localizationTask.wav,-6.5,"(857, 878)","(-103,-202)",-95,-338,,,,,,,,,2,6,20,2,,,,,,,,,,,,,,,,,,,,,,,,,,,,,,,,,,,,,,,,,,,,783.561866061762,None,784.6614701552317,None,785.5950379902497,None,1.4597883597883599,0.5167802916839719,785.5950379902497,None,,,,,,,,,,,,,,,,,173,001,2024_Mar_01_1141,SpeechDraft1Carolyn_lessNoise_PlusLocalization,2021.2.3,59.8785951194048,
,,,,,,,,farLeft,-19.1,5,ch1Sound_localizationTask.wav,-19.1,"(667, 878)","(-293,-202)",-285,-338,,,,,,,,,3,0,21,0,,,,,,,,,,,,,,,,,,,,,,,,,,,,,,,,,,,,,,,,,,,,786.1126421848312,None,787.2114884983748,None,788.1449358435348,None,1.3544973544973544,0.5659173354506493,788.1449358435348,None,,,,,,,,,,,,,,,,,173,001,2024_Mar_01_1141,SpeechDraft1Carolyn_lessNoise_PlusLocalization,2021.2.3,59.8785951194048,
,,,,,,,,farRight,19.1,4,ch1Sound_localizationTask.wav,19.1,"(1237, 878)","(277,-202)",285,-338,,,,,,,,,3,1,22,6,,,,,,,,,,,,,,,,,,,,,,,,,,,,,,,,,,,,,,,,,,,,788.7117583882064,None,789.8114370973781,None,790.7449407121167,None,1.5767195767195767,0.6170238507911563,790.7449407121167,None,,,,,,,,,,,,,,,,,173,001,2024_Mar_01_1141,SpeechDraft1Carolyn_lessNoise_PlusLocalization,2021.2.3,59.8785951194048,
,,,,,,,,farLeft,-19.1,5,ch1Sound_localizationTask.wav,-19.1,"(667, 878)","(-293,-202)",-285,-338,,,,,,,,,3,2,23,0,,,,,,,,,,,,,,,,,,,,,,,,,,,,,,,,,,,,,,,,,,,,791.3785311030224,None,792.4782078182325,None,793.4116553394124,None,1.2894179894179894,0.7993325321003795,793.4116553394124,None,,,,,,,,,,,,,,,,,173,001,2024_Mar_01_1141,SpeechDraft1Carolyn_lessNoise_PlusLocalization,2021.2.3,59.8785951194048,
,,,,,,,,nearRight,6.5,0,ch1Sound_localizationTask.wav,6.5,"(1047, 878)","(87, -202)",95,-338,,,,,,,,,3,3,24,4,,,,,,,,,,,,,,,,,,,,,,,,,,,,,,,,,,,,,,,,,,,,794.2120029712096,None,795.3115897327662,None,796.2448700275272,None,1.5555555555555556,0.6487090224400163,796.2448700275272,None,,,,,,,,,,,,,,,,,173,001,2024_Mar_01_1141,SpeechDraft1Carolyn_lessNoise_PlusLocalization,2021.2.3,59.8785951194048,
,,,,,,,,midRight,13.0,3,ch1Sound_localizationTask.wav,13.0,"(1142, 878)","(182, -202)",190,-338,,,,,,,,,3,4,25,5,,,,,,,,,,,,,,,,,,,,,,,,,,,,,,,,,,,,,,,,,,,,796.8952419031411,None,797.9947972800583,None,798.9281779062003,None,1.546031746031746,0.4345453614369035,798.9281779062003,None,,,,,,,,,,,,,,,,,173,001,2024_Mar_01_1141,SpeechDraft1Carolyn_lessNoise_PlusLocalization,2021.2.3,59.8785951194048,
,,,,,,,,midRight,13.0,3,ch1Sound_localizationTask.wav,13.0,"(1142, 878)","(182, -202)",190,-338,,,,,,,,,3,5,26,5,,,,,,,,,,,,,,,,,,,,,,,,,,,,,,,,,,,,,,,,,,,,799.3785980669782,None,800.4782033003867,None,801.4117512879893,None,1.5920634920634922,0.41636676248162985,801.4117512879893,None,,,,,,,,,,,,,,,,,173,001,2024_Mar_01_1141,SpeechDraft1Carolyn_lessNoise_PlusLocalization,2021.2.3,59.8785951194048,
,,,,,,,,midRight,13.0,3,ch1Sound_localizationTask.wav,13.0,"(1142, 878)","(182, -202)",190,-338,,,,,,,,,3,6,27,5,,,,,,,,,,,,,,,,,,,,,,,,,,,,,,,,,,,,,,,,,,,,801.8285851478577,None,802.928198248148,None,803.8616095259786,None,1.633862433862434,0.46594776399433613,803.8616095259786,None,,,,,,,,,,,,,,,,,173,001,2024_Mar_01_1141,SpeechDraft1Carolyn_lessNoise_PlusLocalization,2021.2.3,59.8785951194048,
,,,,,,,,nearRight,6.5,0,ch1Sound_localizationTask.wav,6.5,"(1047, 878)","(87, -202)",95,-338,,,,,,,,,4,0,28,4,,,,,,,,,,,,,,,,,,,,,,,,,,,,,,,,,,,,,,,,,,,,804.3284874930978,None,805.4282671967521,None,806.3616769043729,None,1.5656084656084657,0.39959049038589,806.3616769043729,None,,,,,,,,,,,,,,,,,173,001,2024_Mar_01_1141,SpeechDraft1Carolyn_lessNoise_PlusLocalization,2021.2.3,59.8785951194048,
,,,,,,,,farRight,19.1,4,ch1Sound_localizationTask.wav,19.1,"(1237, 878)","(277,-202)",285,-338,,,,,,,,,4,1,29,6,,,,,,,,,,,,,,,,,,,,,,,,,,,,,,,,,,,,,,,,,,,,806.7617926085368,None,807.861426146701,None,808.7948536928743,None,1.6566137566137566,0.5491346018388867,808.7948536928743,None,,,,,,,,,,,,,,,,,173,001,2024_Mar_01_1141,SpeechDraft1Carolyn_lessNoise_PlusLocalization,2021.2.3,59.8785951194048,
,,,,,,,,nearLeft,-6.5,1,ch1Sound_localizationTask.wav,-6.5,"(857, 878)","(-103,-202)",-95,-338,,,,,,,,,4,2,30,2,,,,,,,,,,,,,,,,,,,,,,,,,,,,,,,,,,,,,,,,,,,,809.3451454322785,None,810.4448958840221,None,811.3782818447798,None,1.471957671957672,0.5810466315597296,811.3782818447798,None,,,,,,,,,,,,,,,,,173,001,2024_Mar_01_1141,SpeechDraft1Carolyn_lessNoise_PlusLocalization,2021.2.3,59.8785951194048,
,,,,,,,,nearRight,6.5,0,ch1Sound_localizationTask.wav,6.5,"(1047, 878)","(87, -202)",95,-338,,,,,,,,,4,3,31,4,,,,,,,,,,,,,,,,,,,,,,,,,,,,,,,,,,,,,,,,,,,,811.9618745297194,None,813.0615826081485,None,813.9949315432459,None,1.5582010582010581,0.43304350413382053,813.9949315432459,None,,,,,,,,,,,,,,,,,173,001,2024_Mar_01_1141,SpeechDraft1Carolyn_lessNoise_PlusLocalization,2021.2.3,59.8785951194048,
,,,,,,,,midRight,13.0,3,ch1Sound_localizationTask.wav,13.0,"(1142, 878)","(182, -202)",190,-338,,,,,,,,,4,4,32,5,,,,,,,,,,,,,,,,,,,,,,,,,,,,,,,,,,,,,,,,,,,,814.428469447419,None,815.5282033421099,None,816.4615363683552,None,1.5820105820105819,0.4322088435292244,816.4615363683552,None,,,,,,,,,,,,,,,,,173,001,2024_Mar_01_1141,SpeechDraft1Carolyn_lessNoise_PlusLocalization,2021.2.3,59.8785951194048,
,,,,,,,,center,0.0,6,ch1Sound_localizationTask.wav,0.0,"(952, 878)","(-8,-202)",0,-338,,,,,,,,,4,5,33,3,,,,,,,,,,,,,,,,,,,,,,,,,,,,,,,,,,,,,,,,,,,,816.8951608240604,None,817.9948772797361,None,818.9282489502802,None,1.4481481481481482,0.44979281164705753,818.9282489502802,None,,,,,,,,,,,,,,,,,173,001,2024_Mar_01_1141,SpeechDraft1Carolyn_lessNoise_PlusLocalization,2021.2.3,59.8785951194048,
,,,,,,,,nearRight,6.5,0,ch1Sound_localizationTask.wav,6.5,"(1047, 878)","(87, -202)",95,-338,,,,,,,,,4,6,34,4,,,,,,,,,,,,,,,,,,,,,,,,,,,,,,,,,,,,,,,,,,,,819.3785194968805,None,820.4781697830185,None,821.4117109104991,None,1.5386243386243388,0.6830719020217657,821.4117109104991,None,,,,,,,,,,,,,,,,,173,001,2024_Mar_01_1141,SpeechDraft1Carolyn_lessNoise_PlusLocalization,2021.2.3,59.8785951194048,
,,,,,,,,farLeft,-19.1,5,ch1Sound_localizationTask.wav,-19.1,"(667, 878)","(-293,-202)",-285,-338,,,,,,,,,5,0,35,0,,,,,,,,,,,,,,,,,,,,,,,,,,,,,,,,,,,,,,,,,,,,822.09618274495,None,823.1948852520436,None,824.1281951386482,None,1.2544973544973546,1.000816504471004,824.1281951386482,None,,,,,,,,,,,,,,,,,173,001,2024_Mar_01_1141,SpeechDraft1Carolyn_lessNoise_PlusLocalization,2021.2.3,59.8785951194048,
,,,,,,,,farLeft,-19.1,5,ch1Sound_localizationTask.wav,-19.1,"(667, 878)","(-293,-202)",-285,-338,,,,,,,,,5,1,36,0,,,,,,,,,,,,,,,,,,,,,,,,,,,,,,,,,,,,,,,,,,,,825.1453344747424,None,826.2449994906783,None,827.1782547170296,None,1.237037037037037,0.8660225495696068,827.1782547170296,None,,,,,,,,,,,,,,,,,173,001,2024_Mar_01_1141,SpeechDraft1Carolyn_lessNoise_PlusLocalization,2021.2.3,59.8785951194048,
,,,,,,,,midLeft,-13.0,2,ch1Sound_localizationTask.wav,-13.0,"(762, 878)","(-198,-202)",-190,-338,,,,,,,,,5,2,37,1,,,,,,,,,,,,,,,,,,,,,,,,,,,,,,,,,,,,,,,,,,,,828.0459318067878,None,829.14510095492,None,830.0782032860443,None,1.3941798941798942,0.7499704929068685,830.0782032860443,None,,,,,,,,,,,,,,,,,173,001,2024_Mar_01_1141,SpeechDraft1Carolyn_lessNoise_PlusLocalization,2021.2.3,59.8785951194048,
,,,,,,,,farRight,19.1,4,ch1Sound_localizationTask.wav,19.1,"(1237, 878)","(277,-202)",285,-338,,,,,,,,,5,3,38,6,,,,,,,,,,,,,,,,,,,,,,,,,,,,,,,,,,,,,,,,,,,,830.8452176274732,None,831.9448791388422,None,832.8782945899293,None,1.5846560846560847,0.6832058047875762,832.8782945899293,None,,,,,,,,,,,,,,,,,173,001,2024_Mar_01_1141,SpeechDraft1Carolyn_lessNoise_PlusLocalization,2021.2.3,59.8785951194048,
,,,,,,,,center,0.0,6,ch1Sound_localizationTask.wav,0.0,"(952, 878)","(-8,-202)",0,-338,,,,,,,,,5,4,39,3,,,,,,,,,,,,,,,,,,,,,,,,,,,,,,,,,,,,,,,,,,,,833.5623170854524,None,834.6616090908647,None,835.5951201347634,None,1.4079365079365078,0.6485552862286568,835.5951201347634,None,,,,,,,,,,,,,,,,,173,001,2024_Mar_01_1141,SpeechDraft1Carolyn_lessNoise_PlusLocalization,2021.2.3,59.8785951194048,
,,,,,,,,farLeft,-19.1,5,ch1Sound_localizationTask.wav,-19.1,"(667, 878)","(-293,-202)",-285,-338,,,,,,,,,5,5,40,0,,,,,,,,,,,,,,,,,,,,,,,,,,,,,,,,,,,,,,,,,,,,836.2452996568754,None,837.3449293179438,None,838.2781912414357,None,1.2497354497354498,0.5998718859627843,838.2781912414357,None,,,,,,,,,,,,,,,,,173,001,2024_Mar_01_1141,SpeechDraft1Carolyn_lessNoise_PlusLocalization,2021.2.3,59.8785951194048,
,,,,,,,,center,0.0,6,ch1Sound_localizationTask.wav,0.0,"(952, 878)","(-8,-202)",0,-338,,,,,,,,,5,6,41,3,,,,,,,,,,,,,,,,,,,,,,,,,,,,,,,,,,,,,,,,,,,,838.8788361223415,None,839.978420060128,None,840.911513498053,None,1.5634920634920635,1.032477525062859,840.911513498053,None,,,,,,,,,,,,,,,,,173,001,2024_Mar_01_1141,SpeechDraft1Carolyn_lessNoise_PlusLocalization,2021.2.3,59.8785951194048,
,,,,,,,,farRight,19.1,4,ch1Sound_localizationTask.wav,19.1,"(1237, 878)","(277,-202)",285,-338,,,,,,,,,6,0,42,6,,,,,,,,,,,,,,,,,,,,,,,,,,,,,,,,,,,,,,,,,,,,841.9451895812526,None,843.0449072951451,None,843.9784966977313,None,1.6444444444444444,0.8319705985486507,843.9784966977313,None,,,,,,,,,,,,,,,,,173,001,2024_Mar_01_1141,SpeechDraft1Carolyn_lessNoise_PlusLocalization,2021.2.3,59.8785951194048,
,,,,,,,,midLeft,-13.0,2,ch1Sound_localizationTask.wav,-13.0,"(762, 878)","(-198,-202)",-190,-338,,,,,,,,,6,1,43,1,,,,,,,,,,,,,,,,,,,,,,,,,,,,,,,,,,,,,,,,,,,,844.8119575474411,None,845.9115956258029,None,846.8450756948441,None,1.3343915343915345,0.8996565984562039,846.8450756948441,None,,,,,,,,,,,,,,,,,173,001,2024_Mar_01_1141,SpeechDraft1Carolyn_lessNoise_PlusLocalization,2021.2.3,59.8785951194048,
,,,,,,,,midLeft,-13.0,2,ch1Sound_localizationTask.wav,-13.0,"(762, 878)","(-198,-202)",-190,-338,,,,,,,,,6,2,44,1,,,,,,,,,,,,,,,,,,,,,,,,,,,,,,,,,,,,,,,,,,,,847.745184905827,None,848.8449409166351,None,849.7783764982596,None,1.2507936507936508,1.4162354245781898,849.7783764982596,None,,,,,,,,,,,,,,,,,173,001,2024_Mar_01_1141,SpeechDraft1Carolyn_lessNoise_PlusLocalization,2021.2.3,59.8785951194048,
,,,,,,,,midRight,13.0,3,ch1Sound_localizationTask.wav,13.0,"(1142, 878)","(182, -202)",190,-338,,,,,,,,,6,3,45,5,,,,,,,,,,,,,,,,,,,,,,,,,,,,,,,,,,,,,,,,,,,,851.1953538563102,None,852.2948668152094,None,853.2283318703994,None,1.5820105820105819,1.0986508829519153,853.2283318703994,None,,,,,,,,,,,,,,,,,173,001,2024_Mar_01_1141,SpeechDraft1Carolyn_lessNoise_PlusLocalization,2021.2.3,59.8785951194048,
,,,,,,,,midLeft,-13.0,2,ch1Sound_localizationTask.wav,-13.0,"(762, 878)","(-198,-202)",-190,-338,,,,,,,,,6,4,46,1,,,,,,,,,,,,,,,,,,,,,,,,,,,,,,,,,,,,,,,,,,,,854.3285761428997,None,855.4283070750535,None,856.3617719039321,None,1.1925925925925926,0.6656959028914571,856.3617719039321,None,,,,,,,,,,,,,,,,,173,001,2024_Mar_01_1141,SpeechDraft1Carolyn_lessNoise_PlusLocalization,2021.2.3,59.8785951194048,
,,,,,,,,midLeft,-13.0,2,ch1Sound_localizationTask.wav,-13.0,"(762, 878)","(-198,-202)",-190,-338,,,,,,,,,6,5,47,1,,,,,,,,,,,,,,,,,,,,,,,,,,,,,,,,,,,,,,,,,,,,857.0286658881232,None,858.1282942667603,None,859.0616572303697,None,1.3275132275132275,0.9156009629368782,859.0616572303697,None,,,,,,,,,,,,,,,,,173,001,2024_Mar_01_1141,SpeechDraft1Carolyn_lessNoise_PlusLocalization,2021.2.3,59.8785951194048,
,,,,,,,,midRight,13.0,3,ch1Sound_localizationTask.wav,13.0,"(1142, 878)","(182, -202)",190,-338,,,,,,,,,6,6,48,5,,,,,,,,,,,,,,,,,,,,,,,,,,,,,,,,,,,,,,,,,,,,859.9785740179941,None,861.0783512853086,None,862.0117034586146,None,1.6,0.6991273611783981,862.0117034586146,None,,,,,,,,,,,,,,,,,173,001,2024_Mar_01_1141,SpeechDraft1Carolyn_lessNoise_PlusLocalization,2021.2.3,59.8785951194048,
,,,,,,,,midLeft,-13.0,2,ch1Sound_localizationTask.wav,-13.0,"(762, 878)","(-198,-202)",-190,-338,,,,,,,,,7,0,49,1,,,,,,,,,,,,,,,,,,,,,,,,,,,,,,,,,,,,,,,,,,,,862.7118023214862,None,863.8116086954251,None,864.744948589243,None,1.3,0.9491895269602537,864.744948589243,None,,,,,,,,,,,,,,,,,173,001,2024_Mar_01_1141,SpeechDraft1Carolyn_lessNoise_PlusLocalization,2021.2.3,59.8785951194048,
,,,,,,,,center,0.0,6,ch1Sound_localizationTask.wav,0.0,"(952, 878)","(-8,-202)",0,-338,,,,,,,,,7,1,50,3,,,,,,,,,,,,,,,,,,,,,,,,,,,,,,,,,,,,,,,,,,,,865.6953109111637,None,866.7950945934281,None,867.7284672036767,None,1.5153439153439154,0.79903503973037,867.7284672036767,None,,,,,,,,,,,,,,,,,173,001,2024_Mar_01_1141,SpeechDraft1Carolyn_lessNoise_PlusLocalization,2021.2.3,59.8785951194048,
,,,,,,,,midRight,13.0,3,ch1Sound_localizationTask.wav,13.0,"(1142, 878)","(182, -202)",190,-338,,,,,,,,,7,2,51,5,,,,,,,,,,,,,,,,,,,,,,,,,,,,,,,,,,,,,,,,,,,,868.5285531748086,None,869.6283793831244,None,870.5616783220321,None,1.5931216931216932,0.4989508967846632,870.5616783220321,None,,,,,,,,,,,,,,,,,173,001,2024_Mar_01_1141,SpeechDraft1Carolyn_lessNoise_PlusLocalization,2021.2.3,59.8785951194048,
,,,,,,,,farRight,19.1,4,ch1Sound_localizationTask.wav,19.1,"(1237, 878)","(277,-202)",285,-338,,,,,,,,,7,3,52,6,,,,,,,,,,,,,,,,,,,,,,,,,,,,,,,,,,,,,,,,,,,,871.0619270112365,None,872.1616684738547,None,873.0949846440926,None,1.6523809523809523,0.48295091185718775,873.0949846440926,None,,,,,,,,,,,,,,,,,173,001,2024_Mar_01_1141,SpeechDraft1Carolyn_lessNoise_PlusLocalization,2021.2.3,59.8785951194048,
,,,,,,,,farRight,19.1,4,ch1Sound_localizationTask.wav,19.1,"(1237, 878)","(277,-202)",285,-338,,,,,,,,,7,4,53,6,,,,,,,,,,,,,,,,,,,,,,,,,,,,,,,,,,,,,,,,,,,,873.5786145124584,None,874.6782955043018,None,875.6118560200557,None,1.6613756613756614,0.5997873730957508,875.6118560200557,None,,,,,,,,,,,,,,,,,173,001,2024_Mar_01_1141,SpeechDraft1Carolyn_lessNoise_PlusLocalization,2021.2.3,59.8785951194048,
,,,,,,,,farLeft,-19.1,5,ch1Sound_localizationTask.wav,-19.1,"(667, 878)","(-293,-202)",-285,-338,,,,,,,,,7,5,54,0,,,,,,,,,,,,,,,,,,,,,,,,,,,,,,,,,,,,,,,,,,,,876.2118633361533,None,877.3116912487894,None,878.2450450286269,None,1.3317460317460317,0.7651236681267619,878.2450450286269,None,,,,,,,,,,,,,,,,,173,001,2024_Mar_01_1141,SpeechDraft1Carolyn_lessNoise_PlusLocalization,2021.2.3,59.8785951194048,
,,,,,,,,farLeft,-19.1,5,ch1Sound_localizationTask.wav,-19.1,"(667, 878)","(-293,-202)",-285,-338,,,,,,,,,7,6,55,0,,,,,,,,,,,,,,,,,,,,,,,,,,,,,,,,,,,,,,,,,,,,879.0119356345385,None,880.1118777059019,None,881.0450516510755,None,1.402116402116402,0.6814002217724919,881.0450516510755,None,,,,,,,,,,,,,,,,,173,001,2024_Mar_01_1141,SpeechDraft1Carolyn_lessNoise_PlusLocalization,2021.2.3,59.8785951194048,
,,,,,,,,,,,,,,,,,,,,,,,,,,,,,,,,,,,,,,,,,,,,,,,,,,,,,,,,,,,,,,,,,,,,,,,,,,,,,,,,,,space,64.01207467447966,881.8121479218826,None,,,,,,,,,,,,,173,001,2024_Mar_01_1141,SpeechDraft1Carolyn_lessNoise_PlusLocalization,2021.2.3,59.8785951194048,
,,,,,,,,farLeft,-19.1,5,ch1Sound_localizationTask.wav,-19.1,"(667, 878)","(-293,-202)",-285,-338,,,,,,,,,,,,,0,0,0,0,,,,,,,,,,,,,,,,,,,,,,,,,,,,,,,,,,,,,,,,945.8617500662804,None,,,948.8950801482424,None,1.3142857142857143,1.285836867056787,948.8950801482424,None,,,,,881.8121479218826,None,946.8623015740886,None,947.0454774750397,947.0620174594223,,,,,,,173,001,2024_Mar_01_1141,SpeechDraft1Carolyn_lessNoise_PlusLocalization,2021.2.3,59.8785951194048,
,,,,,,,,midRight,13.0,3,ch1Sound_localizationTask.wav,13.0,"(1142, 878)","(182, -202)",190,-338,,,,,,,,,,,,,0,1,1,5,,,,,,,,,,,,,,,,,,,,,,,,,,,,,,,,,,,,,,,,950.1790224676952,None,,,953.1951474742964,None,1.6132275132275131,0.7159891948103905,953.1951474742964,None,,,,,,,951.1788455033675,None,951.3620541794226,951.3788131149486,,,,,,,173,001,2024_Mar_01_1141,SpeechDraft1Carolyn_lessNoise_PlusLocalization,2021.2.3,59.8785951194048,
,,,,,,,,midLeft,-13.0,2,ch1Sound_localizationTask.wav,-13.0,"(762, 878)","(-198,-202)",-190,-338,,,,,,,,,,,,,0,2,2,1,,,,,,,,,,,,,,,,,,,,,,,,,,,,,,,,,,,,,,,,953.928700176999,None,,,956.9450847022235,None,1.374074074074074,1.1161464788019657,956.9450847022235,None,,,,,,,954.928828978911,None,955.112078635022,955.1287579433993,,,,,,,173,001,2024_Mar_01_1141,SpeechDraft1Carolyn_lessNoise_PlusLocalization,2021.2.3,59.8785951194048,
,,,,,,,,farLeft,-19.1,5,ch1Sound_localizationTask.wav,-19.1,"(667, 878)","(-293,-202)",-285,-338,,,,,,,,,,,,,0,3,3,0,,,,,,,,,,,,,,,,,,,,,,,,,,,,,,,,,,,,,,,,958.0621924167499,None,,,961.0783309629187,None,1.3375661375661376,0.7813500994816422,961.0783309629187,None,,,,,,,959.0622270619497,None,959.2454259172082,959.2621089704335,,,,,,,173,001,2024_Mar_01_1141,SpeechDraft1Carolyn_lessNoise_PlusLocalization,2021.2.3,59.8785951194048,
,,,,,,,,midRight,13.0,3,ch1Sound_localizationTask.wav,13.0,"(1142, 878)","(182, -202)",190,-338,,,,,,,,,,,,,0,4,4,5,,,,,,,,,,,,,,,,,,,,,,,,,,,,,,,,,,,,,,,,961.8621836053208,None,,,964.878425183706,None,1.6423280423280424,0.8660365948453546,964.878425183706,None,,,,,,,962.8620024817064,None,963.045461232774,963.0620641587302,,,,,,,173,001,2024_Mar_01_1141,SpeechDraft1Carolyn_lessNoise_PlusLocalization,2021.2.3,59.8785951194048,
,,,,,,,,nearLeft,-6.5,1,ch1Sound_localizationTask.wav,-6.5,"(857, 878)","(-103,-202)",-95,-338,,,,,,,,,,,,,0,5,5,2,,,,,,,,,,,,,,,,,,,,,,,,,,,,,,,,,,,,,,,,965.7456959635019,None,,,968.761781802401,None,1.4507936507936507,1.0500855082646012,968.761781802401,None,,,,,,,966.7455001976341,None,966.9287055470049,966.9453855464235,,,,,,,173,001,2024_Mar_01_1141,SpeechDraft1Carolyn_lessNoise_PlusLocalization,2021.2.3,59.8785951194048,
,,,,,,,,midLeft,-13.0,2,ch1Sound_localizationTask.wav,-13.0,"(762, 878)","(-198,-202)",-190,-338,,,,,,,,,,,,,0,6,6,1,,,,,,,,,,,,,,,,,,,,,,,,,,,,,,,,,,,,,,,,969.828781766817,None,,,972.8451336808503,None,1.3867724867724869,0.9327046340331435,972.8451336808503,None,,,,,,,970.8287865780294,None,971.0120475040749,971.0287791788578,,,,,,,173,001,2024_Mar_01_1141,SpeechDraft1Carolyn_lessNoise_PlusLocalization,2021.2.3,59.8785951194048,
,,,,,,,,nearRight,6.5,0,ch1Sound_localizationTask.wav,6.5,"(1047, 878)","(87, -202)",95,-338,,,,,,,,,,,,,1,0,7,4,,,,,,,,,,,,,,,,,,,,,,,,,,,,,,,,,,,,,,,,973.7797054294497,None,,,976.7952234288678,None,1.560846560846561,1.0154862143099308,976.7952234288678,None,,,,,,,974.778762517497,None,974.9621683387086,974.9787164907902,,,,,,,173,001,2024_Mar_01_1141,SpeechDraft1Carolyn_lessNoise_PlusLocalization,2021.2.3,59.8785951194048,
,,,,,,,,farRight,19.1,4,ch1Sound_localizationTask.wav,19.1,"(1237, 878)","(277,-202)",285,-338,,,,,,,,,,,,,1,1,8,6,,,,,,,,,,,,,,,,,,,,,,,,,,,,,,,,,,,,,,,,977.8120109038427,None,,,980.8285668734461,None,1.7015873015873015,0.7991413725540042,980.8285668734461,None,,,,,,,978.8120619347319,None,978.9954221323133,979.0122954845428,,,,,,,173,001,2024_Mar_01_1141,SpeechDraft1Carolyn_lessNoise_PlusLocalization,2021.2.3,59.8785951194048,
,,,,,,,,center,0.0,6,ch1Sound_localizationTask.wav,0.0,"(952, 878)","(-8,-202)",0,-338,,,,,,,,,,,,,1,2,9,3,,,,,,,,,,,,,,,,,,,,,,,,,,,,,,,,,,,,,,,,981.6296217059717,None,,,984.6452398588881,None,1.502116402116402,0.9837459232658148,984.6452398588881,None,,,,,,,982.6287855710834,None,982.8120857346803,982.8288577320054,,,,,,,173,001,2024_Mar_01_1141,SpeechDraft1Carolyn_lessNoise_PlusLocalization,2021.2.3,59.8785951194048,
,,,,,,,,center,0.0,6,ch1Sound_localizationTask.wav,0.0,"(952, 878)","(-8,-202)",0,-338,,,,,,,,,,,,,1,3,10,3,,,,,,,,,,,,,,,,,,,,,,,,,,,,,,,,,,,,,,,,985.6453787265345,None,,,988.6618661200628,None,1.4952380952380953,0.6822523009032011,988.6618661200628,None,,,,,,,986.6453749854118,None,986.8287092363462,986.8454169044271,,,,,,,173,001,2024_Mar_01_1141,SpeechDraft1Carolyn_lessNoise_PlusLocalization,2021.2.3,59.8785951194048,
,,,,,,,,center,0.0,6,ch1Sound_localizationTask.wav,0.0,"(952, 878)","(-8,-202)",0,-338,,,,,,,,,,,,,1,4,11,3,,,,,,,,,,,,,,,,,,,,,,,,,,,,,,,,,,,,,,,,989.3454502206296,None,,,992.3618588382378,None,1.4957671957671956,0.46602596808224916,992.3618588382378,None,,,,,,,990.3454493349418,None,990.5288099907339,990.5455201463774,,,,,,,173,001,2024_Mar_01_1141,SpeechDraft1Carolyn_lessNoise_PlusLocalization,2021.2.3,59.8785951194048,
,,,,,,,,farLeft,-19.1,5,ch1Sound_localizationTask.wav,-19.1,"(667, 878)","(-293,-202)",-285,-338,,,,,,,,,,,,,1,5,12,0,,,,,,,,,,,,,,,,,,,,,,,,,,,,,,,,,,,,,,,,992.828801705502,None,,,995.8452234594151,None,1.3417989417989418,1.0826578438282013,995.8452234594151,None,,,,,,,993.8287908183411,None,994.0121139949188,994.0288882544264,,,,,,,173,001,2024_Mar_01_1141,SpeechDraft1Carolyn_lessNoise_PlusLocalization,2021.2.3,59.8785951194048,
,,,,,,,,nearRight,6.5,0,ch1Sound_localizationTask.wav,6.5,"(1047, 878)","(87, -202)",95,-338,,,,,,,,,,,,,1,6,13,4,,,,,,,,,,,,,,,,,,,,,,,,,,,,,,,,,,,,,,,,996.9296685559675,None,,,999.9452157970518,None,1.5756613756613755,1.0320616364479065,999.9452157970518,None,,,,,,,997.9287809552625,None,998.1120959101245,998.1287640929222,,,,,,,173,001,2024_Mar_01_1141,SpeechDraft1Carolyn_lessNoise_PlusLocalization,2021.2.3,59.8785951194048,
,,,,,,,,nearLeft,-6.5,1,ch1Sound_localizationTask.wav,-6.5,"(857, 878)","(-103,-202)",-95,-338,,,,,,,,,,,,,2,0,14,2,,,,,,,,,,,,,,,,,,,,,,,,,,,,,,,,,,,,,,,,1000.9795149564743,None,,,1003.9951766850427,None,1.4264550264550264,1.3329587243497372,1003.9951766850427,None,,,,,,,1001.9787945169955,None,1002.162180188112,1002.1788008697331,,,,,,,173,001,2024_Mar_01_1141,SpeechDraft1Carolyn_lessNoise_PlusLocalization,2021.2.3,59.8785951194048,
,,,,,,,,midLeft,-13.0,2,ch1Sound_localizationTask.wav,-13.0,"(762, 878)","(-198,-202)",-190,-338,,,,,,,,,,,,,2,1,15,1,,,,,,,,,,,,,,,,,,,,,,,,,,,,,,,,,,,,,,,,1005.3286547157913,None,,,1008.3453037310392,None,1.392063492063492,1.0660833744332194,1008.3453037310392,None,,,,,,,1006.3287575384602,None,1006.5122105078772,1006.5287652602419,,,,,,,173,001,2024_Mar_01_1141,SpeechDraft1Carolyn_lessNoise_PlusLocalization,2021.2.3,59.8785951194048,
,,,,,,,,midRight,13.0,3,ch1Sound_localizationTask.wav,13.0,"(1142, 878)","(182, -202)",190,-338,,,,,,,,,,,,,2,2,16,5,,,,,,,,,,,,,,,,,,,,,,,,,,,,,,,,,,,,,,,,1009.412322415039,None,,,1012.428573269397,None,1.6126984126984127,1.033092798665166,1012.428573269397,None,,,,,,,1010.4121359670535,None,1010.5954251280054,1010.6121263531968,,,,,,,173,001,2024_Mar_01_1141,SpeechDraft1Carolyn_lessNoise_PlusLocalization,2021.2.3,59.8785951194048,
,,,,,,,,nearLeft,-6.5,1,ch1Sound_localizationTask.wav,-6.5,"(857, 878)","(-103,-202)",-95,-338,,,,,,,,,,,,,2,3,17,2,,,,,,,,,,,,,,,,,,,,,,,,,,,,,,,,,,,,,,,,1013.4627224802971,None,,,1016.4784831507131,None,1.4417989417989419,1.049048480577767,1016.4784831507131,None,,,,,,,1014.4621187224984,None,1014.6453884057701,1014.662190258503,,,,,,,173,001,2024_Mar_01_1141,SpeechDraft1Carolyn_lessNoise_PlusLocalization,2021.2.3,59.8785951194048,
,,,,,,,,farRight,19.1,4,ch1Sound_localizationTask.wav,19.1,"(1237, 878)","(277,-202)",285,-338,,,,,,,,,,,,,2,4,18,6,,,,,,,,,,,,,,,,,,,,,,,,,,,,,,,,,,,,,,,,1017.5291727846488,None,,,1020.5452632121742,None,1.693121693121693,0.9658535113558173,1020.5452632121742,None,,,,,,,1018.5287881717086,None,1018.7120948461816,1018.7287748958915,,,,,,,173,001,2024_Mar_01_1141,SpeechDraft1Carolyn_lessNoise_PlusLocalization,2021.2.3,59.8785951194048,
,,,,,,,,farLeft,-19.1,5,ch1Sound_localizationTask.wav,-19.1,"(667, 878)","(-293,-202)",-285,-338,,,,,,,,,,,,,2,5,19,0,,,,,,,,,,,,,,,,,,,,,,,,,,,,,,,,,,,,,,,,1021.5127470204607,None,,,1024.528607033193,None,1.3169312169312168,1.1329493718221784,1024.528607033193,None,,,,,,,1022.5121469534934,None,1022.6955742826685,1022.7121053375304,,,,,,,173,001,2024_Mar_01_1141,SpeechDraft1Carolyn_lessNoise_PlusLocalization,2021.2.3,59.8785951194048,
,,,,,,,,center,0.0,6,ch1Sound_localizationTask.wav,0.0,"(952, 878)","(-8,-202)",0,-338,,,,,,,,,,,,,2,6,20,3,,,,,,,,,,,,,,,,,,,,,,,,,,,,,,,,,,,,,,,,1025.6625637626275,None,,,1028.6785987820476,None,1.5142857142857142,0.86580306943506,1028.6785987820476,None,,,,,,,1026.6622641682625,None,1026.8455083994195,1026.8621475473046,,,,,,,173,001,2024_Mar_01_1141,SpeechDraft1Carolyn_lessNoise_PlusLocalization,2021.2.3,59.8785951194048,
,,,,,,,,midRight,13.0,3,ch1Sound_localizationTask.wav,13.0,"(1142, 878)","(182, -202)",190,-338,,,,,,,,,,,,,3,0,21,5,,,,,,,,,,,,,,,,,,,,,,,,,,,,,,,,,,,,,,,,1029.545490525663,None,,,1032.5619624247774,None,1.6058201058201058,0.9661452081054449,1032.5619624247774,None,,,,,,,1030.5454780897126,None,1030.7288711788133,1030.7455246383324,,,,,,,173,001,2024_Mar_01_1141,SpeechDraft1Carolyn_lessNoise_PlusLocalization,2021.2.3,59.8785951194048,
,,,,,,,,midLeft,-13.0,2,ch1Sound_localizationTask.wav,-13.0,"(762, 878)","(-198,-202)",-190,-338,,,,,,,,,,,,,3,1,22,1,,,,,,,,,,,,,,,,,,,,,,,,,,,,,,,,,,,,,,,,1033.5287830634043,None,,,1036.5452036922798,None,1.4037037037037037,1.0821348326280713,1036.5452036922798,None,,,,,,,1034.5288838464767,None,1034.7121892292053,1034.7288510790095,,,,,,,173,001,2024_Mar_01_1141,SpeechDraft1Carolyn_lessNoise_PlusLocalization,2021.2.3,59.8785951194048,
,,,,,,,,nearRight,6.5,0,ch1Sound_localizationTask.wav,6.5,"(1047, 878)","(87, -202)",95,-338,,,,,,,,,,,,,3,2,23,4,,,,,,,,,,,,,,,,,,,,,,,,,,,,,,,,,,,,,,,,1037.6288407249376,None,,,1040.6453589117154,None,1.5597883597883597,0.6990454373881221,1040.6453589117154,None,,,,,,,1038.6288288580254,None,1038.8121736003086,1038.82897921931,,,,,,,173,001,2024_Mar_01_1141,SpeechDraft1Carolyn_lessNoise_PlusLocalization,2021.2.3,59.8785951194048,
,,,,,,,,nearLeft,-6.5,1,ch1Sound_localizationTask.wav,-6.5,"(857, 878)","(-103,-202)",-95,-338,,,,,,,,,,,,,3,3,24,2,,,,,,,,,,,,,,,,,,,,,,,,,,,,,,,,,,,,,,,,1041.3456091899425,None,,,1044.361946146004,None,1.4417989417989419,1.0671854298561811,1044.361946146004,None,,,,,,,1042.3454536441714,None,1042.52879664395,1042.5456824041903,,,,,,,173,001,2024_Mar_01_1141,SpeechDraft1Carolyn_lessNoise_PlusLocalization,2021.2.3,59.8785951194048,
,,,,,,,,farLeft,-19.1,5,ch1Sound_localizationTask.wav,-19.1,"(667, 878)","(-293,-202)",-285,-338,,,,,,,,,,,,,3,4,25,0,,,,,,,,,,,,,,,,,,,,,,,,,,,,,,,,,,,,,,,,1045.4455967359245,None,,,1048.4619825528935,None,1.3063492063492064,1.1831656070426106,1048.4619825528935,None,,,,,,,1046.4456112841144,None,1046.6287962356582,1046.645610476844,,,,,,,173,001,2024_Mar_01_1141,SpeechDraft1Carolyn_lessNoise_PlusLocalization,2021.2.3,59.8785951194048,
,,,,,,,,midRight,13.0,3,ch1Sound_localizationTask.wav,13.0,"(1142, 878)","(182, -202)",190,-338,,,,,,,,,,,,,3,5,26,5,,,,,,,,,,,,,,,,,,,,,,,,,,,,,,,,,,,,,,,,1049.6461456408724,None,,,1052.661903006956,None,1.58994708994709,0.8662440394982696,1052.661903006956,None,,,,,,,1050.6455370513722,None,1050.8288760418072,1050.845466248691,,,,,,,173,001,2024_Mar_01_1141,SpeechDraft1Carolyn_lessNoise_PlusLocalization,2021.2.3,59.8785951194048,
,,,,,,,,nearLeft,-6.5,1,ch1Sound_localizationTask.wav,-6.5,"(857, 878)","(-103,-202)",-95,-338,,,,,,,,,,,,,3,6,27,2,,,,,,,,,,,,,,,,,,,,,,,,,,,,,,,,,,,,,,,,1053.5290807383135,None,,,1056.545225883834,None,1.4502645502645501,1.0159191684797406,1056.545225883834,None,,,,,,,1054.5287887174636,None,1054.7122254753485,1054.7288051731884,,,,,,,173,001,2024_Mar_01_1141,SpeechDraft1Carolyn_lessNoise_PlusLocalization,2021.2.3,59.8785951194048,
,,,,,,,,farLeft,-19.1,5,ch1Sound_localizationTask.wav,-19.1,"(667, 878)","(-293,-202)",-285,-338,,,,,,,,,,,,,4,0,28,0,,,,,,,,,,,,,,,,,,,,,,,,,,,,,,,,,,,,,,,,1057.5624629464,None,,,1060.5786670222878,None,1.3026455026455026,0.9826571876183152,1060.5786670222878,None,,,,,,,1058.5623473869637,None,1058.74555295147,1058.762203306891,,,,,,,173,001,2024_Mar_01_1141,SpeechDraft1Carolyn_lessNoise_PlusLocalization,2021.2.3,59.8785951194048,
,,,,,,,,farRight,19.1,4,ch1Sound_localizationTask.wav,19.1,"(1237, 878)","(277,-202)",285,-338,,,,,,,,,,,,,4,1,29,6,,,,,,,,,,,,,,,,,,,,,,,,,,,,,,,,,,,,,,,,1061.5625100200996,None,,,1064.5785888610408,None,1.701058201058201,1.1326451282948256,1064.5785888610408,None,,,,,,,1062.5622231177986,None,1062.7455034004524,1062.762192578055,,,,,,,173,001,2024_Mar_01_1141,SpeechDraft1Carolyn_lessNoise_PlusLocalization,2021.2.3,59.8785951194048,
,,,,,,,,farRight,19.1,4,ch1Sound_localizationTask.wav,19.1,"(1237, 878)","(277,-202)",285,-338,,,,,,,,,,,,,4,2,30,6,,,,,,,,,,,,,,,,,,,,,,,,,,,,,,,,,,,,,,,,1065.7121619964018,None,,,1068.7286140285432,None,1.6444444444444444,1.0659336587414145,1068.7286140285432,None,,,,,,,1066.7121946224943,None,1066.8955646902323,1066.912196520716,,,,,,,173,001,2024_Mar_01_1141,SpeechDraft1Carolyn_lessNoise_PlusLocalization,2021.2.3,59.8785951194048,
,,,,,,,,nearRight,6.5,0,ch1Sound_localizationTask.wav,6.5,"(1047, 878)","(87, -202)",95,-338,,,,,,,,,,,,,4,3,31,4,,,,,,,,,,,,,,,,,,,,,,,,,,,,,,,,,,,,,,,,1069.7955081453547,None,,,1072.811995105818,None,1.544973544973545,1.3830148400738835,1072.811995105818,None,,,,,,,1070.7956028524786,None,1070.9788393909112,1070.9955613333732,,,,,,,173,001,2024_Mar_01_1141,SpeechDraft1Carolyn_lessNoise_PlusLocalization,2021.2.3,59.8785951194048,
,,,,,,,,farRight,19.1,4,ch1Sound_localizationTask.wav,19.1,"(1237, 878)","(277,-202)",285,-338,,,,,,,,,,,,,4,4,32,6,,,,,,,,,,,,,,,,,,,,,,,,,,,,,,,,,,,,,,,,1074.195891299285,None,,,1077.2120671616867,None,1.7137566137566138,0.7332779131829739,1077.2120671616867,None,,,,,,,1075.1955828061327,None,1075.3789153611287,1075.3956879628822,,,,,,,173,001,2024_Mar_01_1141,SpeechDraft1Carolyn_lessNoise_PlusLocalization,2021.2.3,59.8785951194048,
,,,,,,,,midRight,13.0,3,ch1Sound_localizationTask.wav,13.0,"(1142, 878)","(182, -202)",190,-338,,,,,,,,,,,,,4,5,33,5,,,,,,,,,,,,,,,,,,,,,,,,,,,,,,,,,,,,,,,,1077.9622201342136,None,,,1080.9785966593772,None,1.5920634920634922,0.9486365588381886,1080.9785966593772,None,,,,,,,1078.9622303163633,None,1079.1455362532288,1079.1621734974906,,,,,,,173,001,2024_Mar_01_1141,SpeechDraft1Carolyn_lessNoise_PlusLocalization,2021.2.3,59.8785951194048,
,,,,,,,,farRight,19.1,4,ch1Sound_localizationTask.wav,19.1,"(1237, 878)","(277,-202)",285,-338,,,,,,,,,,,,,4,6,34,6,,,,,,,,,,,,,,,,,,,,,,,,,,,,,,,,,,,,,,,,1081.9288783343509,None,,,1084.9453870803118,None,1.6984126984126984,0.5989145739004016,1084.9453870803118,None,,,,,,,1082.9289011070505,None,1083.1122357929125,1083.1288500130177,,,,,,,173,001,2024_Mar_01_1141,SpeechDraft1Carolyn_lessNoise_PlusLocalization,2021.2.3,59.8785951194048,
,,,,,,,,midLeft,-13.0,2,ch1Sound_localizationTask.wav,-13.0,"(762, 878)","(-198,-202)",-190,-338,,,,,,,,,,,,,5,0,35,1,,,,,,,,,,,,,,,,,,,,,,,,,,,,,,,,,,,,,,,,1085.5456712264568,None,,,1088.561984830536,None,1.4015873015873015,0.7489830227568746,1088.561984830536,None,,,,,,,1086.5455248942599,None,1086.7288736682385,1086.7456383919343,,,,,,,173,001,2024_Mar_01_1141,SpeechDraft1Carolyn_lessNoise_PlusLocalization,2021.2.3,59.8785951194048,
,,,,,,,,nearRight,6.5,0,ch1Sound_localizationTask.wav,6.5,"(1047, 878)","(87, -202)",95,-338,,,,,,,,,,,,,5,1,36,4,,,,,,,,,,,,,,,,,,,,,,,,,,,,,,,,,,,,,,,,1089.3122278358787,None,,,1092.328707437031,None,1.5761904761904761,0.79839729052037,1092.328707437031,None,,,,,,,1090.3122341753915,None,1090.4955416731536,1090.5122744729742,,,,,,,173,001,2024_Mar_01_1141,SpeechDraft1Carolyn_lessNoise_PlusLocalization,2021.2.3,59.8785951194048,
,,,,,,,,center,0.0,6,ch1Sound_localizationTask.wav,0.0,"(952, 878)","(-8,-202)",0,-338,,,,,,,,,,,,,5,2,37,3,,,,,,,,,,,,,,,,,,,,,,,,,,,,,,,,,,,,,,,,1093.1290591033176,None,,,1096.1454158937559,None,1.4957671957671956,0.7814538339152932,1096.1454158937559,None,,,,,,,1094.1289361277595,None,1094.3122772527859,1094.3289298759773,,,,,,,173,001,2024_Mar_01_1141,SpeechDraft1Carolyn_lessNoise_PlusLocalization,2021.2.3,59.8785951194048,
,,,,,,,,midLeft,-13.0,2,ch1Sound_localizationTask.wav,-13.0,"(762, 878)","(-198,-202)",-190,-338,,,,,,,,,,,,,5,3,38,1,,,,,,,,,,,,,,,,,,,,,,,,,,,,,,,,,,,,,,,,1096.928863266483,None,,,1099.9454632606357,None,1.3883597883597885,0.7502345768734813,1099.9454632606357,None,,,,,,,1097.928915899247,None,1098.1122615458444,1098.1290293848142,,,,,,,173,001,2024_Mar_01_1141,SpeechDraft1Carolyn_lessNoise_PlusLocalization,2021.2.3,59.8785951194048,
,,,,,,,,nearLeft,-6.5,1,ch1Sound_localizationTask.wav,-6.5,"(857, 878)","(-103,-202)",-95,-338,,,,,,,,,,,,,5,4,39,2,,,,,,,,,,,,,,,,,,,,,,,,,,,,,,,,,,,,,,,,1100.7123141391203,None,,,1103.7286254428327,None,1.4661375661375662,0.6160339778289199,1103.7286254428327,None,,,,,,,1101.7122526289895,None,1101.8955781999975,1101.9122476764023,,,,,,,173,001,2024_Mar_01_1141,SpeechDraft1Carolyn_lessNoise_PlusLocalization,2021.2.3,59.8785951194048,
,,,,,,,,center,0.0,6,ch1Sound_localizationTask.wav,0.0,"(952, 878)","(-8,-202)",0,-338,,,,,,,,,,,,,5,5,40,3,,,,,,,,,,,,,,,,,,,,,,,,,,,,,,,,,,,,,,,,1104.3457760699093,None,,,1107.362064502202,None,1.511111111111111,0.7654973100870848,1107.362064502202,None,,,,,,,1105.3456374667585,None,1105.5289660114795,1105.5455661714077,,,,,,,173,001,2024_Mar_01_1141,SpeechDraft1Carolyn_lessNoise_PlusLocalization,2021.2.3,59.8785951194048,
,,,,,,,,farRight,19.1,4,ch1Sound_localizationTask.wav,19.1,"(1237, 878)","(277,-202)",285,-338,,,,,,,,,,,,,5,6,41,6,,,,,,,,,,,,,,,,,,,,,,,,,,,,,,,,,,,,,,,,1108.129039180465,None,,,1111.1454106504098,None,1.671957671957672,1.0992040112614632,1111.1454106504098,None,,,,,,,1109.128929416649,None,1109.3123166952282,1109.3290095124394,,,,,,,173,001,2024_Mar_01_1141,SpeechDraft1Carolyn_lessNoise_PlusLocalization,2021.2.3,59.8785951194048,
,,,,,,,,nearRight,6.5,0,ch1Sound_localizationTask.wav,6.5,"(1047, 878)","(87, -202)",95,-338,,,,,,,,,,,,,6,0,42,4,,,,,,,,,,,,,,,,,,,,,,,,,,,,,,,,,,,,,,,,1112.2456574104726,None,,,1115.2617901070043,None,1.5624338624338625,1.0491450503468513,1115.2617901070043,None,,,,,,,1113.2455646786839,None,1113.4289111131802,1113.4456314826384,,,,,,,173,001,2024_Mar_01_1141,SpeechDraft1Carolyn_lessNoise_PlusLocalization,2021.2.3,59.8785951194048,
,,,,,,,,nearLeft,-6.5,1,ch1Sound_localizationTask.wav,-6.5,"(857, 878)","(-103,-202)",-95,-338,,,,,,,,,,,,,6,1,43,2,,,,,,,,,,,,,,,,,,,,,,,,,,,,,,,,,,,,,,,,1116.3126829368994,None,,,1119.3287955829874,None,1.4428571428571428,0.8506725309416652,1119.3287955829874,None,,,,,,,1117.3123756172135,None,1117.495610466227,1117.5122371511534,,,,,,,173,001,2024_Mar_01_1141,SpeechDraft1Carolyn_lessNoise_PlusLocalization,2021.2.3,59.8785951194048,
,,,,,,,,farLeft,-19.1,5,ch1Sound_localizationTask.wav,-19.1,"(667, 878)","(-293,-202)",-285,-338,,,,,,,,,,,,,6,2,44,0,,,,,,,,,,,,,,,,,,,,,,,,,,,,,,,,,,,,,,,,1120.19560854882,None,,,1123.2121391529217,None,1.3058201058201058,0.9663269640877843,1123.2121391529217,None,,,,,,,1121.1955826245248,None,1121.3789375275373,1121.3955763494596,,,,,,,173,001,2024_Mar_01_1141,SpeechDraft1Carolyn_lessNoise_PlusLocalization,2021.2.3,59.8785951194048,
,,,,,,,,midRight,13.0,3,ch1Sound_localizationTask.wav,13.0,"(1142, 878)","(182, -202)",190,-338,,,,,,,,,,,,,6,3,45,5,,,,,,,,,,,,,,,,,,,,,,,,,,,,,,,,,,,,,,,,1124.1790058594197,None,,,1127.195393695496,None,1.6105820105820106,1.198928796686232,1127.195393695496,None,,,,,,,1125.178932858631,None,1125.3622981067747,1125.3788893828169,,,,,,,173,001,2024_Mar_01_1141,SpeechDraft1Carolyn_lessNoise_PlusLocalization,2021.2.3,59.8785951194048,
,,,,,,,,farLeft,-19.1,5,ch1Sound_localizationTask.wav,-19.1,"(667, 878)","(-293,-202)",-285,-338,,,,,,,,,,,,,6,4,46,0,,,,,,,,,,,,,,,,,,,,,,,,,,,,,,,,,,,,,,,,1128.395754205063,None,,,1131.4120686119422,None,1.3317460317460317,1.0664705298841,1131.4120686119422,None,,,,,,,1129.395678197965,None,1129.5790719669312,1129.5956856803969,,,,,,,173,001,2024_Mar_01_1141,SpeechDraft1Carolyn_lessNoise_PlusLocalization,2021.2.3,59.8785951194048,
,,,,,,,,nearLeft,-6.5,1,ch1Sound_localizationTask.wav,-6.5,"(857, 878)","(-103,-202)",-95,-338,,,,,,,,,,,,,6,5,47,2,,,,,,,,,,,,,,,,,,,,,,,,,,,,,,,,,,,,,,,,1132.48035303317,None,,,1135.5120644327253,None,1.446031746031746,0.9156539104878902,1135.5120644327253,None,,,,,,,1133.4956291439012,None,1133.67902649194,1133.6956559149548,,,,,,,173,001,2024_Mar_01_1141,SpeechDraft1Carolyn_lessNoise_PlusLocalization,2021.2.3,59.8785951194048,
,,,,,,,,center,0.0,6,ch1Sound_localizationTask.wav,0.0,"(952, 878)","(-8,-202)",0,-338,,,,,,,,,,,,,6,6,48,3,,,,,,,,,,,,,,,,,,,,,,,,,,,,,,,,,,,,,,,,1136.4289246266708,None,,,1139.445402980782,None,1.4984126984126984,1.332746872678399,1139.445402980782,None,,,,,,,1137.4290199643,None,1137.6124813230708,1137.6289666797966,,,,,,,173,001,2024_Mar_01_1141,SpeechDraft1Carolyn_lessNoise_PlusLocalization,2021.2.3,59.8785951194048,
,,,,,,,,midLeft,-13.0,2,ch1Sound_localizationTask.wav,-13.0,"(762, 878)","(-198,-202)",-190,-338,,,,,,,,,,,,,7,0,49,1,,,,,,,,,,,,,,,,,,,,,,,,,,,,,,,,,,,,,,,,1140.7789294598624,None,,,1143.7954778922722,None,1.4137566137566138,1.0168026983737946,1143.7954778922722,None,,,,,,,1141.7792608104646,None,1141.962301261723,1141.9789747232571,,,,,,,173,001,2024_Mar_01_1141,SpeechDraft1Carolyn_lessNoise_PlusLocalization,2021.2.3,59.8785951194048,
,,,,,,,,nearRight,6.5,0,ch1Sound_localizationTask.wav,6.5,"(1047, 878)","(87, -202)",95,-338,,,,,,,,,,,,,7,1,50,4,,,,,,,,,,,,,,,,,,,,,,,,,,,,,,,,,,,,,,,,1144.8290663007647,None,,,1147.8453766191378,None,1.5412698412698411,0.6316127311438322,1147.8453766191378,None,,,,,,,1145.829081458971,None,1146.0123919509351,1146.0290205813944,,,,,,,173,001,2024_Mar_01_1141,SpeechDraft1Carolyn_lessNoise_PlusLocalization,2021.2.3,59.8785951194048,
,,,,,,,,midLeft,-13.0,2,ch1Sound_localizationTask.wav,-13.0,"(762, 878)","(-198,-202)",-190,-338,,,,,,,,,,,,,7,2,51,1,,,,,,,,,,,,,,,,,,,,,,,,,,,,,,,,,,,,,,,,1148.47895219177,None,,,1151.495321075432,None,1.3756613756613758,1.0149647984653711,1151.495321075432,None,,,,,,,1149.4789837198332,None,1149.6623262641951,1149.6789759192616,,,,,,,173,001,2024_Mar_01_1141,SpeechDraft1Carolyn_lessNoise_PlusLocalization,2021.2.3,59.8785951194048,
,,,,,,,,nearRight,6.5,0,ch1Sound_localizationTask.wav,6.5,"(1047, 878)","(87, -202)",95,-338,,,,,,,,,,,,,7,3,52,4,,,,,,,,,,,,,,,,,,,,,,,,,,,,,,,,,,,,,,,,1152.5124224238098,None,,,1155.5286264279857,None,1.5492063492063493,1.0820986945182085,1155.5286264279857,None,,,,,,,1153.5122559377924,None,1153.6958766477183,1153.712302220054,,,,,,,173,001,2024_Mar_01_1141,SpeechDraft1Carolyn_lessNoise_PlusLocalization,2021.2.3,59.8785951194048,
,,,,,,,,farRight,19.1,4,ch1Sound_localizationTask.wav,19.1,"(1237, 878)","(277,-202)",285,-338,,,,,,,,,,,,,7,4,53,6,,,,,,,,,,,,,,,,,,,,,,,,,,,,,,,,,,,,,,,,1156.6125666052103,None,,,1159.62878668122,None,1.71005291005291,0.7326613795012236,1159.62878668122,None,,,,,,,1157.6122861905023,None,1157.7957161469385,1157.812359455973,,,,,,,173,001,2024_Mar_01_1141,SpeechDraft1Carolyn_lessNoise_PlusLocalization,2021.2.3,59.8785951194048,
,,,,,,,,midRight,13.0,3,ch1Sound_localizationTask.wav,13.0,"(1142, 878)","(182, -202)",190,-338,,,,,,,,,,,,,7,5,54,5,,,,,,,,,,,,,,,,,,,,,,,,,,,,,,,,,,,,,,,,1160.3628451731056,None,,,1163.3787562381476,None,1.6206349206349207,0.8483991287648678,1163.3787562381476,None,,,,,,,1161.362392318435,None,1161.5458295028657,1161.5623023668304,,,,,,,173,001,2024_Mar_01_1141,SpeechDraft1Carolyn_lessNoise_PlusLocalization,2021.2.3,59.8785951194048,
,,,,,,,,center,0.0,6,ch1Sound_localizationTask.wav,0.0,"(952, 878)","(-8,-202)",0,-338,,,,,,,,,,,,,7,6,55,3,,,,,,,,,,,,,,,,,,,,,,,,,,,,,,,,,,,,,,,,1164.228935067542,None,,,1167.2453228468075,None,1.506878306878307,0.8657548921182752,1167.2453228468075,None,,,,,,,1165.2288896422833,None,1165.4123255684972,1165.4288910981268,,,,,,,173,001,2024_Mar_01_1141,SpeechDraft1Carolyn_lessNoise_PlusLocalization,2021.2.3,59.8785951194048,
,,,,,,,,,,,,,,,,,,,,,,,,,,,,,,,,,,,,,,,,,,,,,,,,,,,,,,,,,,,,,,,,,,,,,,,,,,,,,,,,,,,,,,,,,,,,1168.112387565896,None,c,1114.6725870668888,1169.0956780053675,None,173,001,2024_Mar_01_1141,SpeechDraft1Carolyn_lessNoise_PlusLocalization,2021.2.3,59.8785951194048,
