{"meta_data":{"additional_headers":{},"game_name":"Recollect","version":"2.53.01","user_name":"173","organization":"braingamecenter","study":"mpl2_2022_11","session_number":0,"device_id":"74342D95-EE82-45E3-8ADF-48FB3203C5DD"},"data":[{"trial":0,"action":1,"button_pressed":5,"time_out":false,"dwell_time":64.742919921875,"response_time":1709318050488.65},{"trial":0,"action":1,"button_pressed":3,"time_out":false,"dwell_time":47.724853515625,"response_time":1709318051038.13},{"trial":0,"action":9,"button_pressed":-1,"time_out":false,"dwell_time":58.25390625,"response_time":1709318051599.16},{"trial":1,"action":1,"button_pressed":2,"time_out":false,"dwell_time":64.052001953125,"response_time":1709318061068.68},{"trial":1,"action":1,"button_pressed":4,"time_out":false,"dwell_time":64.551025390625,"response_time":1709318061451.58},{"trial":1,"action":1,"button_pressed":1,"time_out":false,"dwell_time":47.7138671875,"response_time":1709318061984.53},{"trial":1,"action":9,"button_pressed":-1,"time_out":false,"dwell_time":48.239013671875,"response_time":1709318062552.28},{"trial":2,"action":1,"button_pressed":2,"time_out":false,"dwell_time":63.22607421875,"response_time":1709318074463.3},{"trial":2,"action":1,"button_pressed":4,"time_out":false,"dwell_time":47.786865234375,"response_time":1709318074780.26},{"trial":2,"action":1,"button_pressed":10,"time_out":false,"dwell_time":48.223876953125,"response_time":1709318075147.45},{"trial":2,"action":1,"button_pressed":5,"time_out":false,"dwell_time":47.6201171875,"response_time":1709318075564.05},{"trial":2,"action":9,"button_pressed":-1,"time_out":false,"dwell_time":30.75,"response_time":1709318076163.39},{"trial":3,"action":1,"button_pressed":11,"time_out":false,"dwell_time":30.51904296875,"response_time":1709318090741.81},{"trial":3,"action":1,"button_pressed":1,"time_out":false,"dwell_time":46.338134765625,"response_time":1709318091091.36},{"trial":3,"action":1,"button_pressed":9,"time_out":false,"dwell_time":47.424072265625,"response_time":1709318091441.99},{"trial":3,"action":1,"button_pressed":7,"time_out":false,"dwell_time":30.886962890625,"response_time":1709318091758.74},{"trial":3,"action":1,"button_pressed":4,"time_out":false,"dwell_time":48.419921875,"response_time":1709318092291.84},{"trial":3,"action":9,"button_pressed":-1,"time_out":false,"dwell_time":48.390869140625,"response_time":1709318092741.37},{"trial":4,"action":1,"button_pressed":9,"time_out":false,"dwell_time":48.037841796875,"response_time":1709318109518.92},{"trial":4,"action":1,"button_pressed":1,"time_out":false,"dwell_time":47.801025390625,"response_time":1709318109901.9},{"trial":4,"action":1,"button_pressed":2,"time_out":false,"dwell_time":64.466064453125,"response_time":1709318110301.88},{"trial":4,"action":1,"button_pressed":8,"time_out":false,"dwell_time":47.35693359375,"response_time":1709318110635.12},{"trial":4,"action":1,"button_pressed":6,"time_out":false,"dwell_time":48.368896484375,"response_time":1709318111085.65},{"trial":4,"action":1,"button_pressed":11,"time_out":false,"dwell_time":48.309814453125,"response_time":1709318111385.43},{"trial":4,"action":9,"button_pressed":-1,"time_out":false,"dwell_time":32.01806640625,"response_time":1709318111985.86},{"trial":5,"action":1,"button_pressed":1,"time_out":false,"dwell_time":14.5390625,"response_time":1709318131378.18},{"trial":5,"action":1,"button_pressed":9,"time_out":false,"dwell_time":47.39599609375,"response_time":1709318131795.2},{"trial":5,"action":1,"button_pressed":7,"time_out":false,"dwell_time":13.5390625,"response_time":1709318132094.42},{"trial":5,"action":1,"button_pressed":2,"time_out":false,"dwell_time":64.63818359375,"response_time":1709318132594.46},{"trial":5,"action":1,"button_pressed":5,"time_out":false,"dwell_time":47.735107421875,"response_time":1709318132911.5},{"trial":5,"action":1,"button_pressed":3,"time_out":false,"dwell_time":31.151123046875,"response_time":1709318133477.37},{"trial":5,"action":1,"button_pressed":3,"time_out":false,"dwell_time":47.74609375,"response_time":1709318135243.42},{"trial":5,"action":1,"button_pressed":11,"time_out":false,"dwell_time":14.097900390625,"response_time":1709318136392.82},{"trial":5,"action":1,"button_pressed":3,"time_out":false,"dwell_time":14.322021484375,"response_time":1709318138559.8},{"trial":5,"action":0,"button_pressed":-1,"time_out":false,"dwell_time":48.708984375,"response_time":1709318140609.07},{"trial":5,"action":1,"button_pressed":1,"time_out":false,"dwell_time":64.547119140625,"response_time":1709318142557.86},{"trial":5,"action":1,"button_pressed":9,"time_out":false,"dwell_time":48.1201171875,"response_time":1709318142891.54},{"trial":5,"action":1,"button_pressed":7,"time_out":false,"dwell_time":30.7119140625,"response_time":1709318143207.93},{"trial":5,"action":1,"button_pressed":5,"time_out":false,"dwell_time":47.35888671875,"response_time":1709318143841.13},{"trial":5,"action":1,"button_pressed":11,"time_out":false,"dwell_time":48.330810546875,"response_time":1709318144990.84},{"trial":5,"action":1,"button_pressed":4,"time_out":false,"dwell_time":30.120849609375,"response_time":1709318151104.78},{"trial":5,"action":1,"button_pressed":3,"time_out":false,"dwell_time":13.19580078125,"response_time":1709318151354.25},{"trial":5,"action":9,"button_pressed":-1,"time_out":false,"dwell_time":48.116943359375,"response_time":1709318151821.6},{"trial":6,"action":1,"button_pressed":2,"time_out":false,"dwell_time":47.986083984375,"response_time":1709318171165.68},{"trial":6,"action":1,"button_pressed":6,"time_out":false,"dwell_time":30.23779296875,"response_time":1709318171548.09},{"trial":6,"action":1,"button_pressed":9,"time_out":false,"dwell_time":47.531982421875,"response_time":1709318171765.43},{"trial":6,"action":1,"button_pressed":0,"time_out":false,"dwell_time":30.294921875,"response_time":1709318172064.43},{"trial":6,"action":1,"button_pressed":3,"time_out":false,"dwell_time":31.083984375,"response_time":1709318172364.34},{"trial":6,"action":1,"button_pressed":10,"time_out":false,"dwell_time":31.18505859375,"response_time":1709318172665.22},{"trial":6,"action":1,"button_pressed":7,"time_out":false,"dwell_time":31.669921875,"response_time":1709318172998.24},{"trial":6,"action":9,"button_pressed":-1,"time_out":false,"dwell_time":65.222900390625,"response_time":1709318173831.13},{"trial":7,"action":1,"button_pressed":1,"time_out":false,"dwell_time":31.218017578125,"response_time":1709318195690.76},{"trial":7,"action":1,"button_pressed":10,"time_out":false,"dwell_time":47.568115234375,"response_time":1709318196123.72},{"trial":7,"action":1,"button_pressed":0,"time_out":false,"dwell_time":47.8359375,"response_time":1709318196556.4},{"trial":7,"action":1,"button_pressed":3,"time_out":false,"dwell_time":47.569091796875,"response_time":1709318198072.24},{"trial":7,"action":1,"button_pressed":2,"time_out":false,"dwell_time":47.630126953125,"response_time":1709318198722.92},{"trial":7,"action":1,"button_pressed":7,"time_out":false,"dwell_time":63.35009765625,"response_time":1709318199722.06},{"trial":7,"action":1,"button_pressed":9,"time_out":false,"dwell_time":30.715087890625,"response_time":1709318200505.6},{"trial":7,"action":1,"button_pressed":4,"time_out":false,"dwell_time":64.43994140625,"response_time":1709318200871.66},{"trial":7,"action":9,"button_pressed":-1,"time_out":false,"dwell_time":48.35595703125,"response_time":1709318201305.92},{"trial":8,"action":1,"button_pressed":2,"time_out":false,"dwell_time":64.5478515625,"response_time":1709318224397.41},{"trial":8,"action":1,"button_pressed":6,"time_out":false,"dwell_time":48.119140625,"response_time":1709318224747.6},{"trial":8,"action":1,"button_pressed":9,"time_out":false,"dwell_time":30.968994140625,"response_time":1709318225013.97},{"trial":8,"action":1,"button_pressed":0,"time_out":false,"dwell_time":47.641845703125,"response_time":1709318225347.46},{"trial":8,"action":1,"button_pressed":1,"time_out":false,"dwell_time":97.923828125,"response_time":1709318225763.4},{"trial":8,"action":1,"button_pressed":10,"time_out":false,"dwell_time":46.48583984375,"response_time":1709318226129.56},{"trial":8,"action":1,"button_pressed":5,"time_out":false,"dwell_time":47.51904296875,"response_time":1709318226612.89},{"trial":8,"action":1,"button_pressed":3,"time_out":false,"dwell_time":64.02001953125,"response_time":1709318227446.44},{"trial":8,"action":1,"button_pressed":7,"time_out":false,"dwell_time":30.85791015625,"response_time":1709318227696.57},{"trial":8,"action":9,"button_pressed":-1,"time_out":false,"dwell_time":31.58203125,"response_time":1709318228345.72},{"trial":9,"action":1,"button_pressed":5,"time_out":false,"dwell_time":64.274169921875,"response_time":1709318245506.41},{"trial":9,"action":1,"button_pressed":10,"time_out":false,"dwell_time":48.219970703125,"response_time":1709318247656.51},{"trial":9,"action":1,"button_pressed":7,"time_out":false,"dwell_time":47.86083984375,"response_time":1709318248472.77},{"trial":9,"action":1,"button_pressed":4,"time_out":false,"dwell_time":47.64404296875,"response_time":1709318248822.91},{"trial":9,"action":1,"button_pressed":0,"time_out":false,"dwell_time":48.3828125,"response_time":1709318249072.78},{"trial":9,"action":1,"button_pressed":8,"time_out":false,"dwell_time":31.969970703125,"response_time":1709318249372.82},{"trial":9,"action":9,"button_pressed":-1,"time_out":false,"dwell_time":48.879150390625,"response_time":1709318249789.5},{"trial":10,"action":1,"button_pressed":11,"time_out":false,"dwell_time":14.506103515625,"response_time":1709318269382.2},{"trial":10,"action":1,"button_pressed":4,"time_out":false,"dwell_time":47.705078125,"response_time":1709318269765.9},{"trial":10,"action":1,"button_pressed":3,"time_out":false,"dwell_time":30.280029296875,"response_time":1709318270031.85},{"trial":10,"action":1,"button_pressed":1,"time_out":false,"dwell_time":47.950927734375,"response_time":1709318270682.43},{"trial":10,"action":0,"button_pressed":-1,"time_out":false,"dwell_time":81.005859375,"response_time":1709318273930.17},{"trial":10,"action":1,"button_pressed":11,"time_out":false,"dwell_time":47.614013671875,"response_time":1709318274464.41},{"trial":10,"action":1,"button_pressed":4,"time_out":false,"dwell_time":64.52197265625,"response_time":1709318274896.94},{"trial":10,"action":1,"button_pressed":3,"time_out":false,"dwell_time":48.2939453125,"response_time":1709318275180.78},{"trial":10,"action":1,"button_pressed":2,"time_out":false,"dwell_time":48.60791015625,"response_time":1709318275547.3},{"trial":10,"action":1,"button_pressed":1,"time_out":false,"dwell_time":47.651123046875,"response_time":1709318276030.5},{"trial":10,"action":1,"button_pressed":10,"time_out":false,"dwell_time":47.64892578125,"response_time":1709318276513.83},{"trial":10,"action":1,"button_pressed":9,"time_out":false,"dwell_time":48.197998046875,"response_time":1709318277280.16},{"trial":10,"action":9,"button_pressed":-1,"time_out":false,"dwell_time":30.987060546875,"response_time":1709318277762.99},{"trial":11,"action":1,"button_pressed":8,"time_out":false,"dwell_time":47.484130859375,"response_time":1709318297173.47},{"trial":11,"action":1,"button_pressed":5,"time_out":false,"dwell_time":47.1259765625,"response_time":1709318297423.3},{"trial":11,"action":1,"button_pressed":1,"time_out":false,"dwell_time":47.501953125,"response_time":1709318297905.65},{"trial":11,"action":1,"button_pressed":6,"time_out":false,"dwell_time":29.947998046875,"response_time":1709318298188.86},{"trial":11,"action":1,"button_pressed":0,"time_out":false,"dwell_time":47.68798828125,"response_time":1709318298505.42},{"trial":11,"action":1,"button_pressed":7,"time_out":false,"dwell_time":30.6279296875,"response_time":1709318298971.99},{"trial":11,"action":1,"button_pressed":11,"time_out":false,"dwell_time":29.950927734375,"response_time":1709318299238.6},{"trial":11,"action":9,"button_pressed":-1,"time_out":false,"dwell_time":30.912109375,"response_time":1709318299772.19},{"trial":12,"action":1,"button_pressed":6,"time_out":false,"dwell_time":63.35595703125,"response_time":1709318321647.72},{"trial":12,"action":1,"button_pressed":8,"time_out":false,"dwell_time":64.380126953125,"response_time":1709318322631.04},{"trial":12,"action":1,"button_pressed":0,"time_out":false,"dwell_time":30.86279296875,"response_time":1709318323064.64},{"trial":12,"action":1,"button_pressed":9,"time_out":false,"dwell_time":48.24609375,"response_time":1709318323481.22},{"trial":12,"action":1,"button_pressed":5,"time_out":false,"dwell_time":47.47314453125,"response_time":1709318323846.91},{"trial":12,"action":1,"button_pressed":7,"time_out":false,"dwell_time":13.194091796875,"response_time":1709318324646.63},{"trial":12,"action":1,"button_pressed":2,"time_out":false,"dwell_time":30.737060546875,"response_time":1709318325230.67},{"trial":12,"action":9,"button_pressed":-1,"time_out":false,"dwell_time":16.320068359375,"response_time":1709318325762.78},{"trial":13,"action":1,"button_pressed":2,"time_out":false,"dwell_time":46.9169921875,"response_time":1709318347605.92},{"trial":13,"action":1,"button_pressed":8,"time_out":false,"dwell_time":47.255859375,"response_time":1709318347988.9},{"trial":13,"action":1,"button_pressed":9,"time_out":false,"dwell_time":47.14501953125,"response_time":1709318348406.12},{"trial":13,"action":1,"button_pressed":1,"time_out":false,"dwell_time":30.216064453125,"response_time":1709318348805.32},{"trial":13,"action":1,"button_pressed":4,"time_out":false,"dwell_time":47.83203125,"response_time":1709318349188.54},{"trial":13,"action":1,"button_pressed":10,"time_out":false,"dwell_time":30.467041015625,"response_time":1709318349505.1},{"trial":13,"action":1,"button_pressed":3,"time_out":false,"dwell_time":14.343017578125,"response_time":1709318349904.98},{"trial":13,"action":1,"button_pressed":5,"time_out":false,"dwell_time":30.9677734375,"response_time":1709318350271.35},{"trial":13,"action":9,"button_pressed":-1,"time_out":false,"dwell_time":31.72900390625,"response_time":1709318351455.78}]}