{"meta_data":{"additional_headers":{},"game_name":"Recollect","version":"2.53.01","user_name":"174","organization":"braingamecenter","study":"mpl2_2022_11","session_number":0,"device_id":"74342D95-EE82-45E3-8ADF-48FB3203C5DD"},"data":[{"trial":0,"action":1,"button_pressed":10,"time_out":false,"dwell_time":48.4560546875,"response_time":1709579003683.44},{"trial":0,"action":1,"button_pressed":7,"time_out":false,"dwell_time":64.345947265625,"response_time":1709579004782.34},{"trial":0,"action":9,"button_pressed":-1,"time_out":false,"dwell_time":58.541015625,"response_time":1709579006808.8},{"trial":1,"action":1,"button_pressed":11,"time_out":false,"dwell_time":81.52001953125,"response_time":1709579016278.77},{"trial":1,"action":1,"button_pressed":2,"time_out":false,"dwell_time":114.656982421875,"response_time":1709579016411.44},{"trial":1,"action":1,"button_pressed":9,"time_out":false,"dwell_time":97.153076171875,"response_time":1709579016761.74},{"trial":1,"action":9,"button_pressed":-1,"time_out":false,"dwell_time":148.701904296875,"response_time":1709579017328.94},{"trial":2,"action":1,"button_pressed":10,"time_out":false,"dwell_time":81.0078125,"response_time":1709579029307.71},{"trial":2,"action":1,"button_pressed":3,"time_out":false,"dwell_time":31.080810546875,"response_time":1709579029540.68},{"trial":2,"action":1,"button_pressed":6,"time_out":false,"dwell_time":62.8310546875,"response_time":1709579029923.34},{"trial":2,"action":1,"button_pressed":8,"time_out":false,"dwell_time":14.215087890625,"response_time":1709579030140.52},{"trial":2,"action":9,"button_pressed":-1,"time_out":false,"dwell_time":98.26904296875,"response_time":1709579030907.43},{"trial":3,"action":1,"button_pressed":2,"time_out":false,"dwell_time":97.487060546875,"response_time":1709579045235.12},{"trial":3,"action":1,"button_pressed":6,"time_out":false,"dwell_time":47.370849609375,"response_time":1709579045469.53},{"trial":3,"action":1,"button_pressed":7,"time_out":false,"dwell_time":97.755859375,"response_time":1709579045768.94},{"trial":3,"action":1,"button_pressed":0,"time_out":false,"dwell_time":63.81494140625,"response_time":1709579046634.5},{"trial":3,"action":1,"button_pressed":8,"time_out":false,"dwell_time":80.205078125,"response_time":1709579046884.58},{"trial":3,"action":9,"button_pressed":-1,"time_out":false,"dwell_time":48.708984375,"response_time":1709579047717.6},{"trial":4,"action":1,"button_pressed":10,"time_out":false,"dwell_time":64.01806640625,"response_time":1709579064395.46},{"trial":4,"action":1,"button_pressed":2,"time_out":false,"dwell_time":30.9501953125,"response_time":1709579064762.31},{"trial":4,"action":1,"button_pressed":9,"time_out":false,"dwell_time":81.158935546875,"response_time":1709579065079.19},{"trial":4,"action":1,"button_pressed":5,"time_out":false,"dwell_time":46.925048828125,"response_time":1709579065645.35},{"trial":4,"action":1,"button_pressed":11,"time_out":false,"dwell_time":81.136962890625,"response_time":1709579066145.41},{"trial":4,"action":1,"button_pressed":0,"time_out":false,"dwell_time":114.447021484375,"response_time":1709579067844.86},{"trial":4,"action":9,"button_pressed":-1,"time_out":false,"dwell_time":115.209228515625,"response_time":1709579068595.15},{"trial":5,"action":1,"button_pressed":11,"time_out":false,"dwell_time":98.14208984375,"response_time":1709579088155.04},{"trial":5,"action":1,"button_pressed":4,"time_out":false,"dwell_time":97.677978515625,"response_time":1709579088404.56},{"trial":5,"action":1,"button_pressed":3,"time_out":false,"dwell_time":63.588134765625,"response_time":1709579088904.58},{"trial":5,"action":1,"button_pressed":2,"time_out":false,"dwell_time":79.721923828125,"response_time":1709579089270.49},{"trial":5,"action":1,"button_pressed":10,"time_out":false,"dwell_time":81.0888671875,"response_time":1709579089771.09},{"trial":5,"action":1,"button_pressed":8,"time_out":false,"dwell_time":114.375,"response_time":1709579091020.66},{"trial":5,"action":1,"button_pressed":5,"time_out":false,"dwell_time":63.98388671875,"response_time":1709579091304.04},{"trial":5,"action":1,"button_pressed":1,"time_out":false,"dwell_time":46.94091796875,"response_time":1709579091870.11},{"trial":5,"action":9,"button_pressed":-1,"time_out":false,"dwell_time":98.383056640625,"response_time":1709579092320.67},{"trial":6,"action":1,"button_pressed":4,"time_out":false,"dwell_time":63.325927734375,"response_time":1709579113512.77},{"trial":6,"action":1,"button_pressed":9,"time_out":false,"dwell_time":47.73095703125,"response_time":1709579113912.98},{"trial":6,"action":1,"button_pressed":6,"time_out":false,"dwell_time":80.60009765625,"response_time":1709579114612.44},{"trial":6,"action":1,"button_pressed":7,"time_out":false,"dwell_time":63.947021484375,"response_time":1709579114946.2},{"trial":6,"action":1,"button_pressed":11,"time_out":false,"dwell_time":81.378173828125,"response_time":1709579115196.17},{"trial":6,"action":1,"button_pressed":1,"time_out":false,"dwell_time":48.287109375,"response_time":1709579115896.15},{"trial":6,"action":1,"button_pressed":8,"time_out":false,"dwell_time":62.844970703125,"response_time":1709579116444.82},{"trial":6,"action":1,"button_pressed":3,"time_out":false,"dwell_time":62.93994140625,"response_time":1709579116828.05},{"trial":6,"action":1,"button_pressed":2,"time_out":false,"dwell_time":62.9609375,"response_time":1709579118977.34},{"trial":6,"action":1,"button_pressed":2,"time_out":false,"dwell_time":30.36083984375,"response_time":1709579119427.71},{"trial":6,"action":1,"button_pressed":3,"time_out":false,"dwell_time":63.6572265625,"response_time":1709579119910.48},{"trial":6,"action":1,"button_pressed":3,"time_out":false,"dwell_time":47.7880859375,"response_time":1709579120743.88},{"trial":6,"action":1,"button_pressed":3,"time_out":false,"dwell_time":62.401123046875,"response_time":1709579121159.31},{"trial":6,"action":1,"button_pressed":3,"time_out":false,"dwell_time":63.134033203125,"response_time":1709579121326.54},{"trial":6,"action":1,"button_pressed":3,"time_out":false,"dwell_time":80.60205078125,"response_time":1709579121510.64},{"trial":6,"action":1,"button_pressed":3,"time_out":false,"dwell_time":63.225830078125,"response_time":1709579121676.47},{"trial":6,"action":1,"button_pressed":3,"time_out":false,"dwell_time":98.094970703125,"response_time":1709579121843.9},{"trial":6,"action":1,"button_pressed":3,"time_out":false,"dwell_time":80.7509765625,"response_time":1709579121993.91},{"trial":6,"action":1,"button_pressed":2,"time_out":false,"dwell_time":13.5400390625,"response_time":1709579122543.25},{"trial":6,"action":9,"button_pressed":-1,"time_out":false,"dwell_time":65.203125,"response_time":1709579123293.73},{"trial":7,"action":1,"button_pressed":8,"time_out":false,"dwell_time":48.599853515625,"response_time":1709579138189.12},{"trial":7,"action":1,"button_pressed":4,"time_out":false,"dwell_time":46.95703125,"response_time":1709579138688.03},{"trial":7,"action":1,"button_pressed":1,"time_out":false,"dwell_time":63.14599609375,"response_time":1709579139087.44},{"trial":7,"action":1,"button_pressed":5,"time_out":false,"dwell_time":97.30908203125,"response_time":1709579139554.83},{"trial":7,"action":1,"button_pressed":3,"time_out":false,"dwell_time":63.239990234375,"response_time":1709579139770.65},{"trial":7,"action":9,"button_pressed":-1,"time_out":false,"dwell_time":30.4970703125,"response_time":1709579141103.15},{"trial":8,"action":1,"button_pressed":7,"time_out":false,"dwell_time":97.27685546875,"response_time":1709579158531.24},{"trial":8,"action":1,"button_pressed":8,"time_out":false,"dwell_time":62.954833984375,"response_time":1709579158680.99},{"trial":8,"action":1,"button_pressed":4,"time_out":false,"dwell_time":47.625,"response_time":1709579159381.16},{"trial":8,"action":1,"button_pressed":3,"time_out":false,"dwell_time":13.342041015625,"response_time":1709579159581.1},{"trial":8,"action":1,"button_pressed":0,"time_out":false,"dwell_time":46.625,"response_time":1709579159880.93},{"trial":8,"action":9,"button_pressed":-1,"time_out":false,"dwell_time":64.522216796875,"response_time":1709579160431.48},{"trial":9,"action":1,"button_pressed":11,"time_out":false,"dwell_time":114.88623046875,"response_time":1709579178108.9},{"trial":9,"action":1,"button_pressed":8,"time_out":false,"dwell_time":47.23486328125,"response_time":1709579178259.04},{"trial":9,"action":1,"button_pressed":6,"time_out":false,"dwell_time":63.527099609375,"response_time":1709579178507.72},{"trial":9,"action":1,"button_pressed":4,"time_out":false,"dwell_time":63.134033203125,"response_time":1709579178657.85},{"trial":9,"action":1,"button_pressed":1,"time_out":false,"dwell_time":80.675048828125,"response_time":1709579178958.54},{"trial":9,"action":1,"button_pressed":10,"time_out":false,"dwell_time":62.98388671875,"response_time":1709579179207.67},{"trial":9,"action":9,"button_pressed":-1,"time_out":false,"dwell_time":64.61181640625,"response_time":1709579179858.37},{"trial":10,"action":1,"button_pressed":11,"time_out":false,"dwell_time":81.335205078125,"response_time":1709579199984.98},{"trial":10,"action":1,"button_pressed":7,"time_out":false,"dwell_time":96.47900390625,"response_time":1709579200317.5},{"trial":10,"action":1,"button_pressed":0,"time_out":false,"dwell_time":130.68408203125,"response_time":1709579200684.14},{"trial":10,"action":1,"button_pressed":3,"time_out":false,"dwell_time":97.968994140625,"response_time":1709579200934.76},{"trial":10,"action":1,"button_pressed":9,"time_out":false,"dwell_time":48.37890625,"response_time":1709579201501.47},{"trial":10,"action":1,"button_pressed":9,"time_out":false,"dwell_time":63.2509765625,"response_time":1709579202167.27},{"trial":10,"action":1,"button_pressed":5,"time_out":false,"dwell_time":96.10986328125,"response_time":1709579203466.22},{"trial":10,"action":1,"button_pressed":6,"time_out":false,"dwell_time":96.989990234375,"response_time":1709579203932.74},{"trial":10,"action":1,"button_pressed":9,"time_out":false,"dwell_time":63.592041015625,"response_time":1709579204949.79},{"trial":10,"action":1,"button_pressed":9,"time_out":false,"dwell_time":80.822021484375,"response_time":1709579206982.95},{"trial":10,"action":1,"button_pressed":9,"time_out":false,"dwell_time":31.008056640625,"response_time":1709579207165.47},{"trial":10,"action":1,"button_pressed":9,"time_out":false,"dwell_time":64.115966796875,"response_time":1709579207415.73},{"trial":10,"action":1,"button_pressed":9,"time_out":false,"dwell_time":80.537109375,"response_time":1709579207581.64},{"trial":10,"action":1,"button_pressed":9,"time_out":false,"dwell_time":95.016845703125,"response_time":1709579208130.18},{"trial":10,"action":1,"button_pressed":9,"time_out":false,"dwell_time":97.073974609375,"response_time":1709579208315.32},{"trial":10,"action":1,"button_pressed":9,"time_out":false,"dwell_time":113.852783203125,"response_time":1709579208464.69},{"trial":10,"action":1,"button_pressed":9,"time_out":false,"dwell_time":97.875,"response_time":1709579208631.94},{"trial":10,"action":1,"button_pressed":9,"time_out":false,"dwell_time":62.27294921875,"response_time":1709579208781.09},{"trial":10,"action":0,"button_pressed":-1,"time_out":false,"dwell_time":113.5458984375,"response_time":1709579209264.92},{"trial":10,"action":1,"button_pressed":11,"time_out":false,"dwell_time":46.577880859375,"response_time":1709579210281.14},{"trial":10,"action":1,"button_pressed":7,"time_out":false,"dwell_time":96.988037109375,"response_time":1709579210630.54},{"trial":10,"action":1,"button_pressed":0,"time_out":false,"dwell_time":11.7578125,"response_time":1709579210962.65},{"trial":10,"action":1,"button_pressed":6,"time_out":false,"dwell_time":80.196044921875,"response_time":1709579211597.59},{"trial":10,"action":1,"button_pressed":5,"time_out":false,"dwell_time":114.5029296875,"response_time":1709579211997.49},{"trial":10,"action":1,"button_pressed":9,"time_out":false,"dwell_time":81.093017578125,"response_time":1709579212164.19},{"trial":10,"action":1,"button_pressed":3,"time_out":false,"dwell_time":79.967041015625,"response_time":1709579213163.29},{"trial":10,"action":9,"button_pressed":-1,"time_out":false,"dwell_time":113.840087890625,"response_time":1709579213513.5},{"trial":11,"action":1,"button_pressed":8,"time_out":false,"dwell_time":63.7919921875,"response_time":1709579233173.29},{"trial":11,"action":1,"button_pressed":5,"time_out":false,"dwell_time":81.2890625,"response_time":1709579233473.94},{"trial":11,"action":1,"button_pressed":6,"time_out":false,"dwell_time":63.485107421875,"response_time":1709579233639.6},{"trial":11,"action":1,"button_pressed":1,"time_out":false,"dwell_time":80.760986328125,"response_time":1709579233923.93},{"trial":11,"action":1,"button_pressed":0,"time_out":false,"dwell_time":48.4140625,"response_time":1709579234074.03},{"trial":11,"action":1,"button_pressed":7,"time_out":false,"dwell_time":80.114013671875,"response_time":1709579234323.66},{"trial":11,"action":1,"button_pressed":11,"time_out":false,"dwell_time":63.5810546875,"response_time":1709579234555.97},{"trial":11,"action":9,"button_pressed":-1,"time_out":false,"dwell_time":16.4638671875,"response_time":1709579235339.31}]}