{"meta_data":{"additional_headers":{},"game_name":"Recollect","version":"2.53.01","user_name":"175","organization":"braingamecenter","study":"mpl2_2022_11","session_number":0,"device_id":"74342D95-EE82-45E3-8ADF-48FB3203C5DD"},"data":[{"stage":"Practice","trial":0,"sequence":"6F","letter_input":"F","number_input":"6","is_correct":true,"presentation_start_time":1709664451842.89,"presentation_end_time":1709664454846.38,"response_time":1709664462277.89},{"stage":"Practice","trial":1,"sequence":"G4","letter_input":"G","number_input":"4","is_correct":true,"presentation_start_time":1709664463807.61,"presentation_end_time":1709664466810.93,"response_time":1709664471605.83},{"stage":"Practice","trial":2,"sequence":"3W5","letter_input":"W","number_input":"35","is_correct":true,"presentation_start_time":1709664473138.55,"presentation_end_time":1709664477641.24,"response_time":1709664515191.93},{"stage":"Practice","trial":3,"sequence":"T7L","letter_input":"TL","number_input":"7","is_correct":false,"presentation_start_time":1709664516724.63,"presentation_end_time":1709664521227.02,"response_time":1709664526371.45},{"stage":"Practice","trial":4,"sequence":"9J1","letter_input":"J","number_input":"19","is_correct":true,"presentation_start_time":1709664529403.66,"presentation_end_time":1709664533905.89,"response_time":1709664537751.03},{"stage":"Calibration","trial":0,"sequence":"Q6","letter_input":"Q","number_input":"6","is_correct":true,"presentation_start_time":1709664547730.85,"presentation_end_time":1709664550733.63,"response_time":1709664555145.05},{"stage":"Calibration","trial":1,"sequence":"3M","letter_input":"M","number_input":"3","is_correct":true,"presentation_start_time":1709664556677.65,"presentation_end_time":1709664559680.69,"response_time":1709664564275.16},{"stage":"Calibration","trial":2,"sequence":"Z9P","letter_input":"PZ","number_input":"9","is_correct":true,"presentation_start_time":1709664565807.84,"presentation_end_time":1709664570310.34,"response_time":1709664826468.96},{"stage":"Calibration","trial":3,"sequence":"8R2","letter_input":"R","number_input":"28","is_correct":true,"presentation_start_time":1709664828001.7,"presentation_end_time":1709664832504.16,"response_time":1709664838814.76},{"stage":"Calibration","trial":4,"sequence":"P3L1","letter_input":"LP","number_input":"13","is_correct":true,"presentation_start_time":1709664840347.4,"presentation_end_time":1709664846349.44,"response_time":1709664850660.76},{"stage":"Calibration","trial":5,"sequence":"8Q2C","letter_input":"CQ","number_input":"28","is_correct":true,"presentation_start_time":1709664852193.41,"presentation_end_time":1709664858195.44,"response_time":1709664863523.04},{"stage":"Calibration","trial":6,"sequence":"M5D1B","letter_input":"BDM","number_input":"15","is_correct":true,"presentation_start_time":1709664865055.63,"presentation_end_time":1709664872557,"response_time":1709664880633.81},{"stage":"Calibration","trial":7,"sequence":"7Q3J9","letter_input":"WJ","number_input":"379","is_correct":false,"presentation_start_time":1709664882166.47,"presentation_end_time":1709664889667.97,"response_time":1709664895945.21},{"stage":"Calibration","trial":8,"sequence":"B5M2H8","letter_input":"BHM","number_input":"258","is_correct":true,"presentation_start_time":1709664897477.91,"presentation_end_time":1709664906478.88,"response_time":1709664913022.73},{"stage":"Calibration","trial":9,"sequence":"4K1D6Y","letter_input":"DKY","number_input":"146","is_correct":true,"presentation_start_time":1709664914555.46,"presentation_end_time":1709664923556.45,"response_time":1709664991529.18},{"stage":"Calibration","trial":10,"sequence":"V7L5J2S","letter_input":"LSVJ","number_input":"257","is_correct":false,"presentation_start_time":1709664993062.03,"presentation_end_time":1709665003562.25,"response_time":1709665014354.73},{"stage":"Calibration","trial":11,"sequence":"4W9N6G1","letter_input":"GNW","number_input":"149","is_correct":false,"presentation_start_time":1709665015887.48,"presentation_end_time":1709665026387.83,"response_time":1709665034497.98}]}