{"meta_data":{"additional_headers":{},"game_name":"Recollect","version":"2.53.01","user_name":"175","organization":"braingamecenter","study":"mpl2_2022_11","session_number":0,"device_id":"74342D95-EE82-45E3-8ADF-48FB3203C5DD"},"data":[{"trial":0,"action":1,"button_pressed":4,"time_out":false,"dwell_time":48.47705078125,"response_time":1709664121340.31},{"trial":0,"action":1,"button_pressed":11,"time_out":false,"dwell_time":30.842041015625,"response_time":1709664121972.56},{"trial":0,"action":9,"button_pressed":-1,"time_out":false,"dwell_time":59.366943359375,"response_time":1709664122633.87},{"trial":1,"action":1,"button_pressed":1,"time_out":false,"dwell_time":47.899169921875,"response_time":1709664132119.96},{"trial":1,"action":1,"button_pressed":6,"time_out":false,"dwell_time":14.217041015625,"response_time":1709664132502.98},{"trial":1,"action":1,"button_pressed":8,"time_out":false,"dwell_time":47.68603515625,"response_time":1709664132936.27},{"trial":1,"action":9,"button_pressed":-1,"time_out":false,"dwell_time":48.239990234375,"response_time":1709664133652.24},{"trial":2,"action":1,"button_pressed":6,"time_out":false,"dwell_time":14.39306640625,"response_time":1709664145798.44},{"trial":2,"action":1,"button_pressed":8,"time_out":false,"dwell_time":48.323974609375,"response_time":1709664146198.3},{"trial":2,"action":1,"button_pressed":11,"time_out":false,"dwell_time":46.655029296875,"response_time":1709664146597.16},{"trial":2,"action":1,"button_pressed":7,"time_out":false,"dwell_time":48.22412109375,"response_time":1709664146881.23},{"trial":2,"action":9,"button_pressed":-1,"time_out":false,"dwell_time":30.719970703125,"response_time":1709664148113.88},{"trial":3,"action":1,"button_pressed":1,"time_out":false,"dwell_time":47.051025390625,"response_time":1709664162575.16},{"trial":3,"action":1,"button_pressed":10,"time_out":false,"dwell_time":30.8349609375,"response_time":1709664162974.8},{"trial":3,"action":1,"button_pressed":0,"time_out":false,"dwell_time":64.2490234375,"response_time":1709664163358.01},{"trial":3,"action":1,"button_pressed":9,"time_out":false,"dwell_time":48.289794921875,"response_time":1709664163691.99},{"trial":3,"action":1,"button_pressed":5,"time_out":false,"dwell_time":12.0029296875,"response_time":1709664164056.36},{"trial":3,"action":9,"button_pressed":-1,"time_out":false,"dwell_time":49.034912109375,"response_time":1709664164792.09},{"trial":4,"action":1,"button_pressed":11,"time_out":false,"dwell_time":31.18115234375,"response_time":1709664181669.26},{"trial":4,"action":1,"button_pressed":8,"time_out":false,"dwell_time":30.833984375,"response_time":1709664182118.15},{"trial":4,"action":1,"button_pressed":6,"time_out":false,"dwell_time":47.451904296875,"response_time":1709664182552.09},{"trial":4,"action":1,"button_pressed":4,"time_out":false,"dwell_time":47.669921875,"response_time":1709664182851.29},{"trial":4,"action":1,"button_pressed":1,"time_out":false,"dwell_time":48.351806640625,"response_time":1709664183218.48},{"trial":4,"action":1,"button_pressed":10,"time_out":false,"dwell_time":14.14208984375,"response_time":1709664183618.53},{"trial":4,"action":9,"button_pressed":-1,"time_out":false,"dwell_time":81.97998046875,"response_time":1709664184268.36},{"trial":5,"action":1,"button_pressed":8,"time_out":false,"dwell_time":31.326904296875,"response_time":1709664203994.24},{"trial":5,"action":1,"button_pressed":5,"time_out":false,"dwell_time":63.703857421875,"response_time":1709664204343.34},{"trial":5,"action":1,"button_pressed":1,"time_out":false,"dwell_time":62.93896484375,"response_time":1709664204793.2},{"trial":5,"action":1,"button_pressed":6,"time_out":false,"dwell_time":13.086181640625,"response_time":1709664205043.42},{"trial":5,"action":1,"button_pressed":0,"time_out":false,"dwell_time":47.514892578125,"response_time":1709664205427.56},{"trial":5,"action":1,"button_pressed":7,"time_out":false,"dwell_time":30.7119140625,"response_time":1709664205927.32},{"trial":5,"action":1,"button_pressed":11,"time_out":false,"dwell_time":30.865966796875,"response_time":1709664206293.12},{"trial":5,"action":9,"button_pressed":-1,"time_out":false,"dwell_time":13.26611328125,"response_time":1709664206875.91},{"trial":6,"action":1,"button_pressed":3,"time_out":false,"dwell_time":64.14111328125,"response_time":1709664228969.09},{"trial":6,"action":1,"button_pressed":1,"time_out":false,"dwell_time":31.22802734375,"response_time":1709664229185.39},{"trial":6,"action":1,"button_pressed":8,"time_out":false,"dwell_time":81.0390625,"response_time":1709664229618.69},{"trial":6,"action":1,"button_pressed":5,"time_out":false,"dwell_time":64.467041015625,"response_time":1709664229868.41},{"trial":6,"action":1,"button_pressed":7,"time_out":false,"dwell_time":47.616943359375,"response_time":1709664230252.37},{"trial":6,"action":1,"button_pressed":0,"time_out":false,"dwell_time":63.8359375,"response_time":1709664230634.32},{"trial":6,"action":1,"button_pressed":9,"time_out":false,"dwell_time":48.291015625,"response_time":1709664231001.99},{"trial":6,"action":1,"button_pressed":10,"time_out":false,"dwell_time":29.7060546875,"response_time":1709664231734.24},{"trial":6,"action":9,"button_pressed":-1,"time_out":false,"dwell_time":48.154052734375,"response_time":1709664232351.26},{"trial":7,"action":1,"button_pressed":11,"time_out":false,"dwell_time":64.7470703125,"response_time":1709664257059.38},{"trial":7,"action":1,"button_pressed":1,"time_out":false,"dwell_time":31.782958984375,"response_time":1709664257409.51},{"trial":7,"action":1,"button_pressed":5,"time_out":false,"dwell_time":63.35986328125,"response_time":1709664257875.05},{"trial":7,"action":1,"button_pressed":0,"time_out":false,"dwell_time":62.93603515625,"response_time":1709664258274.56},{"trial":7,"action":1,"button_pressed":7,"time_out":false,"dwell_time":64.56787109375,"response_time":1709664258808.8},{"trial":7,"action":1,"button_pressed":8,"time_out":false,"dwell_time":48.01806640625,"response_time":1709664259208.89},{"trial":7,"action":1,"button_pressed":6,"time_out":false,"dwell_time":47.465087890625,"response_time":1709664259625.46},{"trial":7,"action":1,"button_pressed":3,"time_out":false,"dwell_time":47.507080078125,"response_time":1709664260657.56},{"trial":7,"action":1,"button_pressed":3,"time_out":false,"dwell_time":47.488037109375,"response_time":1709664261574.01},{"trial":7,"action":1,"button_pressed":3,"time_out":false,"dwell_time":31.054931640625,"response_time":1709664263057.51},{"trial":7,"action":0,"button_pressed":-1,"time_out":false,"dwell_time":48.0322265625,"response_time":1709664265023.05},{"trial":7,"action":1,"button_pressed":1,"time_out":false,"dwell_time":30.804931640625,"response_time":1709664266172.43},{"trial":7,"action":1,"button_pressed":5,"time_out":false,"dwell_time":64.1259765625,"response_time":1709664266555.47},{"trial":7,"action":1,"button_pressed":0,"time_out":false,"dwell_time":97.85498046875,"response_time":1709664266889.23},{"trial":7,"action":1,"button_pressed":8,"time_out":false,"dwell_time":46.7451171875,"response_time":1709664267538.63},{"trial":7,"action":1,"button_pressed":3,"time_out":false,"dwell_time":30.87890625,"response_time":1709664267872.56},{"trial":7,"action":1,"button_pressed":7,"time_out":false,"dwell_time":47.469970703125,"response_time":1709664268205.09},{"trial":7,"action":1,"button_pressed":4,"time_out":false,"dwell_time":48.055908203125,"response_time":1709664269105.42},{"trial":7,"action":9,"button_pressed":-1,"time_out":false,"dwell_time":81.81201171875,"response_time":1709664269871.83},{"trial":8,"action":1,"button_pressed":8,"time_out":false,"dwell_time":80.844970703125,"response_time":1709664294745.73},{"trial":8,"action":1,"button_pressed":10,"time_out":false,"dwell_time":46.454833984375,"response_time":1709664294979.19},{"trial":8,"action":1,"button_pressed":4,"time_out":false,"dwell_time":80.52490234375,"response_time":1709664295262},{"trial":8,"action":1,"button_pressed":1,"time_out":false,"dwell_time":64.0859375,"response_time":1709664295728.53},{"trial":8,"action":1,"button_pressed":1,"time_out":false,"dwell_time":81.38720703125,"response_time":1709664296628.82},{"trial":8,"action":0,"button_pressed":-1,"time_out":false,"dwell_time":30.524169921875,"response_time":1709664298111.37},{"trial":8,"action":1,"button_pressed":8,"time_out":false,"dwell_time":80.2958984375,"response_time":1709664298627.26},{"trial":8,"action":1,"button_pressed":10,"time_out":false,"dwell_time":64.2431640625,"response_time":1709664298894.23},{"trial":8,"action":1,"button_pressed":4,"time_out":false,"dwell_time":63.614013671875,"response_time":1709664299377.6},{"trial":8,"action":1,"button_pressed":0,"time_out":false,"dwell_time":30.18408203125,"response_time":1709664299793.9},{"trial":8,"action":1,"button_pressed":6,"time_out":false,"dwell_time":47.47900390625,"response_time":1709664300194.62},{"trial":8,"action":1,"button_pressed":1,"time_out":false,"dwell_time":30.946044921875,"response_time":1709664300477.92},{"trial":8,"action":1,"button_pressed":2,"time_out":false,"dwell_time":30.929931640625,"response_time":1709664301060.94},{"trial":8,"action":1,"button_pressed":9,"time_out":false,"dwell_time":30.58203125,"response_time":1709664301426.68},{"trial":8,"action":1,"button_pressed":7,"time_out":false,"dwell_time":48.18896484375,"response_time":1709664301810.67},{"trial":8,"action":9,"button_pressed":-1,"time_out":false,"dwell_time":14.94580078125,"response_time":1709664302510.98},{"trial":9,"action":1,"button_pressed":6,"time_out":false,"dwell_time":47.718994140625,"response_time":1709664322419.58},{"trial":9,"action":1,"button_pressed":0,"time_out":false,"dwell_time":63.957763671875,"response_time":1709664322752.26},{"trial":9,"action":1,"button_pressed":10,"time_out":false,"dwell_time":13.47998046875,"response_time":1709664323085.8},{"trial":9,"action":1,"button_pressed":5,"time_out":false,"dwell_time":47.626953125,"response_time":1709664323536.48},{"trial":9,"action":1,"button_pressed":4,"time_out":false,"dwell_time":64.64501953125,"response_time":1709664323985.86},{"trial":9,"action":1,"button_pressed":1,"time_out":false,"dwell_time":46.405029296875,"response_time":1709664325201.75},{"trial":9,"action":1,"button_pressed":2,"time_out":false,"dwell_time":30.909912109375,"response_time":1709664325619.05},{"trial":9,"action":9,"button_pressed":-1,"time_out":false,"dwell_time":47.802978515625,"response_time":1709664326118.91},{"trial":10,"action":1,"button_pressed":2,"time_out":false,"dwell_time":64.799072265625,"response_time":1709664345711.74},{"trial":10,"action":1,"button_pressed":6,"time_out":false,"dwell_time":47.2060546875,"response_time":1709664346078.32},{"trial":10,"action":1,"button_pressed":9,"time_out":false,"dwell_time":30.88916015625,"response_time":1709664346328.66},{"trial":10,"action":1,"button_pressed":0,"time_out":false,"dwell_time":63.075927734375,"response_time":1709664346693.86},{"trial":10,"action":1,"button_pressed":3,"time_out":false,"dwell_time":47.841064453125,"response_time":1709664346961.04},{"trial":10,"action":1,"button_pressed":10,"time_out":false,"dwell_time":47.623046875,"response_time":1709664347794.73},{"trial":10,"action":1,"button_pressed":7,"time_out":false,"dwell_time":63.73193359375,"response_time":1709664348359.91},{"trial":10,"action":9,"button_pressed":-1,"time_out":false,"dwell_time":97.93798828125,"response_time":1709664349860.7},{"trial":11,"action":1,"button_pressed":2,"time_out":false,"dwell_time":63.846923828125,"response_time":1709664372002.57},{"trial":11,"action":1,"button_pressed":4,"time_out":false,"dwell_time":64.669921875,"response_time":1709664372918.79},{"trial":11,"action":1,"button_pressed":11,"time_out":false,"dwell_time":47.412109375,"response_time":1709664373402.39},{"trial":11,"action":1,"button_pressed":6,"time_out":false,"dwell_time":47.392822265625,"response_time":1709664374118.13},{"trial":11,"action":1,"button_pressed":0,"time_out":false,"dwell_time":46.944091796875,"response_time":1709664374451.45},{"trial":11,"action":1,"button_pressed":5,"time_out":false,"dwell_time":63.8359375,"response_time":1709664374801.56},{"trial":11,"action":1,"button_pressed":10,"time_out":false,"dwell_time":47.488037109375,"response_time":1709664375118.52},{"trial":11,"action":1,"button_pressed":3,"time_out":false,"dwell_time":13.43896484375,"response_time":1709664375417.65},{"trial":11,"action":9,"button_pressed":-1,"time_out":false,"dwell_time":31.43701171875,"response_time":1709664375902.09},{"trial":12,"action":1,"button_pressed":0,"time_out":false,"dwell_time":81.787841796875,"response_time":1709664398310.39},{"trial":12,"action":1,"button_pressed":8,"time_out":false,"dwell_time":47.635009765625,"response_time":1709664398710.61},{"trial":12,"action":1,"button_pressed":6,"time_out":false,"dwell_time":29.85693359375,"response_time":1709664399026.17},{"trial":12,"action":1,"button_pressed":5,"time_out":false,"dwell_time":63.432861328125,"response_time":1709664399426.16},{"trial":12,"action":1,"button_pressed":3,"time_out":false,"dwell_time":63.631103515625,"response_time":1709664399825.39},{"trial":12,"action":1,"button_pressed":7,"time_out":false,"dwell_time":30.98095703125,"response_time":1709664400159.19},{"trial":12,"action":9,"button_pressed":-1,"time_out":false,"dwell_time":81.156005859375,"response_time":1709664401941.92}]}