{"meta_data":{"additional_headers":{},"game_name":"Recollect","version":"2.53.01","user_name":"176","organization":"braingamecenter","study":"mpl2_2022_11","session_number":0,"device_id":"74342D95-EE82-45E3-8ADF-48FB3203C5DD"},"data":[{"trial":0,"action":1,"button_pressed":11,"time_out":false,"dwell_time":47.89794921875,"response_time":1709683293532.03},{"trial":0,"action":1,"button_pressed":8,"time_out":false,"dwell_time":47.393798828125,"response_time":1709683293914.97},{"trial":0,"action":9,"button_pressed":-1,"time_out":false,"dwell_time":91.552978515625,"response_time":1709683294641.06},{"trial":1,"action":1,"button_pressed":0,"time_out":false,"dwell_time":48.621826171875,"response_time":1709683304828.32},{"trial":1,"action":1,"button_pressed":10,"time_out":false,"dwell_time":64.402099609375,"response_time":1709683305260.75},{"trial":1,"action":1,"button_pressed":11,"time_out":false,"dwell_time":47.23681640625,"response_time":1709683305694.44},{"trial":1,"action":9,"button_pressed":-1,"time_out":false,"dwell_time":30.760009765625,"response_time":1709683306377.27},{"trial":2,"action":1,"button_pressed":0,"time_out":false,"dwell_time":64.756103515625,"response_time":1709683318590.01},{"trial":2,"action":1,"button_pressed":10,"time_out":false,"dwell_time":63.64208984375,"response_time":1709683318973},{"trial":2,"action":1,"button_pressed":2,"time_out":false,"dwell_time":46.89208984375,"response_time":1709683319339.21},{"trial":2,"action":1,"button_pressed":6,"time_out":false,"dwell_time":31.465087890625,"response_time":1709683319856.61},{"trial":2,"action":9,"button_pressed":-1,"time_out":false,"dwell_time":48.358154296875,"response_time":1709683320989.19},{"trial":3,"action":1,"button_pressed":11,"time_out":false,"dwell_time":31.02099609375,"response_time":1709683335851.46},{"trial":3,"action":1,"button_pressed":1,"time_out":false,"dwell_time":31.574951171875,"response_time":1709683336251.18},{"trial":3,"action":1,"button_pressed":9,"time_out":false,"dwell_time":46.403076171875,"response_time":1709683336683.59},{"trial":3,"action":1,"button_pressed":7,"time_out":false,"dwell_time":48.155029296875,"response_time":1709683337067.53},{"trial":3,"action":1,"button_pressed":4,"time_out":false,"dwell_time":32.3359375,"response_time":1709683337450.86},{"trial":3,"action":9,"button_pressed":-1,"time_out":false,"dwell_time":31.02392578125,"response_time":1709683338666.79},{"trial":4,"action":1,"button_pressed":10,"time_out":false,"dwell_time":63.291015625,"response_time":1709683355410.57},{"trial":4,"action":1,"button_pressed":2,"time_out":false,"dwell_time":64.524169921875,"response_time":1709683355810.94},{"trial":4,"action":1,"button_pressed":9,"time_out":false,"dwell_time":47.406005859375,"response_time":1709683356143.93},{"trial":4,"action":1,"button_pressed":5,"time_out":false,"dwell_time":46.608154296875,"response_time":1709683356510.51},{"trial":4,"action":1,"button_pressed":11,"time_out":false,"dwell_time":48.52294921875,"response_time":1709683357527.7},{"trial":4,"action":1,"button_pressed":0,"time_out":false,"dwell_time":46.905029296875,"response_time":1709683357976.73},{"trial":4,"action":9,"button_pressed":-1,"time_out":false,"dwell_time":47.56884765625,"response_time":1709683358343.76},{"trial":5,"action":1,"button_pressed":3,"time_out":false,"dwell_time":47.80615234375,"response_time":1709683378054.53},{"trial":5,"action":1,"button_pressed":0,"time_out":false,"dwell_time":47.761962890625,"response_time":1709683378320.15},{"trial":5,"action":1,"button_pressed":4,"time_out":false,"dwell_time":63.68603515625,"response_time":1709683378552.89},{"trial":5,"action":1,"button_pressed":10,"time_out":false,"dwell_time":48.122802734375,"response_time":1709683378804.03},{"trial":5,"action":1,"button_pressed":5,"time_out":false,"dwell_time":81.306884765625,"response_time":1709683379137.02},{"trial":5,"action":1,"button_pressed":1,"time_out":false,"dwell_time":64.23486328125,"response_time":1709683379703.09},{"trial":5,"action":1,"button_pressed":2,"time_out":false,"dwell_time":46.781005859375,"response_time":1709683380352.68},{"trial":5,"action":1,"button_pressed":4,"time_out":false,"dwell_time":97.614013671875,"response_time":1709683381935.89},{"trial":5,"action":0,"button_pressed":-1,"time_out":false,"dwell_time":47.031005859375,"response_time":1709683384185},{"trial":5,"action":1,"button_pressed":3,"time_out":false,"dwell_time":47.35595703125,"response_time":1709683384934.54},{"trial":5,"action":1,"button_pressed":0,"time_out":false,"dwell_time":46.901123046875,"response_time":1709683385567.71},{"trial":5,"action":1,"button_pressed":10,"time_out":false,"dwell_time":31.55712890625,"response_time":1709683385851.67},{"trial":5,"action":1,"button_pressed":5,"time_out":false,"dwell_time":49.033935546875,"response_time":1709683386184.15},{"trial":5,"action":1,"button_pressed":4,"time_out":false,"dwell_time":48.4130859375,"response_time":1709683386451.67},{"trial":5,"action":1,"button_pressed":1,"time_out":false,"dwell_time":48.507080078125,"response_time":1709683386718.15},{"trial":5,"action":1,"button_pressed":2,"time_out":false,"dwell_time":64.47314453125,"response_time":1709683387050.82},{"trial":5,"action":9,"button_pressed":-1,"time_out":false,"dwell_time":30.64013671875,"response_time":1709683387300.95},{"trial":6,"action":1,"button_pressed":9,"time_out":false,"dwell_time":48.89404296875,"response_time":1709683409444.42},{"trial":6,"action":1,"button_pressed":7,"time_out":false,"dwell_time":63.728759765625,"response_time":1709683409809.39},{"trial":6,"action":1,"button_pressed":3,"time_out":false,"dwell_time":64.19384765625,"response_time":1709683410176.55},{"trial":6,"action":1,"button_pressed":10,"time_out":false,"dwell_time":80.387939453125,"response_time":1709683410559.09},{"trial":6,"action":1,"button_pressed":4,"time_out":false,"dwell_time":63.799072265625,"response_time":1709683410926.42},{"trial":6,"action":1,"button_pressed":6,"time_out":false,"dwell_time":48.426025390625,"response_time":1709683411243.52},{"trial":6,"action":1,"button_pressed":5,"time_out":false,"dwell_time":47.62890625,"response_time":1709683411626.6},{"trial":6,"action":1,"button_pressed":11,"time_out":false,"dwell_time":48.29296875,"response_time":1709683412326.44},{"trial":6,"action":9,"button_pressed":-1,"time_out":false,"dwell_time":64.110107421875,"response_time":1709683413109.09},{"trial":7,"action":1,"button_pressed":3,"time_out":false,"dwell_time":47.7109375,"response_time":1709683435768.87},{"trial":7,"action":1,"button_pressed":1,"time_out":false,"dwell_time":47.684814453125,"response_time":1709683436218.63},{"trial":7,"action":1,"button_pressed":8,"time_out":false,"dwell_time":64.277099609375,"response_time":1709683437517.67},{"trial":7,"action":1,"button_pressed":0,"time_out":false,"dwell_time":64.47314453125,"response_time":1709683439050.48},{"trial":7,"action":1,"button_pressed":6,"time_out":false,"dwell_time":80.36083984375,"response_time":1709683439433.79},{"trial":7,"action":1,"button_pressed":7,"time_out":false,"dwell_time":30.635986328125,"response_time":1709683439749.94},{"trial":7,"action":1,"button_pressed":9,"time_out":false,"dwell_time":48.55908203125,"response_time":1709683440167.64},{"trial":7,"action":1,"button_pressed":10,"time_out":false,"dwell_time":13.72802734375,"response_time":1709683441249.21},{"trial":7,"action":9,"button_pressed":-1,"time_out":false,"dwell_time":31.6650390625,"response_time":1709683442049.74},{"trial":8,"action":1,"button_pressed":9,"time_out":false,"dwell_time":64.84814453125,"response_time":1709683459360.82},{"trial":8,"action":1,"button_pressed":8,"time_out":false,"dwell_time":48.136962890625,"response_time":1709683460044.18},{"trial":8,"action":1,"button_pressed":8,"time_out":false,"dwell_time":30.864013671875,"response_time":1709683460776.45},{"trial":8,"action":0,"button_pressed":-1,"time_out":false,"dwell_time":64.160888671875,"response_time":1709683461392.71},{"trial":8,"action":1,"button_pressed":9,"time_out":false,"dwell_time":30.3681640625,"response_time":1709683461959.76},{"trial":8,"action":1,"button_pressed":1,"time_out":false,"dwell_time":46.927978515625,"response_time":1709683462809.1},{"trial":8,"action":1,"button_pressed":8,"time_out":false,"dwell_time":63.588134765625,"response_time":1709683463241.89},{"trial":8,"action":1,"button_pressed":2,"time_out":false,"dwell_time":64.4638671875,"response_time":1709683463592.48},{"trial":8,"action":1,"button_pressed":6,"time_out":false,"dwell_time":48.0087890625,"response_time":1709683463992.87},{"trial":8,"action":1,"button_pressed":11,"time_out":false,"dwell_time":48.633056640625,"response_time":1709683465059.51},{"trial":8,"action":9,"button_pressed":-1,"time_out":false,"dwell_time":81.221923828125,"response_time":1709683467657.58},{"trial":9,"action":1,"button_pressed":8,"time_out":false,"dwell_time":63.962890625,"response_time":1709683484651.73},{"trial":9,"action":1,"button_pressed":0,"time_out":false,"dwell_time":12.393798828125,"response_time":1709683485001.21},{"trial":9,"action":1,"button_pressed":9,"time_out":false,"dwell_time":64.830810546875,"response_time":1709683485885.53},{"trial":9,"action":0,"button_pressed":-1,"time_out":false,"dwell_time":47.815185546875,"response_time":1709683487052.28},{"trial":9,"action":1,"button_pressed":8,"time_out":false,"dwell_time":63.700927734375,"response_time":1709683487600.7},{"trial":9,"action":1,"button_pressed":0,"time_out":false,"dwell_time":12.748779296875,"response_time":1709683488000.37},{"trial":9,"action":1,"button_pressed":0,"time_out":false,"dwell_time":63.97802734375,"response_time":1709683488251.27},{"trial":9,"action":0,"button_pressed":-1,"time_out":false,"dwell_time":48.623046875,"response_time":1709683489601.47},{"trial":9,"action":1,"button_pressed":8,"time_out":false,"dwell_time":46.56494140625,"response_time":1709683490216.94},{"trial":9,"action":1,"button_pressed":0,"time_out":false,"dwell_time":64.3818359375,"response_time":1709683490667.03},{"trial":9,"action":1,"button_pressed":1,"time_out":false,"dwell_time":46.423095703125,"response_time":1709683491699.56},{"trial":9,"action":1,"button_pressed":9,"time_out":false,"dwell_time":30.908935546875,"response_time":1709683492133.87},{"trial":9,"action":1,"button_pressed":3,"time_out":false,"dwell_time":47.370849609375,"response_time":1709683492516.95},{"trial":9,"action":1,"button_pressed":5,"time_out":false,"dwell_time":80.2119140625,"response_time":1709683492998.96},{"trial":9,"action":9,"button_pressed":-1,"time_out":false,"dwell_time":47.466064453125,"response_time":1709683493433.03},{"trial":10,"action":1,"button_pressed":7,"time_out":false,"dwell_time":46.951171875,"response_time":1709683512893.08},{"trial":10,"action":1,"button_pressed":11,"time_out":false,"dwell_time":31.5029296875,"response_time":1709683513193.49},{"trial":10,"action":1,"button_pressed":0,"time_out":false,"dwell_time":63.754150390625,"response_time":1709683513926.12},{"trial":10,"action":1,"button_pressed":3,"time_out":false,"dwell_time":47.718017578125,"response_time":1709683514226.66},{"trial":10,"action":1,"button_pressed":9,"time_out":false,"dwell_time":30.02294921875,"response_time":1709683514492.41},{"trial":10,"action":1,"button_pressed":5,"time_out":false,"dwell_time":30.166015625,"response_time":1709683514808.92},{"trial":10,"action":1,"button_pressed":6,"time_out":false,"dwell_time":12.64990234375,"response_time":1709683515225},{"trial":10,"action":9,"button_pressed":-1,"time_out":false,"dwell_time":49.010009765625,"response_time":1709683516126.3},{"trial":11,"action":1,"button_pressed":8,"time_out":false,"dwell_time":81.682861328125,"response_time":1709683538368.61},{"trial":11,"action":1,"button_pressed":9,"time_out":false,"dwell_time":47.87109375,"response_time":1709683538668.87},{"trial":11,"action":1,"button_pressed":2,"time_out":false,"dwell_time":46.892822265625,"response_time":1709683539051.01},{"trial":11,"action":1,"button_pressed":10,"time_out":false,"dwell_time":64.423828125,"response_time":1709683539417.84},{"trial":11,"action":1,"button_pressed":4,"time_out":false,"dwell_time":47.525146484375,"response_time":1709683539717.36},{"trial":11,"action":1,"button_pressed":1,"time_out":false,"dwell_time":47.60107421875,"response_time":1709683540033.92},{"trial":11,"action":1,"button_pressed":0,"time_out":false,"dwell_time":63.43896484375,"response_time":1709683540350.43},{"trial":11,"action":1,"button_pressed":5,"time_out":false,"dwell_time":47.287841796875,"response_time":1709683540684.38},{"trial":11,"action":9,"button_pressed":-1,"time_out":false,"dwell_time":81.304931640625,"response_time":1709683541166.95},{"trial":12,"action":1,"button_pressed":1,"time_out":false,"dwell_time":63.968994140625,"response_time":1709683565941.93},{"trial":12,"action":1,"button_pressed":7,"time_out":false,"dwell_time":29.892822265625,"response_time":1709683566175.63},{"trial":12,"action":1,"button_pressed":10,"time_out":false,"dwell_time":29.93896484375,"response_time":1709683566575.23},{"trial":12,"action":1,"button_pressed":0,"time_out":false,"dwell_time":81.14697265625,"response_time":1709683567475.35},{"trial":12,"action":1,"button_pressed":6,"time_out":false,"dwell_time":46.68408203125,"response_time":1709683567791.66},{"trial":12,"action":1,"button_pressed":9,"time_out":false,"dwell_time":31.003173828125,"response_time":1709683567991.59},{"trial":12,"action":1,"button_pressed":8,"time_out":false,"dwell_time":64.52001953125,"response_time":1709683568325.17},{"trial":12,"action":1,"button_pressed":2,"time_out":false,"dwell_time":81.088134765625,"response_time":1709683568958.21},{"trial":12,"action":0,"button_pressed":-1,"time_out":false,"dwell_time":81.92578125,"response_time":1709683571341.17},{"trial":12,"action":1,"button_pressed":1,"time_out":false,"dwell_time":62.239990234375,"response_time":1709683573871.82},{"trial":12,"action":1,"button_pressed":7,"time_out":false,"dwell_time":30.833984375,"response_time":1709683574107.14},{"trial":12,"action":1,"button_pressed":10,"time_out":false,"dwell_time":46.90283203125,"response_time":1709683574472.73},{"trial":12,"action":1,"button_pressed":0,"time_out":false,"dwell_time":46.616943359375,"response_time":1709683574922.37},{"trial":12,"action":1,"button_pressed":6,"time_out":false,"dwell_time":46.239990234375,"response_time":1709683575239.1},{"trial":12,"action":1,"button_pressed":9,"time_out":false,"dwell_time":63.259033203125,"response_time":1709683575489.16},{"trial":12,"action":1,"button_pressed":8,"time_out":false,"dwell_time":62.760986328125,"response_time":1709683575838.48},{"trial":12,"action":1,"button_pressed":3,"time_out":false,"dwell_time":47.60205078125,"response_time":1709683576655.3},{"trial":12,"action":1,"button_pressed":2,"time_out":false,"dwell_time":63.405029296875,"response_time":1709683577005.5},{"trial":12,"action":9,"button_pressed":-1,"time_out":false,"dwell_time":16.449951171875,"response_time":1709683577521.47},{"trial":13,"action":1,"button_pressed":3,"time_out":false,"dwell_time":30.0771484375,"response_time":1709683602863.52},{"trial":13,"action":1,"button_pressed":4,"time_out":false,"dwell_time":47.6240234375,"response_time":1709683603130.88},{"trial":13,"action":1,"button_pressed":7,"time_out":false,"dwell_time":47.985107421875,"response_time":1709683603513.92},{"trial":13,"action":1,"button_pressed":1,"time_out":false,"dwell_time":46.843017578125,"response_time":1709683603846.43},{"trial":13,"action":1,"button_pressed":10,"time_out":false,"dwell_time":63.947998046875,"response_time":1709683605696.62},{"trial":13,"action":1,"button_pressed":2,"time_out":false,"dwell_time":63.7548828125,"response_time":1709683606078.66},{"trial":13,"action":1,"button_pressed":8,"time_out":false,"dwell_time":64.282958984375,"response_time":1709683606512.51},{"trial":13,"action":1,"button_pressed":9,"time_out":false,"dwell_time":64.19189453125,"response_time":1709683606929.14},{"trial":13,"action":1,"button_pressed":6,"time_out":false,"dwell_time":14.067138671875,"response_time":1709683607444.54},{"trial":13,"action":9,"button_pressed":-1,"time_out":false,"dwell_time":48.158203125,"response_time":1709683609029.54}]}