{"meta_data":{"additional_headers":{},"game_name":"Recollect","version":"2.53.01","user_name":"176","organization":"braingamecenter","study":"mpl2_2022_11","session_number":0,"device_id":"74342D95-EE82-45E3-8ADF-48FB3203C5DD"},"data":[{"stage":"Practice","trial":0,"sequence":"6F","letter_input":"F","number_input":"6","is_correct":true,"presentation_start_time":1709683663658.17,"presentation_end_time":1709683666661.24,"response_time":1709683673190.11},{"stage":"Practice","trial":1,"sequence":"G4","letter_input":"G","number_input":"4","is_correct":true,"presentation_start_time":1709683674721.22,"presentation_end_time":1709683677724.27,"response_time":1709683681752.42},{"stage":"Practice","trial":2,"sequence":"3W5","letter_input":"W","number_input":"35","is_correct":true,"presentation_start_time":1709683683285.1,"presentation_end_time":1709683687787.63,"response_time":1709683693181.88},{"stage":"Practice","trial":3,"sequence":"T7L","letter_input":"LT","number_input":"7","is_correct":true,"presentation_start_time":1709683694714.72,"presentation_end_time":1709683699217.27,"response_time":1709683707077.52},{"stage":"Practice","trial":4,"sequence":"9J1","letter_input":"J","number_input":"19","is_correct":true,"presentation_start_time":1709683708610.16,"presentation_end_time":1709683713112.79,"response_time":1709683716740.89},{"stage":"Calibration","trial":0,"sequence":"A7","letter_input":"A","number_input":"7","is_correct":true,"presentation_start_time":1709683721939.22,"presentation_end_time":1709683724942.2,"response_time":1709683728903.64},{"stage":"Calibration","trial":1,"sequence":"1V","letter_input":"V","number_input":"1","is_correct":true,"presentation_start_time":1709683730436.39,"presentation_end_time":1709683733439.28,"response_time":1709683736634.44},{"stage":"Calibration","trial":2,"sequence":"H7A","letter_input":"AH","number_input":"7","is_correct":true,"presentation_start_time":1709683738167.2,"presentation_end_time":1709683742669.65,"response_time":1709683747480.91},{"stage":"Calibration","trial":3,"sequence":"9N1","letter_input":"N","number_input":"19","is_correct":true,"presentation_start_time":1709683749013.73,"presentation_end_time":1709683753516.16,"response_time":1709683756927.88},{"stage":"Calibration","trial":4,"sequence":"Y8W3","letter_input":"WY","number_input":"38","is_correct":true,"presentation_start_time":1709683758460.58,"presentation_end_time":1709683764462.6,"response_time":1709683771356.48},{"stage":"Calibration","trial":5,"sequence":"9N5F","letter_input":"FN","number_input":"59","is_correct":true,"presentation_start_time":1709683772889.15,"presentation_end_time":1709683778891.23,"response_time":1709683786751.45},{"stage":"Calibration","trial":6,"sequence":"A6R2C","letter_input":"ACR","number_input":"26","is_correct":true,"presentation_start_time":1709683788284.25,"presentation_end_time":1709683795785.56,"response_time":1709683800646.98},{"stage":"Calibration","trial":7,"sequence":"4L1E8","letter_input":"EL","number_input":"148","is_correct":true,"presentation_start_time":1709683802179.63,"presentation_end_time":1709683809680.99,"response_time":1709683813459.41},{"stage":"Calibration","trial":8,"sequence":"J7W2R9","letter_input":"JRW","number_input":"279","is_correct":true,"presentation_start_time":1709683814992.15,"presentation_end_time":1709683823993.08,"response_time":1709683832553.22},{"stage":"Calibration","trial":9,"sequence":"5E3S1Q","letter_input":"ESS","number_input":"135","is_correct":false,"presentation_start_time":1709683834085.95,"presentation_end_time":1709683843087.02,"response_time":1709683854662.63},{"stage":"Calibration","trial":10,"sequence":"D8M6G4Y","letter_input":"DEM","number_input":"468","is_correct":false,"presentation_start_time":1709683856195.36,"presentation_end_time":1709683866695.93,"response_time":1709683879754.42},{"stage":"Calibration","trial":11,"sequence":"3V1K9H7","letter_input":"HKV","number_input":"139","is_correct":false,"presentation_start_time":1709683881287.14,"presentation_end_time":1709683891787.77,"response_time":1709683899464.61}]}