{"meta_data":{"additional_headers":{},"game_name":"Recollect","version":"2.53.01","user_name":"177","organization":"braingamecenter","study":"mpl2_2022_11","session_number":0,"device_id":"74342D95-EE82-45E3-8ADF-48FB3203C5DD"},"data":[{"trial":0,"action":1,"button_pressed":11,"time_out":false,"dwell_time":64.1650390625,"response_time":1709758455165.16},{"trial":0,"action":1,"button_pressed":8,"time_out":false,"dwell_time":30.0830078125,"response_time":1709758455764.39},{"trial":0,"action":9,"button_pressed":-1,"time_out":false,"dwell_time":58.4560546875,"response_time":1709758456558.2},{"trial":1,"action":1,"button_pressed":9,"time_out":false,"dwell_time":63.755126953125,"response_time":1709758466377.25},{"trial":1,"action":1,"button_pressed":3,"time_out":false,"dwell_time":47.64404296875,"response_time":1709758467244.83},{"trial":1,"action":1,"button_pressed":3,"time_out":false,"dwell_time":63.85693359375,"response_time":1709758468793.62},{"trial":1,"action":1,"button_pressed":3,"time_out":false,"dwell_time":14.239013671875,"response_time":1709758469743.67},{"trial":1,"action":1,"button_pressed":3,"time_out":false,"dwell_time":63.804931640625,"response_time":1709758470325.71},{"trial":1,"action":1,"button_pressed":3,"time_out":false,"dwell_time":64.580810546875,"response_time":1709758470526.46},{"trial":1,"action":1,"button_pressed":3,"time_out":false,"dwell_time":63.235107421875,"response_time":1709758470725.7},{"trial":1,"action":1,"button_pressed":3,"time_out":false,"dwell_time":47.074951171875,"response_time":1709758470959.37},{"trial":1,"action":1,"button_pressed":3,"time_out":false,"dwell_time":31.003173828125,"response_time":1709758471175.96},{"trial":1,"action":0,"button_pressed":-1,"time_out":false,"dwell_time":98.347900390625,"response_time":1709758472642.66},{"trial":1,"action":1,"button_pressed":9,"time_out":false,"dwell_time":47.511962890625,"response_time":1709758473208.69},{"trial":1,"action":1,"button_pressed":3,"time_out":false,"dwell_time":64.701171875,"response_time":1709758473908.65},{"trial":1,"action":0,"button_pressed":-1,"time_out":false,"dwell_time":63.635009765625,"response_time":1709758475507.62},{"trial":1,"action":1,"button_pressed":9,"time_out":false,"dwell_time":81.073974609375,"response_time":1709758476191.26},{"trial":1,"action":1,"button_pressed":1,"time_out":false,"dwell_time":79.737060546875,"response_time":1709758476823.63},{"trial":1,"action":1,"button_pressed":3,"time_out":false,"dwell_time":80.446044921875,"response_time":1709758477406.81},{"trial":1,"action":9,"button_pressed":-1,"time_out":false,"dwell_time":31.55810546875,"response_time":1709758479973.4},{"trial":2,"action":1,"button_pressed":7,"time_out":false,"dwell_time":80.596923828125,"response_time":1709758492536.13},{"trial":2,"action":1,"button_pressed":9,"time_out":false,"dwell_time":79.489013671875,"response_time":1709758492934.93},{"trial":2,"action":1,"button_pressed":0,"time_out":false,"dwell_time":79.698974609375,"response_time":1709758493318.2},{"trial":2,"action":1,"button_pressed":4,"time_out":false,"dwell_time":31.695068359375,"response_time":1709758493752.65},{"trial":2,"action":9,"button_pressed":-1,"time_out":false,"dwell_time":48.61181640625,"response_time":1709758494419.81},{"trial":3,"action":1,"button_pressed":1,"time_out":false,"dwell_time":98.070068359375,"response_time":1709758509963.78},{"trial":3,"action":1,"button_pressed":10,"time_out":false,"dwell_time":63.637939453125,"response_time":1709758510446.64},{"trial":3,"action":1,"button_pressed":0,"time_out":false,"dwell_time":96.365966796875,"response_time":1709758510912.5},{"trial":3,"action":1,"button_pressed":9,"time_out":false,"dwell_time":63.55517578125,"response_time":1709758511962.07},{"trial":3,"action":1,"button_pressed":5,"time_out":false,"dwell_time":47.416015625,"response_time":1709758512495.49},{"trial":3,"action":9,"button_pressed":-1,"time_out":false,"dwell_time":47.208984375,"response_time":1709758513095.84},{"trial":4,"action":1,"button_pressed":9,"time_out":false,"dwell_time":80.517822265625,"response_time":1709758530090.28},{"trial":4,"action":1,"button_pressed":1,"time_out":false,"dwell_time":47.426025390625,"response_time":1709758530739.61},{"trial":4,"action":1,"button_pressed":2,"time_out":false,"dwell_time":63.90380859375,"response_time":1709758531339.01},{"trial":4,"action":1,"button_pressed":8,"time_out":false,"dwell_time":63.18212890625,"response_time":1709758531839.02},{"trial":4,"action":1,"button_pressed":6,"time_out":false,"dwell_time":65.8740234375,"response_time":1709758532338.72},{"trial":4,"action":1,"button_pressed":11,"time_out":false,"dwell_time":63.93310546875,"response_time":1709758532705.42},{"trial":4,"action":9,"button_pressed":-1,"time_out":false,"dwell_time":81.85205078125,"response_time":1709758533339.47},{"trial":5,"action":1,"button_pressed":8,"time_out":false,"dwell_time":114.630126953125,"response_time":1709758552982.77},{"trial":5,"action":1,"button_pressed":5,"time_out":false,"dwell_time":63.591064453125,"response_time":1709758553532.21},{"trial":5,"action":1,"button_pressed":6,"time_out":false,"dwell_time":113.7890625,"response_time":1709758554098.16},{"trial":5,"action":1,"button_pressed":1,"time_out":false,"dwell_time":97.951904296875,"response_time":1709758554732.09},{"trial":5,"action":1,"button_pressed":0,"time_out":false,"dwell_time":62.93115234375,"response_time":1709758555164.4},{"trial":5,"action":1,"button_pressed":11,"time_out":false,"dwell_time":113.7490234375,"response_time":1709758555647.55},{"trial":5,"action":9,"button_pressed":-1,"time_out":false,"dwell_time":16.406005859375,"response_time":1709758556264.32},{"trial":6,"action":1,"button_pressed":0,"time_out":false,"dwell_time":146.745849609375,"response_time":1709758575741.24},{"trial":6,"action":1,"button_pressed":8,"time_out":false,"dwell_time":113.866943359375,"response_time":1709758576224.2},{"trial":6,"action":1,"button_pressed":5,"time_out":false,"dwell_time":163.85888671875,"response_time":1709758576773.93},{"trial":6,"action":1,"button_pressed":6,"time_out":false,"dwell_time":97.6240234375,"response_time":1709758577357.79},{"trial":6,"action":1,"button_pressed":10,"time_out":false,"dwell_time":63.551025390625,"response_time":1709758578090.79},{"trial":6,"action":1,"button_pressed":2,"time_out":false,"dwell_time":97.7890625,"response_time":1709758578723.96},{"trial":6,"action":1,"button_pressed":9,"time_out":false,"dwell_time":97.02099609375,"response_time":1709758579107.29},{"trial":6,"action":9,"button_pressed":-1,"time_out":false,"dwell_time":63.878173828125,"response_time":1709758580173.37},{"trial":7,"action":1,"button_pressed":9,"time_out":false,"dwell_time":113.751953125,"response_time":1709758603981.72},{"trial":7,"action":1,"button_pressed":7,"time_out":false,"dwell_time":64.52294921875,"response_time":1709758604665.64},{"trial":7,"action":1,"button_pressed":4,"time_out":false,"dwell_time":80.635986328125,"response_time":1709758605164.65},{"trial":7,"action":1,"button_pressed":10,"time_out":false,"dwell_time":80.595947265625,"response_time":1709758605614.48},{"trial":7,"action":1,"button_pressed":3,"time_out":false,"dwell_time":80.18603515625,"response_time":1709758606115.09},{"trial":7,"action":1,"button_pressed":8,"time_out":false,"dwell_time":64.31396484375,"response_time":1709758607114.61},{"trial":7,"action":1,"button_pressed":5,"time_out":false,"dwell_time":47.65185546875,"response_time":1709758609246.94},{"trial":7,"action":1,"button_pressed":11,"time_out":false,"dwell_time":64.095947265625,"response_time":1709758609747.16},{"trial":7,"action":9,"button_pressed":-1,"time_out":false,"dwell_time":14.001220703125,"response_time":1709758610296.24},{"trial":8,"action":1,"button_pressed":5,"time_out":false,"dwell_time":180.8798828125,"response_time":1709758635571.4},{"trial":8,"action":1,"button_pressed":2,"time_out":false,"dwell_time":113.837890625,"response_time":1709758645134.69},{"trial":8,"action":1,"button_pressed":3,"time_out":false,"dwell_time":114.366943359375,"response_time":1709758646934.83},{"trial":8,"action":1,"button_pressed":6,"time_out":false,"dwell_time":79.577880859375,"response_time":1709758647317.33},{"trial":8,"action":1,"button_pressed":4,"time_out":false,"dwell_time":63.787841796875,"response_time":1709758647600.62},{"trial":8,"action":1,"button_pressed":10,"time_out":false,"dwell_time":114.385986328125,"response_time":1709758648001.34},{"trial":8,"action":1,"button_pressed":9,"time_out":false,"dwell_time":63.455078125,"response_time":1709758648251.18},{"trial":8,"action":1,"button_pressed":7,"time_out":false,"dwell_time":97.18310546875,"response_time":1709758648683.62},{"trial":8,"action":1,"button_pressed":4,"time_out":false,"dwell_time":13.157958984375,"response_time":1709758649267.09},{"trial":8,"action":9,"button_pressed":-1,"time_out":false,"dwell_time":97.90380859375,"response_time":1709758651566.43},{"trial":9,"action":1,"button_pressed":10,"time_out":false,"dwell_time":96.64208984375,"response_time":1709758681789.48},{"trial":9,"action":1,"button_pressed":4,"time_out":false,"dwell_time":146.39990234375,"response_time":1709758684221.91},{"trial":9,"action":1,"button_pressed":9,"time_out":false,"dwell_time":63.921875,"response_time":1709758686754.35},{"trial":9,"action":1,"button_pressed":8,"time_out":false,"dwell_time":96.8349609375,"response_time":1709758687338.13},{"trial":9,"action":1,"button_pressed":7,"time_out":false,"dwell_time":96.989990234375,"response_time":1709758688053.86},{"trial":9,"action":1,"button_pressed":11,"time_out":false,"dwell_time":64.148193359375,"response_time":1709758688454.08},{"trial":9,"action":1,"button_pressed":2,"time_out":false,"dwell_time":97.8759765625,"response_time":1709758689121.13},{"trial":9,"action":1,"button_pressed":0,"time_out":false,"dwell_time":62.8740234375,"response_time":1709758689553.42},{"trial":9,"action":1,"button_pressed":5,"time_out":false,"dwell_time":63.64306640625,"response_time":1709758692952.22},{"trial":9,"action":1,"button_pressed":3,"time_out":false,"dwell_time":63.778076171875,"response_time":1709758693352.79},{"trial":9,"action":9,"button_pressed":-1,"time_out":false,"dwell_time":81.843994140625,"response_time":1709758693753.4},{"trial":10,"action":1,"button_pressed":4,"time_out":false,"dwell_time":96.7451171875,"response_time":1709758713662.47},{"trial":10,"action":1,"button_pressed":2,"time_out":false,"dwell_time":181.2021484375,"response_time":1709758714246.21},{"trial":10,"action":1,"button_pressed":6,"time_out":false,"dwell_time":147.68505859375,"response_time":1709758716495.27},{"trial":10,"action":1,"button_pressed":8,"time_out":false,"dwell_time":113.373046875,"response_time":1709758716911.76},{"trial":10,"action":1,"button_pressed":1,"time_out":false,"dwell_time":130.932861328125,"response_time":1709758717361.6},{"trial":10,"action":1,"button_pressed":10,"time_out":false,"dwell_time":97.22314453125,"response_time":1709758718427.88},{"trial":10,"action":1,"button_pressed":0,"time_out":false,"dwell_time":80.319091796875,"response_time":1709758719311.06},{"trial":10,"action":9,"button_pressed":-1,"time_out":false,"dwell_time":64.342041015625,"response_time":1709758719660.63},{"trial":11,"action":1,"button_pressed":7,"time_out":false,"dwell_time":113.92578125,"response_time":1709758739454.62},{"trial":11,"action":1,"button_pressed":11,"time_out":false,"dwell_time":81.06103515625,"response_time":1709758739870.98},{"trial":11,"action":1,"button_pressed":0,"time_out":false,"dwell_time":97.72900390625,"response_time":1709758740504.55},{"trial":11,"action":1,"button_pressed":3,"time_out":false,"dwell_time":64.463134765625,"response_time":1709758740970.6},{"trial":11,"action":1,"button_pressed":5,"time_out":false,"dwell_time":63.501953125,"response_time":1709758745568.15},{"trial":11,"action":1,"button_pressed":6,"time_out":false,"dwell_time":62.94091796875,"response_time":1709758746068.07},{"trial":11,"action":1,"button_pressed":9,"time_out":false,"dwell_time":64.303955078125,"response_time":1709758746385.39},{"trial":11,"action":9,"button_pressed":-1,"time_out":false,"dwell_time":48.31005859375,"response_time":1709758747052.77}]}