{"meta_data":{"additional_headers":{},"game_name":"Recollect","version":"2.53.01","user_name":"177","organization":"braingamecenter","study":"mpl2_2022_11","session_number":0,"device_id":"74342D95-EE82-45E3-8ADF-48FB3203C5DD"},"data":[{"stage":"Practice","trial":0,"sequence":"6F","letter_input":"F","number_input":"6","is_correct":true,"presentation_start_time":1709758778870.98,"presentation_end_time":1709758781874.01,"response_time":1709758791801.66},{"stage":"Practice","trial":1,"sequence":"G4","letter_input":"","number_input":"35","is_correct":false,"presentation_start_time":1709758793332.75,"presentation_end_time":1709758796334.72,"response_time":1709758807794.63},{"stage":"Practice","trial":2,"sequence":"3W5","letter_input":"W","number_input":"5","is_correct":false,"presentation_start_time":1709758810826.99,"presentation_end_time":1709758815329.44,"response_time":1709758820707.14},{"stage":"Practice","trial":3,"sequence":"T7L","letter_input":"LT","number_input":"7","is_correct":true,"presentation_start_time":1709758823739.41,"presentation_end_time":1709758828241.82,"response_time":1709758844882.38},{"stage":"Practice","trial":4,"sequence":"9J1","letter_input":"J","number_input":"19","is_correct":true,"presentation_start_time":1709758846415.14,"presentation_end_time":1709758850917.6,"response_time":1709758857144.99},{"stage":"Calibration","trial":0,"sequence":"P2","letter_input":"P","number_input":"2","is_correct":true,"presentation_start_time":1709758865658.88,"presentation_end_time":1709758868661.82,"response_time":1709758873356.3},{"stage":"Calibration","trial":1,"sequence":"7L","letter_input":"L","number_input":"7","is_correct":true,"presentation_start_time":1709758874889.09,"presentation_end_time":1709758877892.12,"response_time":1709758884336.05},{"stage":"Calibration","trial":2,"sequence":"C3A","letter_input":"AC","number_input":"3","is_correct":true,"presentation_start_time":1709758885868.77,"presentation_end_time":1709758890371.29,"response_time":1709758897631.69},{"stage":"Calibration","trial":3,"sequence":"9L7","letter_input":"L","number_input":"79","is_correct":true,"presentation_start_time":1709758899164.35,"presentation_end_time":1709758903667.03,"response_time":1709758909027.83},{"stage":"Calibration","trial":4,"sequence":"W5K1","letter_input":"KW","number_input":"15","is_correct":true,"presentation_start_time":1709758910560.57,"presentation_end_time":1709758916562.62,"response_time":1709758929637.74},{"stage":"Calibration","trial":5,"sequence":"4Y2Q","letter_input":"QY","number_input":"24","is_correct":true,"presentation_start_time":1709758931170.39,"presentation_end_time":1709758937172.5,"response_time":1709758956378.82},{"stage":"Calibration","trial":6,"sequence":"H8V6N","letter_input":"HNV","number_input":"68","is_correct":true,"presentation_start_time":1709758957911.58,"presentation_end_time":1709758965413.14,"response_time":1709758991783.81},{"stage":"Calibration","trial":7,"sequence":"2T7D4","letter_input":"DT","number_input":"247","is_correct":true,"presentation_start_time":1709758993316.57,"presentation_end_time":1709759000818.21,"response_time":1709759015942.43},{"stage":"Calibration","trial":8,"sequence":"S5Q1H8","letter_input":"HQS","number_input":"158","is_correct":true,"presentation_start_time":1709759017475.23,"presentation_end_time":1709759026476.33,"response_time":1709759039601.48},{"stage":"Calibration","trial":9,"sequence":"2N9E6T","letter_input":"ENT","number_input":"269","is_correct":true,"presentation_start_time":1709759041134.06,"presentation_end_time":1709759050135.13,"response_time":1709759063876.84},{"stage":"Calibration","trial":10,"sequence":"Y4S1P7L","letter_input":"LPSY","number_input":"147","is_correct":true,"presentation_start_time":1709759065409.41,"presentation_end_time":1709759075909.89,"response_time":1709759133253.83},{"stage":"Calibration","trial":11,"sequence":"5G2D9W4","letter_input":"DGW","number_input":"2459","is_correct":true,"presentation_start_time":1709759134786.47,"presentation_end_time":1709759145286.97,"response_time":1709759177589.07},{"stage":"Calibration","trial":12,"sequence":"T1Q8V6H3","letter_input":"HTQV","number_input":"1368","is_correct":false,"presentation_start_time":1709759179121.82,"presentation_end_time":1709759191121.8,"response_time":1709759261694.53},{"stage":"Calibration","trial":13,"sequence":"4P2E9Z7J","letter_input":"VP","number_input":"349","is_correct":false,"presentation_start_time":1709759263227.41,"presentation_end_time":1709759275227.26,"response_time":1709759296982.89}]}