{"meta_data":{"additional_headers":{},"game_name":"Recollect","version":"2.53.01","user_name":"178","organization":"braingamecenter","study":"mpl2_2022_11","session_number":0,"device_id":"74342D95-EE82-45E3-8ADF-48FB3203C5DD"},"data":[{"trial":0,"action":1,"button_pressed":7,"time_out":false,"dwell_time":64.091064453125,"response_time":1709769028372.58},{"trial":0,"action":1,"button_pressed":4,"time_out":false,"dwell_time":63.077880859375,"response_time":1709769028938.81},{"trial":0,"action":9,"button_pressed":-1,"time_out":false,"dwell_time":124.23681640625,"response_time":1709769029582.88},{"trial":1,"action":1,"button_pressed":5,"time_out":false,"dwell_time":81.444091796875,"response_time":1709769039352.94},{"trial":1,"action":1,"button_pressed":8,"time_out":false,"dwell_time":46.881103515625,"response_time":1709769039652.58},{"trial":1,"action":1,"button_pressed":0,"time_out":false,"dwell_time":31.219970703125,"response_time":1709769040135.83},{"trial":1,"action":9,"button_pressed":-1,"time_out":false,"dwell_time":81.111083984375,"response_time":1709769040519.64},{"trial":2,"action":1,"button_pressed":2,"time_out":false,"dwell_time":96.693115234375,"response_time":1709769052464.58},{"trial":2,"action":1,"button_pressed":4,"time_out":false,"dwell_time":79.93994140625,"response_time":1709769052813.86},{"trial":2,"action":1,"button_pressed":10,"time_out":false,"dwell_time":80.955810546875,"response_time":1709769053214.84},{"trial":2,"action":1,"button_pressed":5,"time_out":false,"dwell_time":62.962158203125,"response_time":1709769053664.03},{"trial":2,"action":9,"button_pressed":-1,"time_out":false,"dwell_time":97.118896484375,"response_time":1709769054181},{"trial":3,"action":1,"button_pressed":7,"time_out":false,"dwell_time":63.7919921875,"response_time":1709769068892.54},{"trial":3,"action":1,"button_pressed":4,"time_out":false,"dwell_time":63.823974609375,"response_time":1709769069325.57},{"trial":3,"action":1,"button_pressed":11,"time_out":false,"dwell_time":81.240966796875,"response_time":1709769069692.88},{"trial":3,"action":1,"button_pressed":3,"time_out":false,"dwell_time":63.134033203125,"response_time":1709769070058.65},{"trial":3,"action":1,"button_pressed":10,"time_out":false,"dwell_time":81.14892578125,"response_time":1709769070459.26},{"trial":3,"action":9,"button_pressed":-1,"time_out":false,"dwell_time":80.5380859375,"response_time":1709769071075.51},{"trial":4,"action":1,"button_pressed":5,"time_out":false,"dwell_time":80.93896484375,"response_time":1709769088236.27},{"trial":4,"action":1,"button_pressed":10,"time_out":false,"dwell_time":62.871826171875,"response_time":1709769088602.55},{"trial":4,"action":1,"button_pressed":7,"time_out":false,"dwell_time":47.48095703125,"response_time":1709769089852.59},{"trial":4,"action":1,"button_pressed":4,"time_out":false,"dwell_time":81.10302734375,"response_time":1709769090386},{"trial":4,"action":1,"button_pressed":0,"time_out":false,"dwell_time":63.09912109375,"response_time":1709769090635.22},{"trial":4,"action":1,"button_pressed":8,"time_out":false,"dwell_time":47.409912109375,"response_time":1709769091052.97},{"trial":4,"action":9,"button_pressed":-1,"time_out":false,"dwell_time":63.590087890625,"response_time":1709769091618.67},{"trial":5,"action":1,"button_pressed":3,"time_out":false,"dwell_time":63.38916015625,"response_time":1709769111212.01},{"trial":5,"action":1,"button_pressed":0,"time_out":false,"dwell_time":62.818115234375,"response_time":1709769111461.72},{"trial":5,"action":1,"button_pressed":10,"time_out":false,"dwell_time":62.951171875,"response_time":1709769111828.22},{"trial":5,"action":1,"button_pressed":5,"time_out":false,"dwell_time":62.885009765625,"response_time":1709769112161.45},{"trial":5,"action":1,"button_pressed":4,"time_out":false,"dwell_time":64.4169921875,"response_time":1709769112445.49},{"trial":5,"action":1,"button_pressed":2,"time_out":false,"dwell_time":47.493896484375,"response_time":1709769112679.3},{"trial":5,"action":1,"button_pressed":1,"time_out":false,"dwell_time":47.588134765625,"response_time":1709769113129.13},{"trial":5,"action":9,"button_pressed":-1,"time_out":false,"dwell_time":65.376953125,"response_time":1709769114495.23},{"trial":6,"action":1,"button_pressed":10,"time_out":false,"dwell_time":80.691162109375,"response_time":1709769133955.34},{"trial":6,"action":1,"button_pressed":1,"time_out":false,"dwell_time":79.68310546875,"response_time":1709769134404.31},{"trial":6,"action":1,"button_pressed":2,"time_out":false,"dwell_time":80.1611328125,"response_time":1709769134954.8},{"trial":6,"action":1,"button_pressed":7,"time_out":false,"dwell_time":80.461181640625,"response_time":1709769135487.26},{"trial":6,"action":1,"button_pressed":6,"time_out":false,"dwell_time":97.836181640625,"response_time":1709769135804.64},{"trial":6,"action":1,"button_pressed":3,"time_out":false,"dwell_time":80.656005859375,"response_time":1709769136087.88},{"trial":6,"action":1,"button_pressed":0,"time_out":false,"dwell_time":80.506103515625,"response_time":1709769136636.81},{"trial":6,"action":9,"button_pressed":-1,"time_out":false,"dwell_time":80.422119140625,"response_time":1709769137620.38},{"trial":7,"action":1,"button_pressed":6,"time_out":false,"dwell_time":81.044921875,"response_time":1709769152432.62},{"trial":7,"action":1,"button_pressed":3,"time_out":false,"dwell_time":80.4189453125,"response_time":1709769152648.36},{"trial":7,"action":1,"button_pressed":8,"time_out":false,"dwell_time":80.218994140625,"response_time":1709769153064.87},{"trial":7,"action":1,"button_pressed":11,"time_out":false,"dwell_time":64.68310546875,"response_time":1709769153565.33},{"trial":7,"action":1,"button_pressed":0,"time_out":false,"dwell_time":81.10302734375,"response_time":1709769154048.51},{"trial":7,"action":9,"button_pressed":-1,"time_out":false,"dwell_time":81.87109375,"response_time":1709769154465.68},{"trial":8,"action":1,"button_pressed":3,"time_out":false,"dwell_time":64.107177734375,"response_time":1709769171643.08},{"trial":8,"action":1,"button_pressed":4,"time_out":false,"dwell_time":63.89501953125,"response_time":1709769172208.84},{"trial":8,"action":1,"button_pressed":4,"time_out":false,"dwell_time":80.774169921875,"response_time":1709769172908.36},{"trial":8,"action":1,"button_pressed":7,"time_out":false,"dwell_time":47.51708984375,"response_time":1709769174291.68},{"trial":8,"action":0,"button_pressed":-1,"time_out":false,"dwell_time":46.989013671875,"response_time":1709769178157.23},{"trial":8,"action":1,"button_pressed":3,"time_out":false,"dwell_time":63.6279296875,"response_time":1709769179139.54},{"trial":8,"action":1,"button_pressed":7,"time_out":false,"dwell_time":64.360107421875,"response_time":1709769179706.83},{"trial":8,"action":1,"button_pressed":4,"time_out":false,"dwell_time":81.094970703125,"response_time":1709769180323.37},{"trial":8,"action":1,"button_pressed":10,"time_out":false,"dwell_time":63.8701171875,"response_time":1709769180756.42},{"trial":8,"action":1,"button_pressed":2,"time_out":false,"dwell_time":47.64306640625,"response_time":1709769181156.17},{"trial":8,"action":9,"button_pressed":-1,"time_out":false,"dwell_time":81.12890625,"response_time":1709769181990.02},{"trial":9,"action":1,"button_pressed":11,"time_out":false,"dwell_time":63.720947265625,"response_time":1709769199066.58},{"trial":9,"action":1,"button_pressed":8,"time_out":false,"dwell_time":96.9150390625,"response_time":1709769199716.96},{"trial":9,"action":1,"button_pressed":6,"time_out":false,"dwell_time":62.7099609375,"response_time":1709769201032.46},{"trial":9,"action":1,"button_pressed":4,"time_out":false,"dwell_time":80.156005859375,"response_time":1709769203365.63},{"trial":9,"action":1,"button_pressed":1,"time_out":false,"dwell_time":80.531982421875,"response_time":1709769203782.46},{"trial":9,"action":1,"button_pressed":10,"time_out":false,"dwell_time":63.6240234375,"response_time":1709769204182.13},{"trial":9,"action":9,"button_pressed":-1,"time_out":false,"dwell_time":81.171875,"response_time":1709769204765.01},{"trial":10,"action":1,"button_pressed":2,"time_out":false,"dwell_time":80.97314453125,"response_time":1709769224259.15},{"trial":10,"action":1,"button_pressed":6,"time_out":false,"dwell_time":64.349853515625,"response_time":1709769224825.29},{"trial":10,"action":1,"button_pressed":9,"time_out":false,"dwell_time":62.97705078125,"response_time":1709769225107.87},{"trial":10,"action":1,"button_pressed":0,"time_out":false,"dwell_time":96.5400390625,"response_time":1709769225573.72},{"trial":10,"action":1,"button_pressed":3,"time_out":false,"dwell_time":62.8779296875,"response_time":1709769227256.99},{"trial":10,"action":1,"button_pressed":10,"time_out":false,"dwell_time":64.5849609375,"response_time":1709769227890.96},{"trial":10,"action":1,"button_pressed":7,"time_out":false,"dwell_time":47.5869140625,"response_time":1709769228257.35},{"trial":10,"action":9,"button_pressed":-1,"time_out":false,"dwell_time":65.10107421875,"response_time":1709769228841.09},{"trial":11,"action":1,"button_pressed":10,"time_out":false,"dwell_time":30.822021484375,"response_time":1709769251217.23},{"trial":11,"action":1,"button_pressed":2,"time_out":false,"dwell_time":63.001953125,"response_time":1709769251665.72},{"trial":11,"action":1,"button_pressed":1,"time_out":false,"dwell_time":46.910888671875,"response_time":1709769252199.39},{"trial":11,"action":1,"button_pressed":8,"time_out":false,"dwell_time":64.087158203125,"response_time":1709769253765.65},{"trial":11,"action":1,"button_pressed":9,"time_out":false,"dwell_time":47.83203125,"response_time":1709769254715.94},{"trial":11,"action":1,"button_pressed":11,"time_out":false,"dwell_time":64.355224609375,"response_time":1709769255148.55},{"trial":11,"action":1,"button_pressed":5,"time_out":false,"dwell_time":30.012939453125,"response_time":1709769255931.4},{"trial":11,"action":9,"button_pressed":-1,"time_out":false,"dwell_time":97.541015625,"response_time":1709769256781.86},{"trial":12,"action":1,"button_pressed":9,"time_out":false,"dwell_time":81.340087890625,"response_time":1709769279391.11},{"trial":12,"action":1,"button_pressed":7,"time_out":false,"dwell_time":63.580810546875,"response_time":1709769280123.85},{"trial":12,"action":1,"button_pressed":11,"time_out":false,"dwell_time":62.97509765625,"response_time":1709769280456.39},{"trial":12,"action":1,"button_pressed":6,"time_out":false,"dwell_time":80.2568359375,"response_time":1709769280856.97},{"trial":12,"action":1,"button_pressed":4,"time_out":false,"dwell_time":64.033935546875,"response_time":1709769281673.44},{"trial":12,"action":1,"button_pressed":2,"time_out":false,"dwell_time":81.287109375,"response_time":1709769281990.16},{"trial":12,"action":1,"button_pressed":10,"time_out":false,"dwell_time":80.977783203125,"response_time":1709769282356.4},{"trial":12,"action":1,"button_pressed":1,"time_out":false,"dwell_time":46.847900390625,"response_time":1709769282739.52},{"trial":12,"action":9,"button_pressed":-1,"time_out":false,"dwell_time":64.284912109375,"response_time":1709769283272.49}]}