{"meta_data":{"additional_headers":{},"game_name":"Recollect","version":"2.53.01","user_name":"178","organization":"braingamecenter","study":"mpl2_2022_11","session_number":0,"device_id":"74342D95-EE82-45E3-8ADF-48FB3203C5DD"},"data":[{"stage":"Practice","trial":0,"sequence":"6F","letter_input":"F","number_input":"6","is_correct":true,"presentation_start_time":1709769317326.06,"presentation_end_time":1709769320329.1,"response_time":1709769328357.48},{"stage":"Practice","trial":1,"sequence":"G4","letter_input":"G","number_input":"4","is_correct":true,"presentation_start_time":1709769329888.62,"presentation_end_time":1709769332891.68,"response_time":1709769342567.83},{"stage":"Practice","trial":2,"sequence":"3W5","letter_input":"W","number_input":"35","is_correct":true,"presentation_start_time":1709769344100.63,"presentation_end_time":1709769348603.18,"response_time":1709769354280.7},{"stage":"Practice","trial":3,"sequence":"T7L","letter_input":"LT","number_input":"7","is_correct":true,"presentation_start_time":1709769355813.41,"presentation_end_time":1709769360315.98,"response_time":1709769370325.41},{"stage":"Practice","trial":4,"sequence":"9J1","letter_input":"J","number_input":"19","is_correct":true,"presentation_start_time":1709769371858.2,"presentation_end_time":1709769376360.65,"response_time":1709769380888.67},{"stage":"Calibration","trial":0,"sequence":"7D","letter_input":"D","number_input":"7","is_correct":true,"presentation_start_time":1709769388902.57,"presentation_end_time":1709769391905.61,"response_time":1709769396016.96},{"stage":"Calibration","trial":1,"sequence":"M8","letter_input":"M","number_input":"8","is_correct":true,"presentation_start_time":1709769397549.71,"presentation_end_time":1709769400552.67,"response_time":1709769404280.9},{"stage":"Calibration","trial":2,"sequence":"6H3","letter_input":"H","number_input":"36","is_correct":true,"presentation_start_time":1709769405813.73,"presentation_end_time":1709769410316.21,"response_time":1709769414927.42},{"stage":"Calibration","trial":3,"sequence":"J7C","letter_input":"CJ","number_input":"7","is_correct":true,"presentation_start_time":1709769416460.16,"presentation_end_time":1709769420962.73,"response_time":1709769425707.22},{"stage":"Calibration","trial":4,"sequence":"9P1M","letter_input":"MP","number_input":"19","is_correct":true,"presentation_start_time":1709769427239.96,"presentation_end_time":1709769433242.07,"response_time":1709769442435.03},{"stage":"Calibration","trial":5,"sequence":"T7H5","letter_input":"HT","number_input":"57","is_correct":true,"presentation_start_time":1709769443967.82,"presentation_end_time":1709769449969.94,"response_time":1709769456630.48},{"stage":"Calibration","trial":6,"sequence":"8Z6D2","letter_input":"","number_input":"","is_correct":false,"presentation_start_time":1709769458163.18,"presentation_end_time":1709769465664.58,"response_time":1709769477223.67},{"stage":"Calibration","trial":7,"sequence":"E7R4M","letter_input":"ER","number_input":"47","is_correct":false,"presentation_start_time":1709769478756.42,"presentation_end_time":1709769486257.99,"response_time":1709769496417.4}]}