{"meta_data":{"additional_headers":{},"game_name":"Recollect","version":"2.53.01","user_name":"179","organization":"braingamecenter","study":"mpl2_2022_11","session_number":0,"device_id":"74342D95-EE82-45E3-8ADF-48FB3203C5DD"},"data":[{"stage":"Practice","trial":0,"sequence":"6F","letter_input":"F","number_input":"6","is_correct":true,"presentation_start_time":1709851096075.68,"presentation_end_time":1709851099078.78,"response_time":1709851106557.36},{"stage":"Practice","trial":1,"sequence":"G4","letter_input":"G","number_input":"4","is_correct":true,"presentation_start_time":1709851108088.52,"presentation_end_time":1709851111091.42,"response_time":1709851114869.58},{"stage":"Practice","trial":2,"sequence":"3W5","letter_input":"W","number_input":"35","is_correct":true,"presentation_start_time":1709851116402.45,"presentation_end_time":1709851120904.99,"response_time":1709851125116.36},{"stage":"Practice","trial":3,"sequence":"T7L","letter_input":"LT","number_input":"7","is_correct":true,"presentation_start_time":1709851126649.09,"presentation_end_time":1709851131151.63,"response_time":1709851141794.4},{"stage":"Practice","trial":4,"sequence":"9J1","letter_input":"J","number_input":"19","is_correct":true,"presentation_start_time":1709851143326.99,"presentation_end_time":1709851147829.48,"response_time":1709851151474.43},{"stage":"Calibration","trial":0,"sequence":"6G","letter_input":"G","number_input":"6","is_correct":true,"presentation_start_time":1709851159205.26,"presentation_end_time":1709851162208.24,"response_time":1709851165169.98},{"stage":"Calibration","trial":1,"sequence":"V3","letter_input":"V","number_input":"3","is_correct":true,"presentation_start_time":1709851166702.73,"presentation_end_time":1709851169705.75,"response_time":1709851173533.89},{"stage":"Calibration","trial":2,"sequence":"5L2","letter_input":"L","number_input":"25","is_correct":true,"presentation_start_time":1709851175066.72,"presentation_end_time":1709851179569.31,"response_time":1709851182264.38},{"stage":"Calibration","trial":3,"sequence":"Z9A","letter_input":"AZ","number_input":"9","is_correct":true,"presentation_start_time":1709851183797.17,"presentation_end_time":1709851188299.67,"response_time":1709851191794.66},{"stage":"Calibration","trial":4,"sequence":"8J2C","letter_input":"CJ","number_input":"28","is_correct":true,"presentation_start_time":1709851193327.47,"presentation_end_time":1709851199329.29,"response_time":1709851205490.16},{"stage":"Calibration","trial":5,"sequence":"W7G4","letter_input":"GW","number_input":"47","is_correct":true,"presentation_start_time":1709851207022.95,"presentation_end_time":1709851213024.99,"response_time":1709851216553.28},{"stage":"Calibration","trial":6,"sequence":"1N8C6","letter_input":"CN","number_input":"168","is_correct":true,"presentation_start_time":1709851218086.07,"presentation_end_time":1709851225587.71,"response_time":1709851230565.49},{"stage":"Calibration","trial":7,"sequence":"E9M2H","letter_input":"EHM","number_input":"29","is_correct":true,"presentation_start_time":1709851232098.12,"presentation_end_time":1709851239599.78,"response_time":1709851249026.18},{"stage":"Calibration","trial":8,"sequence":"3P1B8T","letter_input":"BPT","number_input":"138","is_correct":true,"presentation_start_time":1709851250558.91,"presentation_end_time":1709851259559.96,"response_time":1709851269936.04},{"stage":"Calibration","trial":9,"sequence":"C7Z4F9","letter_input":"CFZ","number_input":"479","is_correct":true,"presentation_start_time":1709851271468.75,"presentation_end_time":1709851280469.83,"response_time":1709851287080.46},{"stage":"Calibration","trial":10,"sequence":"6R2J8Y1","letter_input":"JR","number_input":"126","is_correct":false,"presentation_start_time":1709851288613.15,"presentation_end_time":1709851299113.88,"response_time":1709851310289.61},{"stage":"Calibration","trial":11,"sequence":"D5L3H7W","letter_input":"DHLW","number_input":"357","is_correct":true,"presentation_start_time":1709851311822.37,"presentation_end_time":1709851322323,"response_time":1709851337714.02},{"stage":"Calibration","trial":12,"sequence":"8Q4M2B6V","letter_input":"DMQ","number_input":"268","is_correct":false,"presentation_start_time":1709851339246.76,"presentation_end_time":1709851351246.61,"response_time":1709851364821.89},{"stage":"Calibration","trial":13,"sequence":"R5A1T9G7","letter_input":"ART","number_input":"159","is_correct":false,"presentation_start_time":1709851366354.59,"presentation_end_time":1709851378354.8,"response_time":1709851396828.11}]}