{"meta_data":{"additional_headers":{},"game_name":"Recollect","version":"2.53.01","user_name":"179","organization":"braingamecenter","study":"mpl2_2022_11","session_number":0,"device_id":"74342D95-EE82-45E3-8ADF-48FB3203C5DD"},"data":[{"trial":0,"action":1,"button_pressed":10,"time_out":false,"dwell_time":63.77880859375,"response_time":1709850846642.21},{"trial":0,"action":1,"button_pressed":7,"time_out":false,"dwell_time":64.35693359375,"response_time":1709850846842.01},{"trial":0,"action":9,"button_pressed":-1,"time_out":false,"dwell_time":57.14794921875,"response_time":1709850847834.72},{"trial":1,"action":1,"button_pressed":10,"time_out":false,"dwell_time":64.136962890625,"response_time":1709850857255.64},{"trial":1,"action":1,"button_pressed":0,"time_out":false,"dwell_time":31.629150390625,"response_time":1709850857589.15},{"trial":1,"action":1,"button_pressed":6,"time_out":false,"dwell_time":79.598876953125,"response_time":1709850857854.58},{"trial":1,"action":9,"button_pressed":-1,"time_out":false,"dwell_time":65.31689453125,"response_time":1709850858238.87},{"trial":2,"action":1,"button_pressed":9,"time_out":false,"dwell_time":47.902099609375,"response_time":1709850869918.13},{"trial":2,"action":1,"button_pressed":11,"time_out":false,"dwell_time":65.205810546875,"response_time":1709850870301.05},{"trial":2,"action":1,"button_pressed":8,"time_out":false,"dwell_time":47.365966796875,"response_time":1709850870551.48},{"trial":2,"action":1,"button_pressed":0,"time_out":false,"dwell_time":64.614990234375,"response_time":1709850870967.5},{"trial":2,"action":9,"button_pressed":-1,"time_out":false,"dwell_time":48.424072265625,"response_time":1709850872434.76},{"trial":3,"action":1,"button_pressed":1,"time_out":false,"dwell_time":146.72509765625,"response_time":1709850886795.17},{"trial":3,"action":1,"button_pressed":10,"time_out":false,"dwell_time":113.72802734375,"response_time":1709850887145.56},{"trial":3,"action":1,"button_pressed":0,"time_out":false,"dwell_time":62.964111328125,"response_time":1709850887794.54},{"trial":3,"action":1,"button_pressed":9,"time_out":false,"dwell_time":81.06494140625,"response_time":1709850888211.85},{"trial":3,"action":1,"button_pressed":5,"time_out":false,"dwell_time":47.495849609375,"response_time":1709850888495.01},{"trial":3,"action":9,"button_pressed":-1,"time_out":false,"dwell_time":64.711181640625,"response_time":1709850889594.59},{"trial":4,"action":1,"button_pressed":4,"time_out":false,"dwell_time":63.81298828125,"response_time":1709850906306},{"trial":4,"action":1,"button_pressed":11,"time_out":false,"dwell_time":63.7099609375,"response_time":1709850906721.74},{"trial":4,"action":1,"button_pressed":0,"time_out":false,"dwell_time":114.385986328125,"response_time":1709850907255.62},{"trial":4,"action":1,"button_pressed":2,"time_out":false,"dwell_time":79.717041015625,"response_time":1709850907888.09},{"trial":4,"action":1,"button_pressed":10,"time_out":false,"dwell_time":47.528076171875,"response_time":1709850908572.41},{"trial":4,"action":1,"button_pressed":6,"time_out":false,"dwell_time":47.54296875,"response_time":1709850908738.3},{"trial":4,"action":9,"button_pressed":-1,"time_out":false,"dwell_time":16.83203125,"response_time":1709850910154.48},{"trial":5,"action":1,"button_pressed":0,"time_out":false,"dwell_time":64.967041015625,"response_time":1709850927399.49},{"trial":5,"action":1,"button_pressed":0,"time_out":false,"dwell_time":46.89306640625,"response_time":1709850928348.58},{"trial":5,"action":0,"button_pressed":-1,"time_out":false,"dwell_time":63.486083984375,"response_time":1709850929881.2},{"trial":5,"action":1,"button_pressed":8,"time_out":false,"dwell_time":80.152099609375,"response_time":1709850930364.14},{"trial":5,"action":1,"button_pressed":0,"time_out":false,"dwell_time":63.591064453125,"response_time":1709850930781.29},{"trial":5,"action":1,"button_pressed":1,"time_out":false,"dwell_time":81.05517578125,"response_time":1709850931214.58},{"trial":5,"action":1,"button_pressed":9,"time_out":false,"dwell_time":63.654052734375,"response_time":1709850931530.46},{"trial":5,"action":1,"button_pressed":6,"time_out":false,"dwell_time":113.506103515625,"response_time":1709850932130.35},{"trial":5,"action":1,"button_pressed":5,"time_out":false,"dwell_time":47.60400390625,"response_time":1709850932447.32},{"trial":5,"action":9,"button_pressed":-1,"time_out":false,"dwell_time":48.052978515625,"response_time":1709850932764.87},{"trial":6,"action":1,"button_pressed":6,"time_out":false,"dwell_time":64.5400390625,"response_time":1709850945343.61},{"trial":6,"action":0,"button_pressed":-1,"time_out":false,"dwell_time":31.30712890625,"response_time":1709850946443.8},{"trial":6,"action":1,"button_pressed":1,"time_out":false,"dwell_time":81.14111328125,"response_time":1709850946926.28},{"trial":6,"action":1,"button_pressed":6,"time_out":false,"dwell_time":97.867919921875,"response_time":1709850947243.12},{"trial":6,"action":1,"button_pressed":5,"time_out":false,"dwell_time":63.880859375,"response_time":1709850947642.02},{"trial":6,"action":1,"button_pressed":10,"time_out":false,"dwell_time":47.572998046875,"response_time":1709850947993.03},{"trial":6,"action":9,"button_pressed":-1,"time_out":false,"dwell_time":16.364990234375,"response_time":1709850948475.23},{"trial":7,"action":1,"button_pressed":4,"time_out":false,"dwell_time":80.939208984375,"response_time":1709850965104.11},{"trial":7,"action":1,"button_pressed":11,"time_out":false,"dwell_time":47.239990234375,"response_time":1709850965454.11},{"trial":7,"action":1,"button_pressed":5,"time_out":false,"dwell_time":80.95703125,"response_time":1709850965920},{"trial":7,"action":1,"button_pressed":3,"time_out":false,"dwell_time":47.577880859375,"response_time":1709850966269.77},{"trial":7,"action":1,"button_pressed":9,"time_out":false,"dwell_time":30.81884765625,"response_time":1709850967302.74},{"trial":7,"action":9,"button_pressed":-1,"time_out":false,"dwell_time":64.68603515625,"response_time":1709850975567.53},{"trial":8,"action":1,"button_pressed":0,"time_out":false,"dwell_time":81.032958984375,"response_time":1709850992344.65},{"trial":8,"action":1,"button_pressed":4,"time_out":false,"dwell_time":63.844970703125,"response_time":1709850992727.33},{"trial":8,"action":1,"button_pressed":11,"time_out":false,"dwell_time":96.484130859375,"response_time":1709850993044.22},{"trial":8,"action":1,"button_pressed":3,"time_out":false,"dwell_time":80.531982421875,"response_time":1709850993394.57},{"trial":8,"action":1,"button_pressed":5,"time_out":false,"dwell_time":29.94384765625,"response_time":1709850993794.13},{"trial":8,"action":1,"button_pressed":7,"time_out":false,"dwell_time":63.60888671875,"response_time":1709850994144.34},{"trial":8,"action":9,"button_pressed":-1,"time_out":false,"dwell_time":47.385009765625,"response_time":1709850994960.85},{"trial":9,"action":1,"button_pressed":5,"time_out":false,"dwell_time":81.4951171875,"response_time":1709851014471.4},{"trial":9,"action":1,"button_pressed":3,"time_out":false,"dwell_time":97.183837890625,"response_time":1709851014820.94},{"trial":9,"action":1,"button_pressed":8,"time_out":false,"dwell_time":64.028076171875,"response_time":1709851015137.01},{"trial":9,"action":1,"button_pressed":11,"time_out":false,"dwell_time":46.47509765625,"response_time":1709851015403.71},{"trial":9,"action":1,"button_pressed":7,"time_out":false,"dwell_time":63.806884765625,"response_time":1709851015769.91},{"trial":9,"action":1,"button_pressed":4,"time_out":false,"dwell_time":47.226806640625,"response_time":1709851016086.96},{"trial":9,"action":1,"button_pressed":10,"time_out":false,"dwell_time":47.382080078125,"response_time":1709851016603.91},{"trial":9,"action":9,"button_pressed":-1,"time_out":false,"dwell_time":30.830078125,"response_time":1709851017320.13},{"trial":10,"action":1,"button_pressed":10,"time_out":false,"dwell_time":81.155029296875,"response_time":1709851039746.33},{"trial":10,"action":1,"button_pressed":2,"time_out":false,"dwell_time":97.83984375,"response_time":1709851040079.26},{"trial":10,"action":1,"button_pressed":1,"time_out":false,"dwell_time":14.177001953125,"response_time":1709851041211.75},{"trial":10,"action":1,"button_pressed":9,"time_out":false,"dwell_time":63.382080078125,"response_time":1709851042244.48},{"trial":10,"action":1,"button_pressed":8,"time_out":false,"dwell_time":63.679931640625,"response_time":1709851042561.81},{"trial":10,"action":1,"button_pressed":11,"time_out":false,"dwell_time":114.618896484375,"response_time":1709851044494.6},{"trial":10,"action":1,"button_pressed":5,"time_out":false,"dwell_time":48.222900390625,"response_time":1709851044611.71},{"trial":10,"action":1,"button_pressed":4,"time_out":false,"dwell_time":30.795166015625,"response_time":1709851045910.46},{"trial":10,"action":9,"button_pressed":-1,"time_out":false,"dwell_time":47.666015625,"response_time":1709851046160.98},{"trial":11,"action":1,"button_pressed":1,"time_out":false,"dwell_time":64.217041015625,"response_time":1709851068053.08},{"trial":11,"action":1,"button_pressed":10,"time_out":false,"dwell_time":47.087890625,"response_time":1709851068386.93},{"trial":11,"action":1,"button_pressed":2,"time_out":false,"dwell_time":65.941162109375,"response_time":1709851068802.58},{"trial":11,"action":1,"button_pressed":0,"time_out":false,"dwell_time":79.697998046875,"response_time":1709851069135.88},{"trial":11,"action":1,"button_pressed":2,"time_out":false,"dwell_time":63.848876953125,"response_time":1709851069936.31},{"trial":11,"action":0,"button_pressed":-1,"time_out":false,"dwell_time":63.9560546875,"response_time":1709851070702.77},{"trial":11,"action":1,"button_pressed":1,"time_out":false,"dwell_time":64.2880859375,"response_time":1709851071269.05},{"trial":11,"action":1,"button_pressed":10,"time_out":false,"dwell_time":63.44482421875,"response_time":1709851071502.52},{"trial":11,"action":1,"button_pressed":0,"time_out":false,"dwell_time":64.765869140625,"response_time":1709851072768.79},{"trial":11,"action":1,"button_pressed":2,"time_out":false,"dwell_time":81.320068359375,"response_time":1709851073052.09},{"trial":11,"action":1,"button_pressed":7,"time_out":false,"dwell_time":80.44091796875,"response_time":1709851073567.83},{"trial":11,"action":1,"button_pressed":4,"time_out":false,"dwell_time":64.294921875,"response_time":1709851077650.3},{"trial":11,"action":1,"button_pressed":9,"time_out":false,"dwell_time":13.180908203125,"response_time":1709851078066.01},{"trial":11,"action":1,"button_pressed":3,"time_out":false,"dwell_time":47.794189453125,"response_time":1709851078434.29},{"trial":11,"action":9,"button_pressed":-1,"time_out":false,"dwell_time":80.4609375,"response_time":1709851079183.36}]}