{"meta_data":{"additional_headers":{},"game_name":"Recollect","version":"2.53.01","user_name":"17","organization":"braingamecenter","study":"mpl2_2022_11","session_number":0,"device_id":"74342D95-EE82-45E3-8ADF-48FB3203C5DD"},"data":[{"stage":"Practice","trial":0,"sequence":"6F","letter_input":"F","number_input":"6","is_correct":true,"presentation_start_time":1676405466488.36,"presentation_end_time":1676405469488.66,"response_time":1676405477587.67},{"stage":"Practice","trial":1,"sequence":"G4","letter_input":"G","number_input":"4","is_correct":true,"presentation_start_time":1676405479117.39,"presentation_end_time":1676405482117.68,"response_time":1676405485465.46},{"stage":"Practice","trial":2,"sequence":"3W5","letter_input":"W","number_input":"35","is_correct":true,"presentation_start_time":1676405486998.17,"presentation_end_time":1676405491497.93,"response_time":1676405495495.45},{"stage":"Practice","trial":3,"sequence":"T7L","letter_input":"LT","number_input":"7","is_correct":true,"presentation_start_time":1676405497028.16,"presentation_end_time":1676405501527.81,"response_time":1676405506625.09},{"stage":"Practice","trial":4,"sequence":"9J1","letter_input":"J","number_input":"19","is_correct":true,"presentation_start_time":1676405508157.79,"presentation_end_time":1676405512657.68,"response_time":1676405516355.19},{"stage":"Calibration","trial":0,"sequence":"Q5","letter_input":"Q","number_input":"5","is_correct":true,"presentation_start_time":1676405526568.36,"presentation_end_time":1676405529568.54,"response_time":1676405533432.73},{"stage":"Calibration","trial":1,"sequence":"8F","letter_input":"F","number_input":"8","is_correct":true,"presentation_start_time":1676405534965.5,"presentation_end_time":1676405537965.75,"response_time":1676405542263.14},{"stage":"Calibration","trial":2,"sequence":"V3L","letter_input":"LV","number_input":"3","is_correct":true,"presentation_start_time":1676405543795.9,"presentation_end_time":1676405548295.64,"response_time":1676405552909.63},{"stage":"Calibration","trial":3,"sequence":"6H2","letter_input":"H","number_input":"26","is_correct":true,"presentation_start_time":1676405554442.33,"presentation_end_time":1676405558942.01,"response_time":1676405562189.81},{"stage":"Calibration","trial":4,"sequence":"T4F1","letter_input":"FT","number_input":"14","is_correct":true,"presentation_start_time":1676405563722.57,"presentation_end_time":1676405569721.77,"response_time":1676405577618.03},{"stage":"Calibration","trial":5,"sequence":"8Z3W","letter_input":"WZ","number_input":"38","is_correct":true,"presentation_start_time":1676405579150.79,"presentation_end_time":1676405585150.02,"response_time":1676405597928.01},{"stage":"Calibration","trial":6,"sequence":"B6H2F","letter_input":"BFH","number_input":"26","is_correct":true,"presentation_start_time":1676405599460.67,"presentation_end_time":1676405606959.42,"response_time":1676405619703.93},{"stage":"Calibration","trial":7,"sequence":"8V5S3","letter_input":"SV","number_input":"358","is_correct":true,"presentation_start_time":1676405621236.67,"presentation_end_time":1676405628735.37,"response_time":1676405633232.81},{"stage":"Calibration","trial":8,"sequence":"F4D1L6","letter_input":"DFL","number_input":"146","is_correct":true,"presentation_start_time":1676405634765.53,"presentation_end_time":1676405643763.78,"response_time":1676405658841.05},{"stage":"Calibration","trial":9,"sequence":"3Y9M7K","letter_input":"KMY","number_input":"379","is_correct":true,"presentation_start_time":1676405660373.71,"presentation_end_time":1676405669371.94,"response_time":1676405685382.13},{"stage":"Calibration","trial":10,"sequence":"N1E8S4A","letter_input":"AENS","number_input":"148","is_correct":true,"presentation_start_time":1676405686914.81,"presentation_end_time":1676405697412.62,"response_time":1676405724069.32},{"stage":"Calibration","trial":11,"sequence":"6W3Q9Z7","letter_input":"QWZ","number_input":"3679","is_correct":true,"presentation_start_time":1676405725601.95,"presentation_end_time":1676405736099.7,"response_time":1676405774852.33},{"stage":"Calibration","trial":12,"sequence":"L1A4V3D8","letter_input":"ALZ","number_input":"1478","is_correct":false,"presentation_start_time":1676405776384.99,"presentation_end_time":1676405788382.37,"response_time":1676405810923.61},{"stage":"Calibration","trial":13,"sequence":"7B5Z9N2K","letter_input":"BNQZ","number_input":"2579","is_correct":false,"presentation_start_time":1676405812456.31,"presentation_end_time":1676405824453.47,"response_time":1676405866288.45}]}