{"meta_data":{"additional_headers":{},"game_name":"Recollect","version":"2.53.01","user_name":"17","organization":"braingamecenter","study":"mpl2_2022_11","session_number":0,"device_id":"74342D95-EE82-45E3-8ADF-48FB3203C5DD"},"data":[{"trial":0,"action":1,"button_pressed":7,"time_out":false,"dwell_time":48.89990234375,"response_time":1676405203661.27},{"trial":0,"action":1,"button_pressed":4,"time_out":false,"dwell_time":31.68212890625,"response_time":1676405204127.06},{"trial":0,"action":9,"button_pressed":-1,"time_out":false,"dwell_time":60.008056640625,"response_time":1676405204771.99},{"trial":1,"action":1,"button_pressed":7,"time_out":false,"dwell_time":65.468017578125,"response_time":1676405214290.86},{"trial":1,"action":1,"button_pressed":3,"time_out":false,"dwell_time":47.550048828125,"response_time":1676405214656.87},{"trial":1,"action":1,"button_pressed":2,"time_out":false,"dwell_time":48.381103515625,"response_time":1676405215006.73},{"trial":1,"action":9,"button_pressed":-1,"time_out":false,"dwell_time":31.51611328125,"response_time":1676405215407.26},{"trial":2,"action":1,"button_pressed":9,"time_out":false,"dwell_time":48.39404296875,"response_time":1676405227252.74},{"trial":2,"action":1,"button_pressed":11,"time_out":false,"dwell_time":81.9619140625,"response_time":1676405227552.86},{"trial":2,"action":1,"button_pressed":8,"time_out":false,"dwell_time":47.307861328125,"response_time":1676405228035.73},{"trial":2,"action":1,"button_pressed":0,"time_out":false,"dwell_time":47.4560546875,"response_time":1676405228452.22},{"trial":2,"action":9,"button_pressed":-1,"time_out":false,"dwell_time":48.593994140625,"response_time":1676405229336.38},{"trial":3,"action":1,"button_pressed":1,"time_out":false,"dwell_time":48.4140625,"response_time":1676405245397.45},{"trial":3,"action":1,"button_pressed":10,"time_out":false,"dwell_time":65.181884765625,"response_time":1676405245963.35},{"trial":3,"action":1,"button_pressed":0,"time_out":false,"dwell_time":31.577880859375,"response_time":1676405246446.97},{"trial":3,"action":1,"button_pressed":9,"time_out":false,"dwell_time":48.988037109375,"response_time":1676405246813.54},{"trial":3,"action":1,"button_pressed":5,"time_out":false,"dwell_time":31.467041015625,"response_time":1676405247246.6},{"trial":3,"action":9,"button_pressed":-1,"time_out":false,"dwell_time":16.8662109375,"response_time":1676405248195.46},{"trial":4,"action":1,"button_pressed":3,"time_out":false,"dwell_time":49.14404296875,"response_time":1676405265340.67},{"trial":4,"action":1,"button_pressed":7,"time_out":false,"dwell_time":30.89990234375,"response_time":1676405265623.28},{"trial":4,"action":1,"button_pressed":4,"time_out":false,"dwell_time":31.594970703125,"response_time":1676405266156.22},{"trial":4,"action":1,"button_pressed":10,"time_out":false,"dwell_time":48.89990234375,"response_time":1676405266456.94},{"trial":4,"action":1,"button_pressed":2,"time_out":false,"dwell_time":30.837158203125,"response_time":1676405266889.35},{"trial":4,"action":1,"button_pressed":9,"time_out":false,"dwell_time":48.780029296875,"response_time":1676405267239.89},{"trial":4,"action":9,"button_pressed":-1,"time_out":false,"dwell_time":32.1591796875,"response_time":1676405267939.73},{"trial":5,"action":1,"button_pressed":6,"time_out":false,"dwell_time":48.203125,"response_time":1676405287365.98},{"trial":5,"action":1,"button_pressed":10,"time_out":false,"dwell_time":48.064208984375,"response_time":1676405287682.48},{"trial":5,"action":1,"button_pressed":11,"time_out":false,"dwell_time":48.82177734375,"response_time":1676405288016.35},{"trial":5,"action":1,"button_pressed":4,"time_out":false,"dwell_time":30.7890625,"response_time":1676405288382.37},{"trial":5,"action":1,"button_pressed":8,"time_out":false,"dwell_time":48.0849609375,"response_time":1676405288699.52},{"trial":5,"action":1,"button_pressed":3,"time_out":false,"dwell_time":31.760986328125,"response_time":1676405288998.84},{"trial":5,"action":1,"button_pressed":5,"time_out":false,"dwell_time":31.8291015625,"response_time":1676405289316.22},{"trial":5,"action":9,"button_pressed":-1,"time_out":false,"dwell_time":98.20703125,"response_time":1676405290698.17},{"trial":6,"action":1,"button_pressed":2,"time_out":false,"dwell_time":48.14990234375,"response_time":1676405312607.56},{"trial":6,"action":1,"button_pressed":6,"time_out":false,"dwell_time":48.199951171875,"response_time":1676405313807.13},{"trial":6,"action":1,"button_pressed":11,"time_out":false,"dwell_time":64.35693359375,"response_time":1676405314356.43},{"trial":6,"action":1,"button_pressed":5,"time_out":false,"dwell_time":81.8388671875,"response_time":1676405315173.54},{"trial":6,"action":1,"button_pressed":0,"time_out":false,"dwell_time":65.20703125,"response_time":1676405315856.7},{"trial":6,"action":1,"button_pressed":10,"time_out":false,"dwell_time":65.65185546875,"response_time":1676405316356.51},{"trial":6,"action":1,"button_pressed":3,"time_out":false,"dwell_time":48.22900390625,"response_time":1676405317006.05},{"trial":6,"action":9,"button_pressed":-1,"time_out":false,"dwell_time":32.5419921875,"response_time":1676405318390.73},{"trial":7,"action":1,"button_pressed":8,"time_out":false,"dwell_time":64.5830078125,"response_time":1676405342797.18},{"trial":7,"action":1,"button_pressed":9,"time_out":false,"dwell_time":48.819091796875,"response_time":1676405343048.02},{"trial":7,"action":1,"button_pressed":10,"time_out":false,"dwell_time":31.421875,"response_time":1676405343414},{"trial":7,"action":1,"button_pressed":2,"time_out":false,"dwell_time":30.77392578125,"response_time":1676405343813.66},{"trial":7,"action":1,"button_pressed":6,"time_out":false,"dwell_time":47.301025390625,"response_time":1676405344196.96},{"trial":7,"action":1,"button_pressed":1,"time_out":false,"dwell_time":47.465087890625,"response_time":1676405344596.76},{"trial":7,"action":1,"button_pressed":4,"time_out":false,"dwell_time":63.798095703125,"response_time":1676405347412.2},{"trial":7,"action":1,"button_pressed":5,"time_out":false,"dwell_time":47.550048828125,"response_time":1676405347812.49},{"trial":7,"action":9,"button_pressed":-1,"time_out":false,"dwell_time":14.56982421875,"response_time":1676405348596},{"trial":8,"action":1,"button_pressed":0,"time_out":false,"dwell_time":65.39404296875,"response_time":1676405366473.43},{"trial":8,"action":1,"button_pressed":4,"time_out":false,"dwell_time":48.906982421875,"response_time":1676405366740.21},{"trial":8,"action":1,"button_pressed":11,"time_out":false,"dwell_time":81.534912109375,"response_time":1676405367106.5},{"trial":8,"action":1,"button_pressed":3,"time_out":false,"dwell_time":47.89892578125,"response_time":1676405367473.33},{"trial":8,"action":1,"button_pressed":5,"time_out":false,"dwell_time":47.510009765625,"response_time":1676405368389.01},{"trial":8,"action":1,"button_pressed":7,"time_out":false,"dwell_time":48.26611328125,"response_time":1676405368939.8},{"trial":8,"action":9,"button_pressed":-1,"time_out":false,"dwell_time":65.737060546875,"response_time":1676405369506.14},{"trial":9,"action":1,"button_pressed":0,"time_out":false,"dwell_time":98.5380859375,"response_time":1676405389215.69},{"trial":9,"action":1,"button_pressed":4,"time_out":false,"dwell_time":81.698974609375,"response_time":1676405389598.8},{"trial":9,"action":1,"button_pressed":10,"time_out":false,"dwell_time":64.364990234375,"response_time":1676405389965.45},{"trial":9,"action":1,"button_pressed":3,"time_out":false,"dwell_time":48.22900390625,"response_time":1676405390298.42},{"trial":9,"action":1,"button_pressed":5,"time_out":false,"dwell_time":64.593994140625,"response_time":1676405390765.35},{"trial":9,"action":1,"button_pressed":5,"time_out":false,"dwell_time":48.8740234375,"response_time":1676405392231.75},{"trial":9,"action":0,"button_pressed":-1,"time_out":false,"dwell_time":63.773193359375,"response_time":1676405394580.02},{"trial":9,"action":1,"button_pressed":0,"time_out":false,"dwell_time":64.2080078125,"response_time":1676405401094.34},{"trial":9,"action":1,"button_pressed":10,"time_out":false,"dwell_time":47.010009765625,"response_time":1676405401910.97},{"trial":9,"action":1,"button_pressed":5,"time_out":false,"dwell_time":48.09912109375,"response_time":1676405402311.66},{"trial":9,"action":1,"button_pressed":4,"time_out":false,"dwell_time":47.741943359375,"response_time":1676405402794.54},{"trial":9,"action":1,"button_pressed":1,"time_out":false,"dwell_time":64.308837890625,"response_time":1676405407709.39},{"trial":9,"action":1,"button_pressed":3,"time_out":false,"dwell_time":47.948974609375,"response_time":1676405408359.69},{"trial":9,"action":9,"button_pressed":-1,"time_out":false,"dwell_time":32.110107421875,"response_time":1676405408726.34},{"trial":10,"action":1,"button_pressed":11,"time_out":false,"dwell_time":63.85302734375,"response_time":1676405428552.33},{"trial":10,"action":1,"button_pressed":4,"time_out":false,"dwell_time":48.137939453125,"response_time":1676405429019.48},{"trial":10,"action":1,"button_pressed":3,"time_out":false,"dwell_time":48.06103515625,"response_time":1676405429285.92},{"trial":10,"action":1,"button_pressed":8,"time_out":false,"dwell_time":81.591064453125,"response_time":1676405430568.78},{"trial":10,"action":1,"button_pressed":2,"time_out":false,"dwell_time":81.15283203125,"response_time":1676405431018.43},{"trial":10,"action":1,"button_pressed":10,"time_out":false,"dwell_time":80.281005859375,"response_time":1676405431750.78},{"trial":10,"action":1,"button_pressed":1,"time_out":false,"dwell_time":64.4501953125,"response_time":1676405432118.01},{"trial":10,"action":9,"button_pressed":-1,"time_out":false,"dwell_time":148.404052734375,"response_time":1676405436633.6}]}