{"meta_data":{"additional_headers":{},"game_name":"Recollect","version":"2.53.01","user_name":"180","organization":"braingamecenter","study":"mpl2_2022_11","session_number":0,"device_id":"74342D95-EE82-45E3-8ADF-48FB3203C5DD"},"data":[{"trial":0,"action":1,"button_pressed":9,"time_out":false,"dwell_time":46.861083984375,"response_time":1709929799760.01},{"trial":0,"action":1,"button_pressed":1,"time_out":false,"dwell_time":46.910888671875,"response_time":1709929800259.78},{"trial":0,"action":9,"button_pressed":-1,"time_out":false,"dwell_time":58.466064453125,"response_time":1709929800820.23},{"trial":1,"action":1,"button_pressed":7,"time_out":false,"dwell_time":47.748046875,"response_time":1709929810389.82},{"trial":1,"action":1,"button_pressed":3,"time_out":false,"dwell_time":47.385986328125,"response_time":1709929810856.87},{"trial":1,"action":1,"button_pressed":2,"time_out":false,"dwell_time":63.669189453125,"response_time":1709929811322.87},{"trial":1,"action":9,"button_pressed":-1,"time_out":false,"dwell_time":48.248046875,"response_time":1709929811773.08},{"trial":2,"action":1,"button_pressed":11,"time_out":false,"dwell_time":47.6572265625,"response_time":1709929823835.49},{"trial":2,"action":1,"button_pressed":0,"time_out":false,"dwell_time":63.875,"response_time":1709929824301.4},{"trial":2,"action":1,"button_pressed":4,"time_out":false,"dwell_time":47.43212890625,"response_time":1709929824668.29},{"trial":2,"action":1,"button_pressed":1,"time_out":false,"dwell_time":48.218017578125,"response_time":1709929825152.27},{"trial":2,"action":9,"button_pressed":-1,"time_out":false,"dwell_time":81.950927734375,"response_time":1709929825602.2},{"trial":3,"action":1,"button_pressed":0,"time_out":false,"dwell_time":64,"response_time":1709929839896.35},{"trial":3,"action":1,"button_pressed":7,"time_out":false,"dwell_time":47.23193359375,"response_time":1709929840363.99},{"trial":3,"action":1,"button_pressed":10,"time_out":false,"dwell_time":64.3291015625,"response_time":1709929840813.33},{"trial":3,"action":1,"button_pressed":4,"time_out":false,"dwell_time":97.966064453125,"response_time":1709929841263.31},{"trial":3,"action":1,"button_pressed":1,"time_out":false,"dwell_time":47.549072265625,"response_time":1709929841696.77},{"trial":3,"action":9,"button_pressed":-1,"time_out":false,"dwell_time":64.49609375,"response_time":1709929843495.52},{"trial":4,"action":1,"button_pressed":1,"time_out":false,"dwell_time":64.7919921875,"response_time":1709929860340.46},{"trial":4,"action":1,"button_pressed":9,"time_out":false,"dwell_time":29.887939453125,"response_time":1709929860773.08},{"trial":4,"action":1,"button_pressed":5,"time_out":false,"dwell_time":63.862060546875,"response_time":1709929861239.25},{"trial":4,"action":1,"button_pressed":7,"time_out":false,"dwell_time":31.325927734375,"response_time":1709929861723.5},{"trial":4,"action":1,"button_pressed":6,"time_out":false,"dwell_time":30.659912109375,"response_time":1709929862173.34},{"trial":4,"action":1,"button_pressed":2,"time_out":false,"dwell_time":63.781982421875,"response_time":1709929862739.39},{"trial":4,"action":9,"button_pressed":-1,"time_out":false,"dwell_time":65.1669921875,"response_time":1709929863222.98},{"trial":5,"action":1,"button_pressed":8,"time_out":false,"dwell_time":63.81005859375,"response_time":1709929880716.47},{"trial":5,"action":1,"button_pressed":0,"time_out":false,"dwell_time":63.48291015625,"response_time":1709929881399.81},{"trial":5,"action":1,"button_pressed":1,"time_out":false,"dwell_time":63.5859375,"response_time":1709929881949.74},{"trial":5,"action":1,"button_pressed":9,"time_out":false,"dwell_time":48.130126953125,"response_time":1709929882483.58},{"trial":5,"action":1,"button_pressed":3,"time_out":false,"dwell_time":63.64794921875,"response_time":1709929882998.74},{"trial":5,"action":1,"button_pressed":5,"time_out":false,"dwell_time":96.55908203125,"response_time":1709929883398.81},{"trial":5,"action":9,"button_pressed":-1,"time_out":false,"dwell_time":48.947998046875,"response_time":1709929883833.45},{"trial":6,"action":1,"button_pressed":10,"time_out":false,"dwell_time":47.698974609375,"response_time":1709929903426.85},{"trial":6,"action":1,"button_pressed":1,"time_out":false,"dwell_time":46.785888671875,"response_time":1709929903809.03},{"trial":6,"action":1,"button_pressed":2,"time_out":false,"dwell_time":63.447998046875,"response_time":1709929904308.39},{"trial":6,"action":1,"button_pressed":7,"time_out":false,"dwell_time":47.097900390625,"response_time":1709929904975.27},{"trial":6,"action":1,"button_pressed":6,"time_out":false,"dwell_time":47.941162109375,"response_time":1709929905375.84},{"trial":6,"action":1,"button_pressed":0,"time_out":false,"dwell_time":48.30810546875,"response_time":1709929905775.84},{"trial":6,"action":1,"button_pressed":4,"time_out":false,"dwell_time":48.0869140625,"response_time":1709929906092.21},{"trial":6,"action":9,"button_pressed":-1,"time_out":false,"dwell_time":48.171142578125,"response_time":1709929906558.54},{"trial":7,"action":1,"button_pressed":5,"time_out":false,"dwell_time":47.91796875,"response_time":1709929928584.5},{"trial":7,"action":1,"button_pressed":7,"time_out":false,"dwell_time":46.737060546875,"response_time":1709929929150.74},{"trial":7,"action":1,"button_pressed":4,"time_out":false,"dwell_time":63.830078125,"response_time":1709929929566.92},{"trial":7,"action":1,"button_pressed":3,"time_out":false,"dwell_time":63.011962890625,"response_time":1709929929949.96},{"trial":7,"action":1,"button_pressed":1,"time_out":false,"dwell_time":64.194091796875,"response_time":1709929930333.79},{"trial":7,"action":1,"button_pressed":10,"time_out":false,"dwell_time":47.0361328125,"response_time":1709929931000.02},{"trial":7,"action":1,"button_pressed":9,"time_out":false,"dwell_time":47.2529296875,"response_time":1709929932066.34},{"trial":7,"action":1,"button_pressed":8,"time_out":false,"dwell_time":48.09716796875,"response_time":1709929932517.05},{"trial":7,"action":9,"button_pressed":-1,"time_out":false,"dwell_time":48.14306640625,"response_time":1709929933083.27},{"trial":8,"action":1,"button_pressed":1,"time_out":false,"dwell_time":63.1181640625,"response_time":1709929956341.57},{"trial":8,"action":1,"button_pressed":10,"time_out":false,"dwell_time":63.555908203125,"response_time":1709929956891.89},{"trial":8,"action":1,"button_pressed":0,"time_out":false,"dwell_time":80.400146484375,"response_time":1709929957607.62},{"trial":8,"action":1,"button_pressed":2,"time_out":false,"dwell_time":62.903076171875,"response_time":1709929958074.12},{"trial":8,"action":1,"button_pressed":7,"time_out":false,"dwell_time":46.649169921875,"response_time":1709929958591.06},{"trial":8,"action":1,"button_pressed":3,"time_out":false,"dwell_time":48.106201171875,"response_time":1709929959124.88},{"trial":8,"action":1,"button_pressed":4,"time_out":false,"dwell_time":47.5830078125,"response_time":1709929959591.55},{"trial":8,"action":1,"button_pressed":9,"time_out":false,"dwell_time":47.3017578125,"response_time":1709929959941.21},{"trial":8,"action":9,"button_pressed":-1,"time_out":false,"dwell_time":31.551025390625,"response_time":1709929960591.55},{"trial":9,"action":1,"button_pressed":11,"time_out":false,"dwell_time":47.861083984375,"response_time":1709929978685.44},{"trial":9,"action":1,"button_pressed":8,"time_out":false,"dwell_time":46.902099609375,"response_time":1709929979301.25},{"trial":9,"action":1,"button_pressed":4,"time_out":false,"dwell_time":163.7021484375,"response_time":1709929980684.2},{"trial":9,"action":1,"button_pressed":3,"time_out":false,"dwell_time":114.43115234375,"response_time":1709929982283.56},{"trial":9,"action":1,"button_pressed":1,"time_out":false,"dwell_time":113.625,"response_time":1709929983299.88},{"trial":9,"action":1,"button_pressed":9,"time_out":false,"dwell_time":30.454833984375,"response_time":1709929983850.08},{"trial":9,"action":9,"button_pressed":-1,"time_out":false,"dwell_time":13.2041015625,"response_time":1709929984781.99},{"trial":10,"action":1,"button_pressed":3,"time_out":false,"dwell_time":64.14794921875,"response_time":1709930001694},{"trial":10,"action":1,"button_pressed":7,"time_out":false,"dwell_time":63.515869140625,"response_time":1709930002092.89},{"trial":10,"action":1,"button_pressed":4,"time_out":false,"dwell_time":30.942138671875,"response_time":1709930002527.3},{"trial":10,"action":1,"button_pressed":10,"time_out":false,"dwell_time":30.85498046875,"response_time":1709930002909.86},{"trial":10,"action":1,"button_pressed":2,"time_out":false,"dwell_time":47.467041015625,"response_time":1709930003392.89},{"trial":10,"action":1,"button_pressed":9,"time_out":false,"dwell_time":30.333984375,"response_time":1709930003826.39},{"trial":10,"action":9,"button_pressed":-1,"time_out":false,"dwell_time":65.093994140625,"response_time":1709930004393.23},{"trial":11,"action":1,"button_pressed":1,"time_out":false,"dwell_time":47.950927734375,"response_time":1709930024087.17},{"trial":11,"action":1,"button_pressed":9,"time_out":false,"dwell_time":80.317138671875,"response_time":1709930024486.33},{"trial":11,"action":1,"button_pressed":7,"time_out":false,"dwell_time":47.305908203125,"response_time":1709930024853.33},{"trial":11,"action":1,"button_pressed":2,"time_out":false,"dwell_time":63.843994140625,"response_time":1709930025318.69},{"trial":11,"action":1,"button_pressed":5,"time_out":false,"dwell_time":63.638916015625,"response_time":1709930025702.42},{"trial":11,"action":1,"button_pressed":11,"time_out":false,"dwell_time":30.072021484375,"response_time":1709930026185.5},{"trial":11,"action":1,"button_pressed":6,"time_out":false,"dwell_time":48.100830078125,"response_time":1709930027035.9},{"trial":11,"action":9,"button_pressed":-1,"time_out":false,"dwell_time":48.8740234375,"response_time":1709930028735.79},{"trial":12,"action":1,"button_pressed":4,"time_out":false,"dwell_time":64.715087890625,"response_time":1709930048332.09},{"trial":12,"action":1,"button_pressed":2,"time_out":false,"dwell_time":46.54296875,"response_time":1709930048664.71},{"trial":12,"action":1,"button_pressed":6,"time_out":false,"dwell_time":47.455078125,"response_time":1709930049197.81},{"trial":12,"action":1,"button_pressed":8,"time_out":false,"dwell_time":64.36083984375,"response_time":1709930049597.72},{"trial":12,"action":1,"button_pressed":1,"time_out":false,"dwell_time":97.72705078125,"response_time":1709930050113.89},{"trial":12,"action":1,"button_pressed":9,"time_out":false,"dwell_time":62.841064453125,"response_time":1709930051328.95},{"trial":12,"action":1,"button_pressed":0,"time_out":false,"dwell_time":47.554931640625,"response_time":1709930054977.74},{"trial":12,"action":1,"button_pressed":0,"time_out":false,"dwell_time":30.448974609375,"response_time":1709930055759.85},{"trial":12,"action":1,"button_pressed":0,"time_out":false,"dwell_time":46.9150390625,"response_time":1709930056875.7},{"trial":12,"action":1,"button_pressed":0,"time_out":false,"dwell_time":64.48291015625,"response_time":1709930057425.63},{"trial":12,"action":1,"button_pressed":0,"time_out":false,"dwell_time":81.048828125,"response_time":1709930058441.68},{"trial":12,"action":1,"button_pressed":0,"time_out":false,"dwell_time":65.090087890625,"response_time":1709930058625.11},{"trial":12,"action":1,"button_pressed":0,"time_out":false,"dwell_time":64.544921875,"response_time":1709930058808.24},{"trial":12,"action":1,"button_pressed":0,"time_out":false,"dwell_time":63.762939453125,"response_time":1709930058974.84},{"trial":12,"action":0,"button_pressed":-1,"time_out":false,"dwell_time":80.68408203125,"response_time":1709930060423.9},{"trial":12,"action":1,"button_pressed":4,"time_out":false,"dwell_time":64.12890625,"response_time":1709930061140.31},{"trial":12,"action":1,"button_pressed":2,"time_out":false,"dwell_time":113.6591796875,"response_time":1709930062055.81},{"trial":12,"action":1,"button_pressed":1,"time_out":false,"dwell_time":31.296142578125,"response_time":1709930062806.52},{"trial":12,"action":1,"button_pressed":8,"time_out":false,"dwell_time":80.23193359375,"response_time":1709930063522.42},{"trial":12,"action":1,"button_pressed":9,"time_out":false,"dwell_time":80.06201171875,"response_time":1709930064205.33},{"trial":12,"action":1,"button_pressed":0,"time_out":false,"dwell_time":13.447021484375,"response_time":1709930065121.3},{"trial":12,"action":1,"button_pressed":3,"time_out":false,"dwell_time":29.968017578125,"response_time":1709930065604.31},{"trial":12,"action":9,"button_pressed":-1,"time_out":false,"dwell_time":49.0439453125,"response_time":1709930066905.18}]}