{"meta_data":{"additional_headers":{},"game_name":"Recollect","version":"2.53.01","user_name":"180","organization":"braingamecenter","study":"mpl2_2022_11","session_number":0,"device_id":"74342D95-EE82-45E3-8ADF-48FB3203C5DD"},"data":[{"stage":"Practice","trial":0,"sequence":"6F","letter_input":"F","number_input":"6","is_correct":true,"presentation_start_time":1709930090008.9,"presentation_end_time":1709930093011.91,"response_time":1709930098324.35},{"stage":"Practice","trial":1,"sequence":"G4","letter_input":"G","number_input":"4","is_correct":true,"presentation_start_time":1709930099855.44,"presentation_end_time":1709930102858.57,"response_time":1709930107236.27},{"stage":"Practice","trial":2,"sequence":"3W5","letter_input":"W","number_input":"35","is_correct":true,"presentation_start_time":1709930108769,"presentation_end_time":1709930113271.55,"response_time":1709930118732.33},{"stage":"Practice","trial":3,"sequence":"T7L","letter_input":"LT","number_input":"7","is_correct":true,"presentation_start_time":1709930120265.09,"presentation_end_time":1709930124767.66,"response_time":1709930132277.8},{"stage":"Practice","trial":4,"sequence":"9J1","letter_input":"J","number_input":"19","is_correct":true,"presentation_start_time":1709930133810.52,"presentation_end_time":1709930138313,"response_time":1709930144423.69},{"stage":"Calibration","trial":0,"sequence":"7R","letter_input":"R","number_input":"7","is_correct":true,"presentation_start_time":1709930151171.29,"presentation_end_time":1709930154174.26,"response_time":1709930157969.19},{"stage":"Calibration","trial":1,"sequence":"L2","letter_input":"L","number_input":"2","is_correct":true,"presentation_start_time":1709930159501.94,"presentation_end_time":1709930162505.07,"response_time":1709930166516.33},{"stage":"Calibration","trial":2,"sequence":"5D1","letter_input":"D","number_input":"15","is_correct":true,"presentation_start_time":1709930168049.01,"presentation_end_time":1709930172551.55,"response_time":1709930176996.2},{"stage":"Calibration","trial":3,"sequence":"W2A","letter_input":"AW","number_input":"2","is_correct":true,"presentation_start_time":1709930178528.9,"presentation_end_time":1709930183031.49,"response_time":1709930187709.21},{"stage":"Calibration","trial":4,"sequence":"8M3H","letter_input":"HM","number_input":"38","is_correct":true,"presentation_start_time":1709930189242,"presentation_end_time":1709930195244.02,"response_time":1709930202920.86},{"stage":"Calibration","trial":5,"sequence":"W9F5","letter_input":"FW","number_input":"59","is_correct":true,"presentation_start_time":1709930204453.5,"presentation_end_time":1709930210455.63,"response_time":1709930223730.56},{"stage":"Calibration","trial":6,"sequence":"2T8E4","letter_input":"FT","number_input":"284","is_correct":false,"presentation_start_time":1709930225263.25,"presentation_end_time":1709930232764.91,"response_time":1709930285343.36},{"stage":"Calibration","trial":7,"sequence":"D7Y5G","letter_input":"DGY","number_input":"57","is_correct":true,"presentation_start_time":1709930286876.03,"presentation_end_time":1709930294377.52,"response_time":1709930310451.56},{"stage":"Calibration","trial":8,"sequence":"6F1A8W","letter_input":"AFW","number_input":"156","is_correct":false,"presentation_start_time":1709930311984.27,"presentation_end_time":1709930320985.31,"response_time":1709930335626.45},{"stage":"Calibration","trial":9,"sequence":"D3R7H5","letter_input":"DHR","number_input":"357","is_correct":true,"presentation_start_time":1709930337159.33,"presentation_end_time":1709930346160.18,"response_time":1709930357902.39},{"stage":"Calibration","trial":10,"sequence":"8E6B4Q1","letter_input":"BEQ","number_input":"1468","is_correct":true,"presentation_start_time":1709930359435.13,"presentation_end_time":1709930369935.6,"response_time":1709930389125.27},{"stage":"Calibration","trial":11,"sequence":"W2C9Y7J","letter_input":"JQY","number_input":"279","is_correct":false,"presentation_start_time":1709930390657.99,"presentation_end_time":1709930401158.5,"response_time":1709930418132.25},{"stage":"Calibration","trial":12,"sequence":"8V5Q3H1B","letter_input":"BHQ","number_input":"178","is_correct":false,"presentation_start_time":1709930419664.96,"presentation_end_time":1709930431664.95,"response_time":1709930443207.18},{"stage":"Calibration","trial":13,"sequence":"D4W9S6K2","letter_input":"CKWY","number_input":"2469","is_correct":false,"presentation_start_time":1709930444739.87,"presentation_end_time":1709930456740,"response_time":1709930471597.91}]}