Audio_Only_Files,Video_Files,Original_Word_List,noiseLevelCode,conditionCodes,noiseLevelFile1,noiseLevelFile2,InstrTextVar,targetSpeakerName,targetSpeakerEccen,targetSpkrChannel,targetSpkrSound,targetVisualDegrees,visStimLoc,visStimLoc2,visStimW,visStimH,practiceTrials.thisRepN,practiceTrials.thisTrialN,practiceTrials.thisN,practiceTrials.thisIndex,trials.thisRepN,trials.thisTrialN,trials.thisN,trials.thisIndex,audLocalLoop.thisRepN,audLocalLoop.thisTrialN,audLocalLoop.thisN,audLocalLoop.thisIndex,visualLocalLoop.thisRepN,visualLocalLoop.thisTrialN,visualLocalLoop.thisN,visualLocalLoop.thisIndex,letsGoAlready.keys,letsGoAlready.rt,letsGoAlready.started,letsGoAlready.stopped,text_2.started,text_2.stopped,text_3.started,text_3.stopped,key_resp_2.keys,key_resp_2.rt,key_resp_2.started,key_resp_2.stopped,text_5.started,text_5.stopped,fixCross.started,fixCross.stopped,fixCross2.started,fixCross2.stopped,answerPrompt.started,answerPrompt.stopped,getAnswer.text,getAnswer.started,getAnswer.stopped,goToNext.keys,goToNext.rt,goToNext.started,goToNext.stopped,stretchBreakTxrt.started,stretchBreakTxrt.stopped,key_resp_3.keys,key_resp_3.rt,key_resp_3.started,key_resp_3.stopped,letsGoLocal.keys,letsGoLocal.rt,letsGoLocal.started,letsGoLocal.stopped,text_4.started,text_4.stopped,prepFixTxt.started,prepFixTxt.stopped,prepFixTxt_2.started,prepFixTxt_2.stopped,respPromptLocal.started,respPromptLocal.stopped,slider.response,slider.rt,slider.started,slider.stopped,letsGoLocal_2.keys,letsGoLocal_2.rt,letsGoLocal_2.started,letsGoLocal_2.stopped,text_7.started,text_7.stopped,prepFixTxt_3.started,prepFixTxt_3.stopped,grating.started,grating.stopped,exitTxt.started,exitTxt.stopped,key_resp.keys,key_resp.rt,key_resp.started,key_resp.stopped,participant,session,date,expName,psychopyVersion,frameRate,
,,,,,,,,,,,,,,,,,,,,,,,,,,,,,,,,,space,0.998946157284081,10.232054597698152,None,,,,,,,,,,,,,,,,,,,,,,,,,,,,,,,,,,,,,,,,,,,,,,,,,,,,,,,,,,,,,,180,001,2024_Mar_08_1346,SpeechDraft1Carolyn_lessNoise_PlusLocalization,2021.2.3,59.99406206519164,
,,,,,,,,,,,,,,,,,,,,,,,,,,,,,,,,,,,,,10.232054597698152,None,11.349975686520338,None,space,1.0748380711302161,11.532105405814946,None,,,,,,,,,,,,,,,,,,,,,,,,,,,,,,,,,,,,,,,,,,,,,,,,,,,,,,180,001,2024_Mar_08_1346,SpeechDraft1Carolyn_lessNoise_PlusLocalization,2021.2.3,59.99406206519164,
ash.wav,ash.mpg,ash,1,A,Pink_Noise_1_1.wav,Pink_Noise_1_2.wav,"This is an example of an

AUDIO trial",,,,,,,,,,0,0,0,0,,,,,,,,,,,,,,,,,,,,,,,,,12.649486074224114,None,13.64880961831659,None,15.731800485402346,None,17.11547379102558,None,ash,17.11547379102558,None,return,2.096231907606125,17.19880565162748,None,,,,,,,,,,,,,,,,,,,,,,,,,,,,,,,,,,,,,,,180,001,2024_Mar_08_1346,SpeechDraft1Carolyn_lessNoise_PlusLocalization,2021.2.3,59.99406206519164,
ash.wav,ash.mpg,ash,1,AV,Pink_Noise_1_1.wav,Pink_Noise_1_2.wav,"This is an example of an

AUDIO + VIDEO  trial",,,,,,,,,,0,1,1,1,,,,,,,,,,,,,,,,,,,,,,,,,19.331839486025274,None,20.332212475128472,None,21.815185653977096,None,23.21520448476076,None,ash,23.21520448476076,None,return,4.148825738579035,23.28224983252585,None,,,,,,,,,,,,,,,,,,,,,,,,,,,,,,,,,,,,,,,180,001,2024_Mar_08_1346,SpeechDraft1Carolyn_lessNoise_PlusLocalization,2021.2.3,59.99406206519164,
,,,,,,,,,,,,,,,,,,,,,,,,,,,,,,,,,,,,,,,,,,,,,,,,,,,,,,,,,,,,27.465115427039564,None,space,8.446000996045768,27.64895452093333,None,,,,,,,,,,,,,,,,,,,,,,,,,,,,,,,,,180,001,2024_Mar_08_1346,SpeechDraft1Carolyn_lessNoise_PlusLocalization,2021.2.3,59.99406206519164,
bald.wav,bald.mpg,bald,3,AV,Pink_Noise_3_1.wav,Pink_Noise_3_2.wav,,,,,,,,,,,,,,,0,0,0,100,,,,,,,,,,,,,,,,,,,,,,,36.14844583161175,None,37.63178769312799,None,39.01547456718981,None,bald,39.01547456718981,None,return,1.9800426997244358,39.09896334819496,None,,,,,,,,,,,,,,,,,,,,,,,,,,,,,,,,,,,,,,,180,001,2024_Mar_08_1346,SpeechDraft1Carolyn_lessNoise_PlusLocalization,2021.2.3,59.99406206519164,
clay.wav,clay.mpg,clay,1,AV,Pink_Noise_1_1.wav,Pink_Noise_1_2.wav,,,,,,,,,,,,,,,0,1,1,107,,,,,,,,,,,,,,,,,,,,,,,41.09897766914219,None,42.58330272976309,None,43.96543777175248,None,clay,43.96543777175248,None,return,3.094058506190777,44.048866061493754,None,,,,,,,,,,,,,,,,,,,,,,,,,,,,,,,,,,,,,,,180,001,2024_Mar_08_1346,SpeechDraft1Carolyn_lessNoise_PlusLocalization,2021.2.3,59.99406206519164,
dot.wav,dot.mpg,dot,1,AV,Pink_Noise_1_1.wav,Pink_Noise_1_2.wav,,,,,,,,,,,,,,,0,2,2,87,,,,,,,,,,,,,,,,,,,,,,,47.16564480960369,None,48.66525678988546,None,50.04873514641076,None,dot,50.04873514641076,None,return,1.35471008438617,50.132227967493236,None,,,,,,,,,,,,,,,,,,,,,,,,,,,,,,,,,,,,,,,180,001,2024_Mar_08_1346,SpeechDraft1Carolyn_lessNoise_PlusLocalization,2021.2.3,59.99406206519164,
dial.wav,dial.mpg,dial,6,AV,Pink_Noise_6_1.wav,Pink_Noise_6_2.wav,,,,,,,,,,,,,,,0,3,3,60,,,,,,,,,,,,,,,,,,,,,,,51.51553057041019,None,53.01515612285584,None,54.398860305547714,None,dire,54.398860305547714,None,return,6.58879713062197,54.48223591875285,None,,,,,,,,,,,,,,,,,,,,,,,,,,,,,,,,,,,,,,,180,001,2024_Mar_08_1346,SpeechDraft1Carolyn_lessNoise_PlusLocalization,2021.2.3,59.99406206519164,
brown.wav,brown.mpg,brown,2,A,Pink_Noise_2_1.wav,Pink_Noise_2_2.wav,,,,,,,,,,,,,,,0,4,4,37,,,,,,,,,,,,,,,,,,,,,,,61.09886202495545,None,62.58229954261333,None,63.965516342781484,None,brown,63.965516342781484,None,return,1.6780267050489783,64.04893392976373,None,,,,,,,,,,,,,,,,,,,,,,,,,,,,,,,,,,,,,,,180,001,2024_Mar_08_1346,SpeechDraft1Carolyn_lessNoise_PlusLocalization,2021.2.3,59.99406206519164,
brisk.wav,brisk.mpg,brisk,2,AV,Pink_Noise_2_1.wav,Pink_Noise_2_2.wav,,,,,,,,,,,,,,,0,5,5,117,,,,,,,,,,,,,,,,,,,,,,,65.74900385737419,None,67.24851691070944,None,68.63212640117854,None,brisk,68.63212640117854,None,return,1.5235270829871297,68.7155283568427,None,,,,,,,,,,,,,,,,,,,,,,,,,,,,,,,,,,,,,,,180,001,2024_Mar_08_1346,SpeechDraft1Carolyn_lessNoise_PlusLocalization,2021.2.3,59.99406206519164,
grind.wav,grind.mpg,grind,3,AV,Pink_Noise_3_1.wav,Pink_Noise_3_2.wav,,,,,,,,,,,,,,,0,6,6,105,,,,,,,,,,,,,,,,,,,,,,,70.26545523293316,None,71.74850786291063,None,73.13213725853711,None,grind,73.13213725853711,None,return,1.8235046518966556,73.21554751228541,None,,,,,,,,,,,,,,,,,,,,,,,,,,,,,,,,,,,,,,,180,001,2024_Mar_08_1346,SpeechDraft1Carolyn_lessNoise_PlusLocalization,2021.2.3,59.99406206519164,
flick.wav,flick.mpg,flick,3,AV,Pink_Noise_3_1.wav,Pink_Noise_3_2.wav,,,,,,,,,,,,,,,0,7,7,79,,,,,,,,,,,,,,,,,,,,,,,75.06553772184998,None,76.55019409861416,None,77.93223551195115,None,flick,77.93223551195115,None,return,1.711315929889679,78.01561835221946,None,,,,,,,,,,,,,,,,,,,,,,,,,,,,,,,,,,,,,,,180,001,2024_Mar_08_1346,SpeechDraft1Carolyn_lessNoise_PlusLocalization,2021.2.3,59.99406206519164,
buzz.wav,buzz.mpg,buzz,6,AV,Pink_Noise_6_1.wav,Pink_Noise_6_2.wav,,,,,,,,,,,,,,,0,8,8,62,,,,,,,,,,,,,,,,,,,,,,,79.74895249120891,None,81.23219359107316,None,82.61548192612827,None,buzz,82.61548192612827,None,return,3.2920426670461893,82.69890774507076,None,,,,,,,,,,,,,,,,,,,,,,,,,,,,,,,,,,,,,,,180,001,2024_Mar_08_1346,SpeechDraft1Carolyn_lessNoise_PlusLocalization,2021.2.3,59.99406206519164,
bee.wav,bee.mpg,bee,5,AV,Pink_Noise_5_1.wav,Pink_Noise_5_2.wav,,,,,,,,,,,,,,,0,9,9,104,,,,,,,,,,,,,,,,,,,,,,,86.01562127005309,None,87.51546577457339,None,88.898806495592,None,bee,88.898806495592,None,return,1.2327696653082967,88.98226779140532,None,,,,,,,,,,,,,,,,,,,,,,,,,,,,,,,,,,,,,,,180,001,2024_Mar_08_1346,SpeechDraft1Carolyn_lessNoise_PlusLocalization,2021.2.3,59.99406206519164,
gem.wav,gem.mpg,gem,5,AV,Pink_Noise_5_1.wav,Pink_Noise_5_2.wav,,,,,,,,,,,,,,,0,10,10,80,,,,,,,,,,,,,,,,,,,,,,,90.23233326058835,None,91.71527045127004,None,93.09875207301229,None,gem,93.09875207301229,None,return,1.392723973840475,93.18225725833327,None,,,,,,,,,,,,,,,,,,,,,,,,,,,,,,,,,,,,,,,180,001,2024_Mar_08_1346,SpeechDraft1Carolyn_lessNoise_PlusLocalization,2021.2.3,59.99406206519164,
clip.wav,clip.mpg,clip,6,A,Pink_Noise_6_1.wav,Pink_Noise_6_2.wav,,,,,,,,,,,,,,,0,11,11,25,,,,,,,,,,,,,,,,,,,,,,,94.59886534977704,None,96.09861293528229,None,97.48221610393375,None,"kick
",97.48221610393375,None,return,2.353400972671807,97.5655181966722,None,,,,,,,,,,,,,,,,,,,,,,,,,,,,,,,,,,,,,,,180,001,2024_Mar_08_1346,SpeechDraft1Carolyn_lessNoise_PlusLocalization,2021.2.3,59.99406206519164,
stain.wav,stain.mpg,stain,1,AV,Pink_Noise_1_1.wav,Pink_Noise_1_2.wav,,,,,,,,,,,,,,,0,12,12,111,,,,,,,,,,,,,,,,,,,,,,,99.94887832179666,None,101.44853098317981,None,102.83215984422714,None,stain,102.83215984422714,None,return,1.1635338384658098,102.91551010496914,None,,,,,,,,,,,,,,,,,,,,,,,,,,,,,,,,,,,,,,,180,001,2024_Mar_08_1346,SpeechDraft1Carolyn_lessNoise_PlusLocalization,2021.2.3,59.99406206519164,
dress.wav,dress.mpg,dress,6,A,Pink_Noise_6_1.wav,Pink_Noise_6_2.wav,,,,,,,,,,,,,,,0,13,13,16,,,,,,,,,,,,,,,,,,,,,,,104.09889510739595,None,105.5985717875883,None,106.98218631185591,None,wet,106.98218631185591,None,return,1.1333310175687075,107.06561563909054,None,,,,,,,,,,,,,,,,,,,,,,,,,,,,,,,,,,,,,,,180,001,2024_Mar_08_1346,SpeechDraft1Carolyn_lessNoise_PlusLocalization,2021.2.3,59.99406206519164,
fee.wav,fee.mpg,fee,2,A,Pink_Noise_2_1.wav,Pink_Noise_2_2.wav,,,,,,,,,,,,,,,0,14,14,46,,,,,,,,,,,,,,,,,,,,,,,108.21560838166624,None,109.71518541872501,None,111.09888532664627,None,flea,111.09888532664627,None,return,4.448760882951319,111.18229653313756,None,,,,,,,,,,,,,,,,,,,,,,,,,,,,,,,,,,,,,,,180,001,2024_Mar_08_1346,SpeechDraft1Carolyn_lessNoise_PlusLocalization,2021.2.3,59.99406206519164,
bill.wav,bill.mpg,bill,5,AV,Pink_Noise_5_1.wav,Pink_Noise_5_2.wav,,,,,,,,,,,,,,,0,15,15,118,,,,,,,,,,,,,,,,,,,,,,,115.64899314660579,None,117.14866946171969,None,118.5322462823242,None,"bill
",118.5322462823242,None,return,1.7673309845849872,118.61561349220574,None,,,,,,,,,,,,,,,,,,,,,,,,,,,,,,,,,,,,,,,180,001,2024_Mar_08_1346,SpeechDraft1Carolyn_lessNoise_PlusLocalization,2021.2.3,59.99406206519164,
budge.wav,budge.mpg,budge,1,A,Pink_Noise_1_1.wav,Pink_Noise_1_2.wav,,,,,,,,,,,,,,,0,16,16,40,,,,,,,,,,,,,,,,,,,,,,,120.41562352422625,None,121.91528829652816,None,123.29893155768514,None,budge,123.29893155768514,None,return,1.0327653530985117,123.38230056408793,None,,,,,,,,,,,,,,,,,,,,,,,,,,,,,,,,,,,,,,,180,001,2024_Mar_08_1346,SpeechDraft1Carolyn_lessNoise_PlusLocalization,2021.2.3,59.99406206519164,
fish.wav,fish.mpg,fish,3,AV,Pink_Noise_3_1.wav,Pink_Noise_3_2.wav,,,,,,,,,,,,,,,0,17,17,63,,,,,,,,,,,,,,,,,,,,,,,124.4322729697451,None,125.9319869345054,None,127.29890231601894,None,"fish
",127.29890231601894,None,return,1.184533393010497,127.38241130765527,None,,,,,,,,,,,,,,,,,,,,,,,,,,,,,,,,,,,,,,,180,001,2024_Mar_08_1346,SpeechDraft1Carolyn_lessNoise_PlusLocalization,2021.2.3,59.99406206519164,
carve.wav,carve.mpg,carve,4,AV,Pink_Noise_4_1.wav,Pink_Noise_4_2.wav,,,,,,,,,,,,,,,0,18,18,64,,,,,,,,,,,,,,,,,,,,,,,128.59893253352493,None,130.09889194276184,None,131.48223384376615,None,carve,131.48223384376615,None,return,1.361304173246026,131.56562810298055,None,,,,,,,,,,,,,,,,,,,,,,,,,,,,,,,,,,,,,,,180,001,2024_Mar_08_1346,SpeechDraft1Carolyn_lessNoise_PlusLocalization,2021.2.3,59.99406206519164,
coin.wav,coin.mpg,coin,4,A,Pink_Noise_4_1.wav,Pink_Noise_4_2.wav,,,,,,,,,,,,,,,0,19,19,54,,,,,,,,,,,,,,,,,,,,,,,132.94892676081508,None,134.43322519306093,None,135.8156360089779,None,coin,135.8156360089779,None,return,2.7400709660723805,135.89895067270845,None,,,,,,,,,,,,,,,,,,,,,,,,,,,,,,,,,,,,,,,180,001,2024_Mar_08_1346,SpeechDraft1Carolyn_lessNoise_PlusLocalization,2021.2.3,59.99406206519164,
flog.wav,flog.mpg,flog,5,A,Pink_Noise_5_1.wav,Pink_Noise_5_2.wav,,,,,,,,,,,,,,,0,20,20,33,,,,,,,,,,,,,,,,,,,,,,,138.6656424785033,None,140.14879800286144,None,141.53225395083427,None,join,141.53225395083427,None,return,3.8473631413653493,141.6155693270266,None,,,,,,,,,,,,,,,,,,,,,,,,,,,,,,,,,,,,,,,180,001,2024_Mar_08_1346,SpeechDraft1Carolyn_lessNoise_PlusLocalization,2021.2.3,59.99406206519164,
dump.wav,dump.mpg,dump,4,A,Pink_Noise_4_1.wav,Pink_Noise_4_2.wav,,,,,,,,,,,,,,,0,21,21,26,,,,,,,,,,,,,,,,,,,,,,,145.48229506332427,None,146.9820597684011,None,148.36568443384022,None,dpve,148.36568443384022,None,return,0.9421643195673823,148.44892979692668,None,,,,,,,,,,,,,,,,,,,,,,,,,,,,,,,,,,,,,,,180,001,2024_Mar_08_1346,SpeechDraft1Carolyn_lessNoise_PlusLocalization,2021.2.3,59.99406206519164,
rod.wav,rod.mpg,rod,3,A,Pink_Noise_3_1.wav,Pink_Noise_3_2.wav,,,,,,,,,,,,,,,0,22,22,53,,,,,,,,,,,,,,,,,,,,,,,149.41566416434944,None,150.89956230018288,None,152.28237651102245,None,"plaid
",152.28237651102245,None,return,5.18525055795908,152.36568604968488,None,,,,,,,,,,,,,,,,,,,,,,,,,,,,,,,,,,,,,,,180,001,2024_Mar_08_1346,SpeechDraft1Carolyn_lessNoise_PlusLocalization,2021.2.3,59.99406206519164,
earth.wav,earth.mpg,earth,5,A,Pink_Noise_5_1.wav,Pink_Noise_5_2.wav,,,,,,,,,,,,,,,0,23,23,39,,,,,,,,,,,,,,,,,,,,,,,157.58246173802763,None,159.0820593899116,None,160.46567472349852,None,goat,160.46567472349852,None,return,2.130035102367401,160.5490176687017,None,,,,,,,,,,,,,,,,,,,,,,,,,,,,,,,,,,,,,,,180,001,2024_Mar_08_1346,SpeechDraft1Carolyn_lessNoise_PlusLocalization,2021.2.3,59.99406206519164,
cold.wav,cold.mpg,cold,3,A,Pink_Noise_3_1.wav,Pink_Noise_3_2.wav,,,,,,,,,,,,,,,0,24,24,56,,,,,,,,,,,,,,,,,,,,,,,162.69903527759016,None,164.19880192819983,None,165.5826070588082,None,cold,165.5826070588082,None,return,1.4772341446951032,165.66568664368242,None,,,,,,,,,,,,,,,,,,,,,,,,,,,,,,,,,,,,,,,180,001,2024_Mar_08_1346,SpeechDraft1Carolyn_lessNoise_PlusLocalization,2021.2.3,59.99406206519164,
blood.wav,blood.mpg,blood,5,A,Pink_Noise_5_1.wav,Pink_Noise_5_2.wav,,,,,,,,,,,,,,,0,25,25,22,,,,,,,,,,,,,,,,,,,,,,,167.16563437134027,None,168.66537682153285,None,170.04900399316102,None,sludge,170.04900399316102,None,return,6.930621042847633,170.13237943686545,None,,,,,,,,,,,,,,,,,,,,,,,,,,,,,,,,,,,,,,,180,001,2024_Mar_08_1346,SpeechDraft1Carolyn_lessNoise_PlusLocalization,2021.2.3,59.99406206519164,
beach.wav,beach.mpg,beach,6,A,Pink_Noise_6_1.wav,Pink_Noise_6_2.wav,,,,,,,,,,,,,,,0,26,26,29,,,,,,,,,,,,,,,,,,,,,,,177.08231647126377,None,178.58204317931086,None,179.9656432401389,None,stitch,179.9656432401389,None,return,3.9739920645952225,180.04906572401524,None,,,,,,,,,,,,,,,,,,,,,,,,,,,,,,,,,,,,,,,180,001,2024_Mar_08_1346,SpeechDraft1Carolyn_lessNoise_PlusLocalization,2021.2.3,59.99406206519164,
chain.wav,chain.mpg,chain,2,A,Pink_Noise_2_1.wav,Pink_Noise_2_2.wav,,,,,,,,,,,,,,,0,27,27,3,,,,,,,,,,,,,,,,,,,,,,,184.04899628926069,None,185.54873665235937,None,186.93238466233015,None,chain,186.93238466233015,None,return,0.9913695864379406,187.01565004326403,None,,,,,,,,,,,,,,,,,,,,,,,,,,,,,,,,,,,,,,,180,001,2024_Mar_08_1346,SpeechDraft1Carolyn_lessNoise_PlusLocalization,2021.2.3,59.99406206519164,
pipe.wav,pipe.mpg,pipe,4,AV,Pink_Noise_4_1.wav,Pink_Noise_4_2.wav,,,,,,,,,,,,,,,0,28,28,81,,,,,,,,,,,,,,,,,,,,,,,188.03234918788075,None,189.51737310551107,None,190.89894977770746,None,pipe,190.89894977770746,None,return,1.2965568089857697,190.9824815997854,None,,,,,,,,,,,,,,,,,,,,,,,,,,,,,,,,,,,,,,,180,001,2024_Mar_08_1346,SpeechDraft1Carolyn_lessNoise_PlusLocalization,2021.2.3,59.99406206519164,
choir.wav,choir.mpg,choir,1,AV,Pink_Noise_1_1.wav,Pink_Noise_1_2.wav,,,,,,,,,,,,,,,0,29,29,72,,,,,,,,,,,,,,,,,,,,,,,192.2990920273587,None,193.7987453835085,None,195.18223148863763,None,quare,195.18223148863763,None,return,5.677261357195675,195.26569002587348,None,,,,,,,,,,,,,,,,,,,,,,,,,,,,,,,,,,,,,,,180,001,2024_Mar_08_1346,SpeechDraft1Carolyn_lessNoise_PlusLocalization,2021.2.3,59.99406206519164,
coup.wav,coup.mpg,coup,5,A,Pink_Noise_5_1.wav,Pink_Noise_5_2.wav,,,,,,,,,,,,,,,0,30,30,30,,,,,,,,,,,,,,,,,,,,,,,200.9657257217914,None,202.46550806425512,None,203.84902827534825,None,creak,203.84902827534825,None,return,3.314599155448377,203.93236228637397,None,,,,,,,,,,,,,,,,,,,,,,,,,,,,,,,,,,,,,,,180,001,2024_Mar_08_1346,SpeechDraft1Carolyn_lessNoise_PlusLocalization,2021.2.3,59.99406206519164,
card.wav,card.mpg,card,3,AV,Pink_Noise_3_1.wav,Pink_Noise_3_2.wav,,,,,,,,,,,,,,,0,31,31,109,,,,,,,,,,,,,,,,,,,,,,,207.2658502245322,None,208.76542341150343,None,210.14905152469873,None,card,210.14905152469873,None,return,1.006548655219376,210.2324575735256,None,,,,,,,,,,,,,,,,,,,,,,,,,,,,,,,,,,,,,,,180,001,2024_Mar_08_1346,SpeechDraft1Carolyn_lessNoise_PlusLocalization,2021.2.3,59.99406206519164,
bun.wav,bun.mpg,bun,3,A,Pink_Noise_3_1.wav,Pink_Noise_3_2.wav,,,,,,,,,,,,,,,0,32,32,49,,,,,,,,,,,,,,,,,,,,,,,211.2657369757071,None,212.7654876448214,None,214.14906238485128,None,fun,214.14906238485128,None,return,1.3585230018943548,214.23240918386728,None,,,,,,,,,,,,,,,,,,,,,,,,,,,,,,,,,,,,,,,180,001,2024_Mar_08_1346,SpeechDraft1Carolyn_lessNoise_PlusLocalization,2021.2.3,59.99406206519164,
ask.wav,ask.mpg,ask,1,A,Pink_Noise_1_1.wav,Pink_Noise_1_2.wav,,,,,,,,,,,,,,,0,33,33,18,,,,,,,,,,,,,,,,,,,,,,,215.6156653398648,None,217.11536445375532,None,218.49913280177861,None,ask,218.49913280177861,None,return,0.8566285278648138,218.58242570236325,None,,,,,,,,,,,,,,,,,,,,,,,,,,,,,,,,,,,,,,,180,001,2024_Mar_08_1346,SpeechDraft1Carolyn_lessNoise_PlusLocalization,2021.2.3,59.99406206519164,
bad.wav,bad.mpg,bad,4,AV,Pink_Noise_4_1.wav,Pink_Noise_4_2.wav,,,,,,,,,,,,,,,0,34,34,69,,,,,,,,,,,,,,,,,,,,,,,219.46578966174275,None,220.96548322215676,None,222.3491289652884,None,bad,222.3491289652884,None,return,0.7825798895210028,222.43241963908076,None,,,,,,,,,,,,,,,,,,,,,,,,,,,,,,,,,,,,,,,180,001,2024_Mar_08_1346,SpeechDraft1Carolyn_lessNoise_PlusLocalization,2021.2.3,59.99406206519164,
crowd.wav,crowd.mpg,crowd,1,AV,Pink_Noise_1_1.wav,Pink_Noise_1_2.wav,,,,,,,,,,,,,,,0,35,35,78,,,,,,,,,,,,,,,,,,,,,,,223.23244360927492,None,224.73357922583818,None,226.11565310694277,None,crowd,226.11565310694277,None,return,2.439432553946972,226.19963229820132,None,,,,,,,,,,,,,,,,,,,,,,,,,,,,,,,,,,,,,,,180,001,2024_Mar_08_1346,SpeechDraft1Carolyn_lessNoise_PlusLocalization,2021.2.3,59.99406206519164,
rid.wav,rid.mpg,rid,2,AV,Pink_Noise_2_1.wav,Pink_Noise_2_2.wav,,,,,,,,,,,,,,,0,36,36,112,,,,,,,,,,,,,,,,,,,,,,,228.66580888815224,None,230.16558179538697,None,231.54900862276554,None,ready,231.54900862276554,None,return,1.4066684236750007,231.63238890189677,None,,,,,,,,,,,,,,,,,,,,,,,,,,,,,,,,,,,,,,,180,001,2024_Mar_08_1346,SpeechDraft1Carolyn_lessNoise_PlusLocalization,2021.2.3,59.99406206519164,
feast.wav,feast.mpg,feast,3,A,Pink_Noise_3_1.wav,Pink_Noise_3_2.wav,,,,,,,,,,,,,,,0,37,37,7,,,,,,,,,,,,,,,,,,,,,,,233.06581326015294,None,234.5654441555962,None,235.94913722388446,None,feast,235.94913722388446,None,return,1.766567817889154,236.03246216941625,None,,,,,,,,,,,,,,,,,,,,,,,,,,,,,,,,,,,,,,,180,001,2024_Mar_08_1346,SpeechDraft1Carolyn_lessNoise_PlusLocalization,2021.2.3,59.99406206519164,
fit.wav,fit.mpg,fit,2,AV,Pink_Noise_2_1.wav,Pink_Noise_2_2.wav,,,,,,,,,,,,,,,0,38,38,106,,,,,,,,,,,,,,,,,,,,,,,237.81578398961574,None,239.31563963741064,None,240.6991696935147,None,fit,240.6991696935147,None,return,1.2165379663929343,240.7824660902843,None,,,,,,,,,,,,,,,,,,,,,,,,,,,,,,,,,,,,,,,180,001,2024_Mar_08_1346,SpeechDraft1Carolyn_lessNoise_PlusLocalization,2021.2.3,59.99406206519164,
doll.wav,doll.mpg,doll,5,AV,Pink_Noise_5_1.wav,Pink_Noise_5_2.wav,,,,,,,,,,,,,,,0,39,39,94,,,,,,,,,,,,,,,,,,,,,,,242.01580439694226,None,243.5154927773401,None,244.89904715120792,None,doll,244.89904715120792,None,return,2.128469046205282,244.98247749824077,None,,,,,,,,,,,,,,,,,,,,,,,,,,,,,,,,,,,,,,,180,001,2024_Mar_08_1346,SpeechDraft1Carolyn_lessNoise_PlusLocalization,2021.2.3,59.99406206519164,
fake.wav,fake.mpg,fake,1,A,Pink_Noise_1_1.wav,Pink_Noise_1_2.wav,,,,,,,,,,,,,,,0,40,40,36,,,,,,,,,,,,,,,,,,,,,,,247.13242088537663,None,248.63233484420925,None,250.01578173413873,None,"fake
",250.01578173413873,None,return,0.6837500473484397,250.0991962198168,None,,,,,,,,,,,,,,,,,,,,,,,,,,,,,,,,,,,,,,,180,001,2024_Mar_08_1346,SpeechDraft1Carolyn_lessNoise_PlusLocalization,2021.2.3,59.99406206519164,
sake.wav,sake.mpg,sake,2,A,Pink_Noise_2_1.wav,Pink_Noise_2_2.wav,,,,,,,,,,,,,,,0,41,41,52,,,,,,,,,,,,,,,,,,,,,,,250.8157491600141,None,252.31549838837236,None,253.69919648114592,None,sick,253.69919648114592,None,return,1.1604931820183992,253.78244507312775,None,,,,,,,,,,,,,,,,,,,,,,,,,,,,,,,,,,,,,,,180,001,2024_Mar_08_1346,SpeechDraft1Carolyn_lessNoise_PlusLocalization,2021.2.3,59.99406206519164,
quest.wav,quest.mpg,quest,1,A,Pink_Noise_1_1.wav,Pink_Noise_1_2.wav,,,,,,,,,,,,,,,0,42,42,32,,,,,,,,,,,,,,,,,,,,,,,254.96579843293875,None,256.48217950202525,None,257.84922710992396,None,"quest
",257.84922710992396,None,return,1.4504557801410556,257.9324820805341,None,,,,,,,,,,,,,,,,,,,,,,,,,,,,,,,,,,,,,,,180,001,2024_Mar_08_1346,SpeechDraft1Carolyn_lessNoise_PlusLocalization,2021.2.3,59.99406206519164,
dread.wav,dread.mpg,dread,5,A,Pink_Noise_5_1.wav,Pink_Noise_5_2.wav,,,,,,,,,,,,,,,0,43,43,28,,,,,,,,,,,,,,,,,,,,,,,259.41584242135286,None,260.91559892799705,None,262.2991799255833,None,dread,262.2991799255833,None,return,4.544517397880554,262.38244146853685,None,,,,,,,,,,,,,,,,,,,,,,,,,,,,,,,,,,,,,,,180,001,2024_Mar_08_1346,SpeechDraft1Carolyn_lessNoise_PlusLocalization,2021.2.3,59.99406206519164,
bleak.wav,bleak.mpg,bleak,4,A,Pink_Noise_4_1.wav,Pink_Noise_4_2.wav,,,,,,,,,,,,,,,0,44,44,59,,,,,,,,,,,,,,,,,,,,,,,266.9491286771372,None,268.4488091636449,None,269.8325249776244,None,glitch,269.8325249776244,None,return,4.7470622677356005,269.915939129889,None,,,,,,,,,,,,,,,,,,,,,,,,,,,,,,,,,,,,,,,180,001,2024_Mar_08_1346,SpeechDraft1Carolyn_lessNoise_PlusLocalization,2021.2.3,59.99406206519164,
grim.wav,grim.mpg,grim,3,AV,Pink_Noise_3_1.wav,Pink_Noise_3_2.wav,,,,,,,,,,,,,,,0,45,45,84,,,,,,,,,,,,,,,,,,,,,,,274.6824867390096,None,276.1822190787643,None,277.56578964274377,None,grim,277.56578964274377,None,return,4.045630058273673,277.6493011601269,None,,,,,,,,,,,,,,,,,,,,,,,,,,,,,,,,,,,,,,,180,001,2024_Mar_08_1346,SpeechDraft1Carolyn_lessNoise_PlusLocalization,2021.2.3,59.99406206519164,
chart.wav,chart.mpg,chart,4,A,Pink_Noise_4_1.wav,Pink_Noise_4_2.wav,,,,,,,,,,,,,,,0,46,46,35,,,,,,,,,,,,,,,,,,,,,,,281.7158208778128,None,283.215542409569,None,284.5992510188371,None,chart,284.5992510188371,None,return,2.116560851223767,284.6825082851574,None,,,,,,,,,,,,,,,,,,,,,,,,,,,,,,,,,,,,,,,180,001,2024_Mar_08_1346,SpeechDraft1Carolyn_lessNoise_PlusLocalization,2021.2.3,59.99406206519164,
cash.wav,cash.mpg,cash,4,AV,Pink_Noise_4_1.wav,Pink_Noise_4_2.wav,,,,,,,,,,,,,,,0,47,47,119,,,,,,,,,,,,,,,,,,,,,,,286.815805462189,None,288.31569283641875,None,289.69916159287095,None,casg,289.69916159287095,None,return,1.8325348319485784,289.78248516563326,None,,,,,,,,,,,,,,,,,,,,,,,,,,,,,,,,,,,,,,,180,001,2024_Mar_08_1346,SpeechDraft1Carolyn_lessNoise_PlusLocalization,2021.2.3,59.99406206519164,
bulb.wav,bulb.mpg,bulb,4,AV,Pink_Noise_4_1.wav,Pink_Noise_4_2.wav,,,,,,,,,,,,,,,0,48,48,99,,,,,,,,,,,,,,,,,,,,,,,291.6324974205345,None,293.1322484863922,None,294.5158254764974,None,"bulb
",294.5158254764974,None,return,2.1517280023545027,294.5992058478296,None,,,,,,,,,,,,,,,,,,,,,,,,,,,,,,,,,,,,,,,180,001,2024_Mar_08_1346,SpeechDraft1Carolyn_lessNoise_PlusLocalization,2021.2.3,59.99406206519164,
chow.wav,chow.mpg,chow,4,A,Pink_Noise_4_1.wav,Pink_Noise_4_2.wav,,,,,,,,,,,,,,,0,49,49,45,,,,,,,,,,,,,,,,,,,,,,,296.7825911305845,None,298.2822717819363,None,299.66587516106665,None,child,299.66587516106665,None,return,1.2897549895569682,299.74925595521927,None,,,,,,,,,,,,,,,,,,,,,,,,,,,,,,,,,,,,,,,180,001,2024_Mar_08_1346,SpeechDraft1Carolyn_lessNoise_PlusLocalization,2021.2.3,59.99406206519164,
four.wav,four.mpg,four,2,AV,Pink_Noise_2_1.wav,Pink_Noise_2_2.wav,,,,,,,,,,,,,,,0,50,50,114,,,,,,,,,,,,,,,,,,,,,,,301.0659095849842,None,302.56551891192794,None,303.949244976975,None,four,303.949244976975,None,return,2.8145013293251395,304.03244220651686,None,,,,,,,,,,,,,,,,,,,,,,,,,,,,,,,,,,,,,,,180,001,2024_Mar_08_1346,SpeechDraft1Carolyn_lessNoise_PlusLocalization,2021.2.3,59.99406206519164,
debt.wav,debt.mpg,debt,1,A,Pink_Noise_1_1.wav,Pink_Noise_1_2.wav,,,,,,,,,,,,,,,0,51,51,38,,,,,,,,,,,,,,,,,,,,,,,306.8658539270982,None,308.3654770562425,None,309.7492794636637,None,debt,309.7492794636637,None,return,2.7743608113378286,309.83257200941443,None,,,,,,,,,,,,,,,,,,,,,,,,,,,,,,,,,,,,,,,180,001,2024_Mar_08_1346,SpeechDraft1Carolyn_lessNoise_PlusLocalization,2021.2.3,59.99406206519164,
fill.wav,fill.mpg,fill,2,AV,Pink_Noise_2_1.wav,Pink_Noise_2_2.wav,,,,,,,,,,,,,,,0,52,52,67,,,,,,,,,,,,,,,,,,,,,,,312.6325279260054,None,314.13222655281425,None,315.51582936756313,None,fill,315.51582936756313,None,return,4.255935807712376,315.59915197454393,None,,,,,,,,,,,,,,,,,,,,,,,,,,,,,,,,,,,,,,,180,001,2024_Mar_08_1346,SpeechDraft1Carolyn_lessNoise_PlusLocalization,2021.2.3,59.99406206519164,
clean.wav,clean.mpg,clean,2,A,Pink_Noise_2_1.wav,Pink_Noise_2_2.wav,,,,,,,,,,,,,,,0,53,53,6,,,,,,,,,,,,,,,,,,,,,,,319.88256657123566,None,321.3822906333953,None,322.7823134697974,None,clean,322.7823134697974,None,return,2.845669071190059,322.84928754810244,None,,,,,,,,,,,,,,,,,,,,,,,,,,,,,,,,,,,,,,,180,001,2024_Mar_08_1346,SpeechDraft1Carolyn_lessNoise_PlusLocalization,2021.2.3,59.99406206519164,
bench.wav,bench.mpg,bench,5,AV,Pink_Noise_5_1.wav,Pink_Noise_5_2.wav,,,,,,,,,,,,,,,0,54,54,93,,,,,,,,,,,,,,,,,,,,,,,325.7158162081614,None,327.21569080092013,None,328.5992513531819,None,bench,328.5992513531819,None,return,1.6443869294598699,328.68255642894655,None,,,,,,,,,,,,,,,,,,,,,,,,,,,,,,,,,,,,,,,180,001,2024_Mar_08_1346,SpeechDraft1Carolyn_lessNoise_PlusLocalization,2021.2.3,59.99406206519164,
clerk.wav,clerk.mpg,clerk,2,A,Pink_Noise_2_1.wav,Pink_Noise_2_2.wav,,,,,,,,,,,,,,,0,55,55,48,,,,,,,,,,,,,,,,,,,,,,,330.34921541437507,None,331.84895009733737,None,333.23274324368685,None,clerk,333.23274324368685,None,return,1.1790272239595652,333.31594514939934,None,,,,,,,,,,,,,,,,,,,,,,,,,,,,,,,,,,,,,,,180,001,2024_Mar_08_1346,SpeechDraft1Carolyn_lessNoise_PlusLocalization,2021.2.3,59.99406206519164,
fist.wav,fist.mpg,fist,6,AV,Pink_Noise_6_1.wav,Pink_Noise_6_2.wav,,,,,,,,,,,,,,,0,56,56,75,,,,,,,,,,,,,,,,,,,,,,,334.51586493011564,None,336.0156436646357,None,337.3990931296721,None,fist,337.3990931296721,None,return,3.9883432714268565,337.4826114261523,None,,,,,,,,,,,,,,,,,,,,,,,,,,,,,,,,,,,,,,,180,001,2024_Mar_08_1346,SpeechDraft1Carolyn_lessNoise_PlusLocalization,2021.2.3,59.99406206519164,
chick.wav,chick.mpg,chick,4,A,Pink_Noise_4_1.wav,Pink_Noise_4_2.wav,,,,,,,,,,,,,,,0,57,57,4,,,,,,,,,,,,,,,,,,,,,,,341.49914095923305,None,342.99895415175706,None,344.3825610931963,None,"chicken
",344.3825610931963,None,return,4.285060991533101,344.46588957402855,None,,,,,,,,,,,,,,,,,,,,,,,,,,,,,,,,,,,,,,,180,001,2024_Mar_08_1346,SpeechDraft1Carolyn_lessNoise_PlusLocalization,2021.2.3,59.99406206519164,
grass.wav,grass.mpg,grass,6,AV,Pink_Noise_6_1.wav,Pink_Noise_6_2.wav,,,,,,,,,,,,,,,0,58,58,86,,,,,,,,,,,,,,,,,,,,,,,348.7825971180573,None,350.2822857629508,None,351.66582338605076,None,grass,351.66582338605076,None,return,1.625733115710318,351.74921210762113,None,,,,,,,,,,,,,,,,,,,,,,,,,,,,,,,,,,,,,,,180,001,2024_Mar_08_1346,SpeechDraft1Carolyn_lessNoise_PlusLocalization,2021.2.3,59.99406206519164,
blue.wav,blue.mpg,blue,1,A,Pink_Noise_1_1.wav,Pink_Noise_1_2.wav,,,,,,,,,,,,,,,0,59,59,17,,,,,,,,,,,,,,,,,,,,,,,353.399340855889,None,354.89909971132874,None,356.28263461682945,None,blue,356.28263461682945,None,return,2.4890982024371624,356.3659685412422,None,,,,,,,,,,,,,,,,,,,,,,,,,,,,,,,,,,,,,,,180,001,2024_Mar_08_1346,SpeechDraft1Carolyn_lessNoise_PlusLocalization,2021.2.3,59.99406206519164,
quart.wav,quart.mpg,quart,3,AV,Pink_Noise_3_1.wav,Pink_Noise_3_2.wav,,,,,,,,,,,,,,,0,60,60,82,,,,,,,,,,,,,,,,,,,,,,,358.88254547212273,None,360.3823404284194,None,361.7658119732514,None,"quart
",361.7658119732514,None,return,10.669600983150303,361.84935403615236,None,,,,,,,,,,,,,,,,,,,,,,,,,,,,,,,,,,,,,,,180,001,2024_Mar_08_1346,SpeechDraft1Carolyn_lessNoise_PlusLocalization,2021.2.3,59.99406206519164,
draft.wav,draft.mpg,draft,5,AV,Pink_Noise_5_1.wav,Pink_Noise_5_2.wav,,,,,,,,,,,,,,,0,61,61,85,,,,,,,,,,,,,,,,,,,,,,,372.5492580123246,None,374.04981097206473,None,375.43261494953185,None,draft,375.43261494953185,None,return,2.163001086562872,375.51600813120604,None,,,,,,,,,,,,,,,,,,,,,,,,,,,,,,,,,,,,,,,180,001,2024_Mar_08_1346,SpeechDraft1Carolyn_lessNoise_PlusLocalization,2021.2.3,59.99406206519164,
booth.wav,booth.mpg,booth,4,A,Pink_Noise_4_1.wav,Pink_Noise_4_2.wav,,,,,,,,,,,,,,,0,62,62,58,,,,,,,,,,,,,,,,,,,,,,,377.69940305128694,None,379.1989138526842,None,380.58262166567147,None,boot,380.58262166567147,None,return,3.276902991347015,380.6660276791081,None,,,,,,,,,,,,,,,,,,,,,,,,,,,,,,,,,,,,,,,180,001,2024_Mar_08_1346,SpeechDraft1Carolyn_lessNoise_PlusLocalization,2021.2.3,59.99406206519164,
spire.wav,spire.mpg,spire,6,AV,Pink_Noise_6_1.wav,Pink_Noise_6_2.wav,,,,,,,,,,,,,,,0,63,63,83,,,,,,,,,,,,,,,,,,,,,,,383.96599370613694,None,385.46573839057237,None,386.8494080156088,None,"spider
",386.8494080156088,None,return,1.8503055199980736,386.9326450182125,None,,,,,,,,,,,,,,,,,,,,,,,,,,,,,,,,,,,,,,,180,001,2024_Mar_08_1346,SpeechDraft1Carolyn_lessNoise_PlusLocalization,2021.2.3,59.99406206519164,
swamp.wav,swamp.mpg,swamp,6,A,Pink_Noise_6_1.wav,Pink_Noise_6_2.wav,,,,,,,,,,,,,,,0,64,64,34,,,,,,,,,,,,,,,,,,,,,,,388.81604346539825,None,390.31592080555856,None,391.69926897622645,None,dome,391.69926897622645,None,return,1.7042912133038044,391.78264369256794,None,,,,,,,,,,,,,,,,,,,,,,,,,,,,,,,,,,,,,,,180,001,2024_Mar_08_1346,SpeechDraft1Carolyn_lessNoise_PlusLocalization,2021.2.3,59.99406206519164,
dry.wav,dry.mpg,dry,2,A,Pink_Noise_2_1.wav,Pink_Noise_2_2.wav,,,,,,,,,,,,,,,0,65,65,55,,,,,,,,,,,,,,,,,,,,,,,393.51593572460115,None,395.01561547536403,None,396.39935950934887,None,dry,396.39935950934887,None,return,6.748309115879238,396.4827365260571,None,,,,,,,,,,,,,,,,,,,,,,,,,,,,,,,,,,,,,,,180,001,2024_Mar_08_1346,SpeechDraft1Carolyn_lessNoise_PlusLocalization,2021.2.3,59.99406206519164,
box.wav,box.mpg,box,4,AV,Pink_Noise_4_1.wav,Pink_Noise_4_2.wav,,,,,,,,,,,,,,,0,66,66,110,,,,,,,,,,,,,,,,,,,,,,,403.2493926472962,None,404.74926799722016,None,406.1327263871208,None,box,406.1327263871208,None,return,2.670570998452604,406.2163600390777,None,,,,,,,,,,,,,,,,,,,,,,,,,,,,,,,,,,,,,,,180,001,2024_Mar_08_1346,SpeechDraft1Carolyn_lessNoise_PlusLocalization,2021.2.3,59.99406206519164,
chalk.wav,chalk.mpg,chalk,6,A,Pink_Noise_6_1.wav,Pink_Noise_6_2.wav,,,,,,,,,,,,,,,0,67,67,42,,,,,,,,,,,,,,,,,,,,,,,408.9160141693428,None,410.43240550067276,None,411.8161464603618,None,chocolate,411.8161464603618,None,return,4.131644551642239,411.8993666730821,None,,,,,,,,,,,,,,,,,,,,,,,,,,,,,,,,,,,,,,,180,001,2024_Mar_08_1346,SpeechDraft1Carolyn_lessNoise_PlusLocalization,2021.2.3,59.99406206519164,
deed.wav,deed.mpg,deed,5,AV,Pink_Noise_5_1.wav,Pink_Noise_5_2.wav,,,,,,,,,,,,,,,0,68,68,102,,,,,,,,,,,,,,,,,,,,,,,416.0493273679167,None,417.56602486688644,None,418.9492152053863,None,leam,418.9492152053863,None,return,4.310234170407057,419.0326898191124,None,,,,,,,,,,,,,,,,,,,,,,,,,,,,,,,,,,,,,,,180,001,2024_Mar_08_1346,SpeechDraft1Carolyn_lessNoise_PlusLocalization,2021.2.3,59.99406206519164,
swan.wav,swan.mpg,swan,2,A,Pink_Noise_2_1.wav,Pink_Noise_2_2.wav,,,,,,,,,,,,,,,0,69,69,27,,,,,,,,,,,,,,,,,,,,,,,423.36606179736555,None,424.8824754348025,None,426.26603776216507,None,swarm,426.26603776216507,None,return,9.273615666665137,426.34940115269274,None,,,,,,,,,,,,,,,,,,,,,,,,,,,,,,,,,,,,,,,180,001,2024_Mar_08_1346,SpeechDraft1Carolyn_lessNoise_PlusLocalization,2021.2.3,59.99406206519164,
chump.wav,chump.mpg,chump,3,A,Pink_Noise_3_1.wav,Pink_Noise_3_2.wav,,,,,,,,,,,,,,,0,70,70,2,,,,,,,,,,,,,,,,,,,,,,,435.6493644108996,None,437.1657915972173,None,438.5494084963575,None,chunk,438.5494084963575,None,return,2.206280074082315,438.6327518625185,None,,,,,,,,,,,,,,,,,,,,,,,,,,,,,,,,,,,,,,,180,001,2024_Mar_08_1346,SpeechDraft1Carolyn_lessNoise_PlusLocalization,2021.2.3,59.99406206519164,
faint.wav,faint.mpg,faint,5,A,Pink_Noise_5_1.wav,Pink_Noise_5_2.wav,,,,,,,,,,,,,,,0,71,71,13,,,,,,,,,,,,,,,,,,,,,,,440.8660628730431,None,442.36571525223553,None,443.749686608091,None,"dent
",443.749686608091,None,return,21.686291933991015,443.8326531788334,None,,,,,,,,,,,,,,,,,,,,,,,,,,,,,,,,,,,,,,,180,001,2024_Mar_08_1346,SpeechDraft1Carolyn_lessNoise_PlusLocalization,2021.2.3,59.99406206519164,
frost.wav,frost.mpg,frost,5,AV,Pink_Noise_5_1.wav,Pink_Noise_5_2.wav,,,,,,,,,,,,,,,0,72,72,98,,,,,,,,,,,,,,,,,,,,,,,465.5494546601549,None,467.0658731358126,None,468.4494830491021,None,frost,468.4494830491021,None,return,13.578204613178968,468.5327411722392,None,,,,,,,,,,,,,,,,,,,,,,,,,,,,,,,,,,,,,,,180,001,2024_Mar_08_1346,SpeechDraft1Carolyn_lessNoise_PlusLocalization,2021.2.3,59.99406206519164,
fat.wav,fat.mpg,fat,4,AV,Pink_Noise_4_1.wav,Pink_Noise_4_2.wav,,,,,,,,,,,,,,,0,73,73,103,,,,,,,,,,,,,,,,,,,,,,,482.1329421857372,None,483.6491663409397,None,485.0328356977552,None,fat,485.0328356977552,None,return,1.93091853056103,485.11610280070454,None,,,,,,,,,,,,,,,,,,,,,,,,,,,,,,,,,,,,,,,180,001,2024_Mar_08_1346,SpeechDraft1Carolyn_lessNoise_PlusLocalization,2021.2.3,59.99406206519164,
traps.wav,traps.mpg,traps,6,A,Pink_Noise_6_1.wav,Pink_Noise_6_2.wav,,,,,,,,,,,,,,,0,74,74,21,,,,,,,,,,,,,,,,,,,,,,,487.06612159404904,None,488.5658149216324,None,489.9494497589767,None,socks,489.9494497589767,None,return,5.926182359457016,490.032773707062,None,,,,,,,,,,,,,,,,,,,,,,,,,,,,,,,,,,,,,,,180,001,2024_Mar_08_1346,SpeechDraft1Carolyn_lessNoise_PlusLocalization,2021.2.3,59.99406206519164,
fall.wav,fall.mpg,fall,6,AV,Pink_Noise_6_1.wav,Pink_Noise_6_2.wav,,,,,,,,,,,,,,,0,75,75,61,,,,,,,,,,,,,,,,,,,,,,,495.9828352527693,None,497.4992117518559,None,498.88263829704374,None,fall,498.88263829704374,None,return,2.68889251165092,498.9661206677556,None,,,,,,,,,,,,,,,,,,,,,,,,,,,,,,,,,,,,,,,180,001,2024_Mar_08_1346,SpeechDraft1Carolyn_lessNoise_PlusLocalization,2021.2.3,59.99406206519164,
glow.wav,glow.mpg,glow,2,AV,Pink_Noise_2_1.wav,Pink_Noise_2_2.wav,,,,,,,,,,,,,,,0,76,76,115,,,,,,,,,,,,,,,,,,,,,,,501.6829208172858,None,503.18261365313083,None,504.5660971198231,None,"glow
",504.5660971198231,None,return,2.1174027109518647,504.6495316326618,None,,,,,,,,,,,,,,,,,,,,,,,,,,,,,,,,,,,,,,,180,001,2024_Mar_08_1346,SpeechDraft1Carolyn_lessNoise_PlusLocalization,2021.2.3,59.99406206519164,
mars.wav,mars.mpg,mars,2,AV,Pink_Noise_2_1.wav,Pink_Noise_2_2.wav,,,,,,,,,,,,,,,0,77,77,77,,,,,,,,,,,,,,,,,,,,,,,506.7995218606666,None,508.29916837625206,None,509.6827858677134,None,nars,509.6827858677134,None,return,2.0327864047139883,509.7662099869922,None,,,,,,,,,,,,,,,,,,,,,,,,,,,,,,,,,,,,,,,180,001,2024_Mar_08_1346,SpeechDraft1Carolyn_lessNoise_PlusLocalization,2021.2.3,59.99406206519164,
bold.wav,bold.mpg,bold,2,AV,Pink_Noise_2_1.wav,Pink_Noise_2_2.wav,,,,,,,,,,,,,,,0,78,78,92,,,,,,,,,,,,,,,,,,,,,,,511.8162710862234,None,513.3159643877298,None,514.6996247740462,None,bold,514.6996247740462,None,return,1.9758920157328248,514.783064850606,None,,,,,,,,,,,,,,,,,,,,,,,,,,,,,,,,,,,,,,,180,001,2024_Mar_08_1346,SpeechDraft1Carolyn_lessNoise_PlusLocalization,2021.2.3,59.99406206519164,
cone.wav,cone.mpg,cone,1,AV,Pink_Noise_1_1.wav,Pink_Noise_1_2.wav,,,,,,,,,,,,,,,0,79,79,108,,,,,,,,,,,,,,,,,,,,,,,516.7828800110146,None,518.2826260058209,None,519.6663847118616,None,comb,519.6663847118616,None,return,2.9774472871795297,519.7495072865859,None,,,,,,,,,,,,,,,,,,,,,,,,,,,,,,,,,,,,,,,180,001,2024_Mar_08_1346,SpeechDraft1Carolyn_lessNoise_PlusLocalization,2021.2.3,59.99406206519164,
clad.wav,clad.mpg,clad,5,A,Pink_Noise_5_1.wav,Pink_Noise_5_2.wav,,,,,,,,,,,,,,,0,80,80,12,,,,,,,,,,,,,,,,,,,,,,,522.7496371585876,None,524.2492568837479,None,525.6329515567049,None,plaid,525.6329515567049,None,return,3.6267861630767584,525.7161452705041,None,,,,,,,,,,,,,,,,,,,,,,,,,,,,,,,,,,,,,,,180,001,2024_Mar_08_1346,SpeechDraft1Carolyn_lessNoise_PlusLocalization,2021.2.3,59.99406206519164,
foul.wav,foul.mpg,foul,6,A,Pink_Noise_6_1.wav,Pink_Noise_6_2.wav,,,,,,,,,,,,,,,0,81,81,15,,,,,,,,,,,,,,,,,,,,,,,529.3662212556228,None,530.8665191736072,None,532.2495708512142,None,silence,532.2495708512142,None,return,1.6901451908051968,532.332900043577,None,,,,,,,,,,,,,,,,,,,,,,,,,,,,,,,,,,,,,,,180,001,2024_Mar_08_1346,SpeechDraft1Carolyn_lessNoise_PlusLocalization,2021.2.3,59.99406206519164,
deck.wav,deck.mpg,deck,6,AV,Pink_Noise_6_1.wav,Pink_Noise_6_2.wav,,,,,,,,,,,,,,,0,82,82,95,,,,,,,,,,,,,,,,,,,,,,,534.0494617018849,None,535.5660228598863,None,536.9495218265802,None,sex,536.9495218265802,None,return,3.11000657081604,537.0329267177731,None,,,,,,,,,,,,,,,,,,,,,,,,,,,,,,,,,,,,,,,180,001,2024_Mar_08_1346,SpeechDraft1Carolyn_lessNoise_PlusLocalization,2021.2.3,59.99406206519164,
brain.wav,brain.mpg,brain,3,A,Pink_Noise_3_1.wav,Pink_Noise_3_2.wav,,,,,,,,,,,,,,,0,83,83,31,,,,,,,,,,,,,,,,,,,,,,,540.1662984509021,None,541.6824756097049,None,543.0495373783633,None,brain,543.0495373783633,None,return,6.6500572599470615,543.1329328808933,None,,,,,,,,,,,,,,,,,,,,,,,,,,,,,,,,,,,,,,,180,001,2024_Mar_08_1346,SpeechDraft1Carolyn_lessNoise_PlusLocalization,2021.2.3,59.99406206519164,
led.wav,led.mpg,led,2,AV,Pink_Noise_2_1.wav,Pink_Noise_2_2.wav,,,,,,,,,,,,,,,0,84,84,71,,,,,,,,,,,,,,,,,,,,,,,549.7995517645031,None,551.3159856572747,None,552.6994243459776,None,"led
",552.6994243459776,None,return,1.3839771449565887,552.7829423649237,None,,,,,,,,,,,,,,,,,,,,,,,,,,,,,,,,,,,,,,,180,001,2024_Mar_08_1346,SpeechDraft1Carolyn_lessNoise_PlusLocalization,2021.2.3,59.99406206519164,
clash.wav,clash.mpg,clash,5,A,Pink_Noise_5_1.wav,Pink_Noise_5_2.wav,,,,,,,,,,,,,,,0,85,85,11,,,,,,,,,,,,,,,,,,,,,,,554.1996338060126,None,555.7159380335361,None,557.0996151082218,None,clash,557.0996151082218,None,return,2.0239550275728106,557.1830966416746,None,,,,,,,,,,,,,,,,,,,,,,,,,,,,,,,,,,,,,,,180,001,2024_Mar_08_1346,SpeechDraft1Carolyn_lessNoise_PlusLocalization,2021.2.3,59.99406206519164,
glad.wav,glad.mpg,glad,3,A,Pink_Noise_3_1.wav,Pink_Noise_3_2.wav,,,,,,,,,,,,,,,0,86,86,0,,,,,,,,,,,,,,,,,,,,,,,559.2329624127597,None,560.7492773979902,None,562.1329107247293,None,glad,562.1329107247293,None,return,1.4467808054760098,562.2162221912295,None,,,,,,,,,,,,,,,,,,,,,,,,,,,,,,,,,,,,,,,180,001,2024_Mar_08_1346,SpeechDraft1Carolyn_lessNoise_PlusLocalization,2021.2.3,59.99406206519164,
fad.wav,fad.mpg,fad,2,AV,Pink_Noise_2_1.wav,Pink_Noise_2_2.wav,,,,,,,,,,,,,,,0,87,87,97,,,,,,,,,,,,,,,,,,,,,,,563.6831473195925,None,565.1992977038026,None,566.582972635515,None,fad,566.582972635515,None,return,0.996613496914506,566.666455540806,None,,,,,,,,,,,,,,,,,,,,,,,,,,,,,,,,,,,,,,,180,001,2024_Mar_08_1346,SpeechDraft1Carolyn_lessNoise_PlusLocalization,2021.2.3,59.99406206519164,
batch.wav,batch.mpg,batch,2,A,Pink_Noise_2_1.wav,Pink_Noise_2_2.wav,,,,,,,,,,,,,,,0,88,88,20,,,,,,,,,,,,,,,,,,,,,,,567.683995203115,None,569.1991765359417,None,570.583097005263,None,batch,570.583097005263,None,return,2.2206872329115868,570.6662679407746,None,,,,,,,,,,,,,,,,,,,,,,,,,,,,,,,,,,,,,,,180,001,2024_Mar_08_1346,SpeechDraft1Carolyn_lessNoise_PlusLocalization,2021.2.3,59.99406206519164,
claw.wav,claw.mpg,claw,5,AV,Pink_Noise_5_1.wav,Pink_Noise_5_2.wav,,,,,,,,,,,,,,,0,89,89,91,,,,,,,,,,,,,,,,,,,,,,,572.9162757685408,None,574.416736504063,None,575.7996319383383,None,claw,575.7996319383383,None,return,1.3958829017356038,575.8830884536728,None,,,,,,,,,,,,,,,,,,,,,,,,,,,,,,,,,,,,,,,180,001,2024_Mar_08_1346,SpeechDraft1Carolyn_lessNoise_PlusLocalization,2021.2.3,59.99406206519164,
groom.wav,groom.mpg,groom,1,AV,Pink_Noise_1_1.wav,Pink_Noise_1_2.wav,,,,,,,,,,,,,,,0,90,90,113,,,,,,,,,,,,,,,,,,,,,,,577.2995789768174,None,578.799415320158,None,580.1831869333982,None,groom,580.1831869333982,None,return,2.2127138385549188,580.2662234911695,None,,,,,,,,,,,,,,,,,,,,,,,,,,,,,,,,,,,,,,,180,001,2024_Mar_08_1346,SpeechDraft1Carolyn_lessNoise_PlusLocalization,2021.2.3,59.99406206519164,
doom.wav,doom.mpg,doom,5,A,Pink_Noise_5_1.wav,Pink_Noise_5_2.wav,,,,,,,,,,,,,,,0,91,91,23,,,,,,,,,,,,,,,,,,,,,,,582.4995495537296,None,584.0159457577392,None,585.3995691183954,None,doom,585.3995691183954,None,return,1.1638394566252828,585.483105908148,None,,,,,,,,,,,,,,,,,,,,,,,,,,,,,,,,,,,,,,,180,001,2024_Mar_08_1346,SpeechDraft1Carolyn_lessNoise_PlusLocalization,2021.2.3,59.99406206519164,
dull.wav,dull.mpg,dull,6,AV,Pink_Noise_6_1.wav,Pink_Noise_6_2.wav,,,,,,,,,,,,,,,0,92,92,101,,,,,,,,,,,,,,,,,,,,,,,586.6662980047986,None,588.1660725446418,None,589.5498459208757,None,"skull
",589.5498459208757,None,return,3.934016050770879,589.6329377889633,None,,,,,,,,,,,,,,,,,,,,,,,,,,,,,,,,,,,,,,,180,001,2024_Mar_08_1346,SpeechDraft1Carolyn_lessNoise_PlusLocalization,2021.2.3,59.99406206519164,
germ.wav,germ.mpg,germ,1,A,Pink_Noise_1_1.wav,Pink_Noise_1_2.wav,,,,,,,,,,,,,,,0,93,93,5,,,,,,,,,,,,,,,,,,,,,,,593.599606459029,None,595.1161958305165,None,596.4996236367151,None,germ,596.4996236367151,None,return,1.6321852449327707,596.5828986931592,None,,,,,,,,,,,,,,,,,,,,,,,,,,,,,,,,,,,,,,,180,001,2024_Mar_08_1346,SpeechDraft1Carolyn_lessNoise_PlusLocalization,2021.2.3,59.99406206519164,
beg.wav,beg.mpg,beg,1,A,Pink_Noise_1_1.wav,Pink_Noise_1_2.wav,,,,,,,,,,,,,,,0,94,94,57,,,,,,,,,,,,,,,,,,,,,,,598.232976491563,None,599.749143011868,None,601.133058656007,None,beg,601.133058656007,None,return,0.8067593155428767,601.2163281058893,None,,,,,,,,,,,,,,,,,,,,,,,,,,,,,,,,,,,,,,,180,001,2024_Mar_08_1346,SpeechDraft1Carolyn_lessNoise_PlusLocalization,2021.2.3,59.99406206519164,
bone.wav,bone.mpg,bone,3,AV,Pink_Noise_3_1.wav,Pink_Noise_3_2.wav,,,,,,,,,,,,,,,0,95,95,68,,,,,,,,,,,,,,,,,,,,,,,602.0497130220756,None,603.5661312183365,None,604.94955900684,None,bon,604.94955900684,None,return,2.3580775763839483,605.032963742502,None,,,,,,,,,,,,,,,,,,,,,,,,,,,,,,,,,,,,,,,180,001,2024_Mar_08_1346,SpeechDraft1Carolyn_lessNoise_PlusLocalization,2021.2.3,59.99406206519164,
glide.wav,glide.mpg,glide,6,AV,Pink_Noise_6_1.wav,Pink_Noise_6_2.wav,,,,,,,,,,,,,,,0,96,96,96,,,,,,,,,,,,,,,,,,,,,,,607.4163130456582,None,608.9327528532594,None,610.316681932658,None,"glide
",610.316681932658,None,return,1.3673348119482398,610.3995907502249,None,,,,,,,,,,,,,,,,,,,,,,,,,,,,,,,,,,,,,,,180,001,2024_Mar_08_1346,SpeechDraft1Carolyn_lessNoise_PlusLocalization,2021.2.3,59.99406206519164,
bye.wav,bye.mpg,bye,5,AV,Pink_Noise_5_1.wav,Pink_Noise_5_2.wav,,,,,,,,,,,,,,,0,97,97,66,,,,,,,,,,,,,,,,,,,,,,,611.7995782829821,None,613.3160696849227,None,614.6995210917667,None,bye,614.6995210917667,None,return,1.5600199662148952,614.7829216299579,None,,,,,,,,,,,,,,,,,,,,,,,,,,,,,,,,,,,,,,,180,001,2024_Mar_08_1346,SpeechDraft1Carolyn_lessNoise_PlusLocalization,2021.2.3,59.99406206519164,
guess.wav,guess.mpg,guess,3,A,Pink_Noise_3_1.wav,Pink_Noise_3_2.wav,,,,,,,,,,,,,,,0,98,98,24,,,,,,,,,,,,,,,,,,,,,,,616.3663263982162,None,617.8827040744945,None,619.2498219562694,None,guess,619.2498219562694,None,return,1.1377053633332253,619.3332399632782,None,,,,,,,,,,,,,,,,,,,,,,,,,,,,,,,,,,,,,,,180,001,2024_Mar_08_1346,SpeechDraft1Carolyn_lessNoise_PlusLocalization,2021.2.3,59.99406206519164,
bring.wav,bring.mpg,bring,4,AV,Pink_Noise_4_1.wav,Pink_Noise_4_2.wav,,,,,,,,,,,,,,,0,99,99,74,,,,,,,,,,,,,,,,,,,,,,,620.4996397038922,None,622.0161533076316,None,623.399608108215,None,bring,623.399608108215,None,return,2.3559414502233267,623.4830941557884,None,,,,,,,,,,,,,,,,,,,,,,,,,,,,,,,,,,,,,,,180,001,2024_Mar_08_1346,SpeechDraft1Carolyn_lessNoise_PlusLocalization,2021.2.3,59.99406206519164,
feed.wav,feed.mpg,feed,6,AV,Pink_Noise_6_1.wav,Pink_Noise_6_2.wav,,,,,,,,,,,,,,,0,100,100,116,,,,,,,,,,,,,,,,,,,,,,,625.8662339793518,None,627.3831450985745,None,628.7661461280659,None,fox,628.7661461280659,None,return,3.7252002395689487,628.8497350858524,None,,,,,,,,,,,,,,,,,,,,,,,,,,,,,,,,,,,,,,,180,001,2024_Mar_08_1346,SpeechDraft1Carolyn_lessNoise_PlusLocalization,2021.2.3,59.99406206519164,
cloud.wav,cloud.mpg,cloud,1,AV,Pink_Noise_1_1.wav,Pink_Noise_1_2.wav,,,,,,,,,,,,,,,0,101,101,89,,,,,,,,,,,,,,,,,,,,,,,632.5995955048129,None,634.1159835318103,None,635.4996622791514,None,cloud,635.4996622791514,None,return,2.0960667552426457,635.5829001842067,None,,,,,,,,,,,,,,,,,,,,,,,,,,,,,,,,,,,,,,,180,001,2024_Mar_08_1346,SpeechDraft1Carolyn_lessNoise_PlusLocalization,2021.2.3,59.99406206519164,
frame.wav,frame.mpg,frame,2,A,Pink_Noise_2_1.wav,Pink_Noise_2_2.wav,,,,,,,,,,,,,,,0,102,102,44,,,,,,,,,,,,,,,,,,,,,,,637.6997222397476,None,639.2159733157605,None,640.5996777471155,None,frain,640.5996777471155,None,return,3.099948183633387,640.6830105138943,None,,,,,,,,,,,,,,,,,,,,,,,,,,,,,,,,,,,,,,,180,001,2024_Mar_08_1346,SpeechDraft1Carolyn_lessNoise_PlusLocalization,2021.2.3,59.99406206519164,
dusk.wav,dusk.mpg,dusk,1,AV,Pink_Noise_1_1.wav,Pink_Noise_1_2.wav,,,,,,,,,,,,,,,0,103,103,88,,,,,,,,,,,,,,,,,,,,,,,643.7998871058226,None,645.3160753007978,None,646.6996251819655,None,dusk,646.6996251819655,None,return,1.2319932216778398,646.7830265527591,None,,,,,,,,,,,,,,,,,,,,,,,,,,,,,,,,,,,,,,,180,001,2024_Mar_08_1346,SpeechDraft1Carolyn_lessNoise_PlusLocalization,2021.2.3,59.99406206519164,
dip.wav,dip.mpg,dip,6,A,Pink_Noise_6_1.wav,Pink_Noise_6_2.wav,,,,,,,,,,,,,,,0,104,104,14,,,,,,,,,,,,,,,,,,,,,,,648.03302630689,None,649.5494851116091,None,650.933005397208,None,sick,650.933005397208,None,return,3.3264561127871275,651.0164764085785,None,,,,,,,,,,,,,,,,,,,,,,,,,,,,,,,,,,,,,,,180,001,2024_Mar_08_1346,SpeechDraft1Carolyn_lessNoise_PlusLocalization,2021.2.3,59.99406206519164,
live.wav,live.mpg,live,6,A,Pink_Noise_6_1.wav,Pink_Noise_6_2.wav,,,,,,,,,,,,,,,0,105,105,43,,,,,,,,,,,,,,,,,,,,,,,654.3664250550792,None,655.8827527565882,None,657.2664192263037,None,play,657.2664192263037,None,return,2.2252412075176835,657.3497232226655,None,,,,,,,,,,,,,,,,,,,,,,,,,,,,,,,,,,,,,,,180,001,2024_Mar_08_1346,SpeechDraft1Carolyn_lessNoise_PlusLocalization,2021.2.3,59.99406206519164,
cube.wav,cube.mpg,cube,3,AV,Pink_Noise_3_1.wav,Pink_Noise_3_2.wav,,,,,,,,,,,,,,,0,106,106,76,,,,,,,,,,,,,,,,,,,,,,,659.5996556747705,None,661.1160359149799,None,662.4997950708494,None,cube,662.4997950708494,None,return,1.2472135229036212,662.599747614935,None,,,,,,,,,,,,,,,,,,,,,,,,,,,,,,,,,,,,,,,180,001,2024_Mar_08_1346,SpeechDraft1Carolyn_lessNoise_PlusLocalization,2021.2.3,59.99406206519164,
cow.wav,cow.mpg,cow,3,AV,Pink_Noise_3_1.wav,Pink_Noise_3_2.wav,,,,,,,,,,,,,,,0,107,107,70,,,,,,,,,,,,,,,,,,,,,,,663.866403605789,None,665.3827811125666,None,666.7664306452498,None,"cow
",666.7664306452498,None,return,2.317215329967439,666.8497217008844,None,,,,,,,,,,,,,,,,,,,,,,,,,,,,,,,,,,,,,,,180,001,2024_Mar_08_1346,SpeechDraft1Carolyn_lessNoise_PlusLocalization,2021.2.3,59.99406206519164,
fade.wav,fade.mpg,fade,4,A,Pink_Noise_4_1.wav,Pink_Noise_4_2.wav,,,,,,,,,,,,,,,0,108,108,50,,,,,,,,,,,,,,,,,,,,,,,669.199699793011,None,670.7160972738639,None,672.0997719867155,None,ccane,672.0997719867155,None,return,1.807950735092163,672.182979144156,None,,,,,,,,,,,,,,,,,,,,,,,,,,,,,,,,,,,,,,,180,001,2024_Mar_08_1346,SpeechDraft1Carolyn_lessNoise_PlusLocalization,2021.2.3,59.99406206519164,
greek.wav,greek.mpg,greek,4,AV,Pink_Noise_4_1.wav,Pink_Noise_4_2.wav,,,,,,,,,,,,,,,0,109,109,73,,,,,,,,,,,,,,,,,,,,,,,674.0164031526074,None,675.5327044352889,None,676.9163580341265,None,greek,676.9163580341265,None,return,4.4311504773795605,676.9998373249546,None,,,,,,,,,,,,,,,,,,,,,,,,,,,,,,,,,,,,,,,180,001,2024_Mar_08_1346,SpeechDraft1Carolyn_lessNoise_PlusLocalization,2021.2.3,59.99406206519164,
leapt.wav,leapt.mpg,leapt,1,AV,Pink_Noise_1_1.wav,Pink_Noise_1_2.wav,,,,,,,,,,,,,,,0,110,110,65,,,,,,,,,,,,,,,,,,,,,,,681.4496822115034,None,682.9659893224016,None,684.3497139699757,None,"lept
",684.3497139699757,None,return,1.285770770162344,684.4331926181912,None,,,,,,,,,,,,,,,,,,,,,,,,,,,,,,,,,,,,,,,180,001,2024_Mar_08_1346,SpeechDraft1Carolyn_lessNoise_PlusLocalization,2021.2.3,59.99406206519164,
brand.wav,brand.mpg,brand,3,A,Pink_Noise_3_1.wav,Pink_Noise_3_2.wav,,,,,,,,,,,,,,,0,111,111,9,,,,,,,,,,,,,,,,,,,,,,,685.7497021947056,None,687.2660314124078,None,688.6498855715618,None,friend,688.6498855715618,None,return,8.161772698163986,688.7331538228318,None,,,,,,,,,,,,,,,,,,,,,,,,,,,,,,,,,,,,,,,180,001,2024_Mar_08_1346,SpeechDraft1Carolyn_lessNoise_PlusLocalization,2021.2.3,59.99406206519164,
mass.wav,mass.mpg,mass,5,A,Pink_Noise_5_1.wav,Pink_Noise_5_2.wav,,,,,,,,,,,,,,,0,112,112,51,,,,,,,,,,,,,,,,,,,,,,,696.9165455335751,None,698.4328968245536,None,699.8165237931535,None,gus,699.8165237931535,None,return,2.9232090348377824,699.8997818818316,None,,,,,,,,,,,,,,,,,,,,,,,,,,,,,,,,,,,,,,,180,001,2024_Mar_08_1346,SpeechDraft1Carolyn_lessNoise_PlusLocalization,2021.2.3,59.99406206519164,
three.wav,three.mpg,three,4,A,Pink_Noise_4_1.wav,Pink_Noise_4_2.wav,,,,,,,,,,,,,,,0,113,113,1,,,,,,,,,,,,,,,,,,,,,,,702.8499416541308,None,704.3660519039258,None,705.7497335327789,None,goop,705.7497335327789,None,return,3.077811378054321,705.8331375736743,None,,,,,,,,,,,,,,,,,,,,,,,,,,,,,,,,,,,,,,,180,001,2024_Mar_08_1346,SpeechDraft1Carolyn_lessNoise_PlusLocalization,2021.2.3,59.99406206519164,
chest.wav,chest.mpg,chest,1,A,Pink_Noise_1_1.wav,Pink_Noise_1_2.wav,,,,,,,,,,,,,,,0,114,114,10,,,,,,,,,,,,,,,,,,,,,,,708.9332909816876,None,710.4494776148349,None,711.8330333186314,None,chest,711.8330333186314,None,return,3.8744740672409534,711.9164776774123,None,,,,,,,,,,,,,,,,,,,,,,,,,,,,,,,,,,,,,,,180,001,2024_Mar_08_1346,SpeechDraft1Carolyn_lessNoise_PlusLocalization,2021.2.3,59.99406206519164,
gulp.wav,gulp.mpg,gulp,6,A,Pink_Noise_6_1.wav,Pink_Noise_6_2.wav,,,,,,,,,,,,,,,0,115,115,19,,,,,,,,,,,,,,,,,,,,,,,715.8164621908218,None,717.3176874183118,None,718.6997797247022,None,"skukk
",718.6997797247022,None,return,3.167869250290096,718.7830652957782,None,,,,,,,,,,,,,,,,,,,,,,,,,,,,,,,,,,,,,,,180,001,2024_Mar_08_1346,SpeechDraft1Carolyn_lessNoise_PlusLocalization,2021.2.3,59.99406206519164,
cheap.wav,cheap.mpg,cheap,3,A,Pink_Noise_3_1.wav,Pink_Noise_3_2.wav,,,,,,,,,,,,,,,0,116,116,47,,,,,,,,,,,,,,,,,,,,,,,721.9831895325333,None,723.4998404188082,None,724.8831434380263,None,cheat,724.8831434380263,None,return,3.072579980827868,724.9664255743846,None,,,,,,,,,,,,,,,,,,,,,,,,,,,,,,,,,,,,,,,180,001,2024_Mar_08_1346,SpeechDraft1Carolyn_lessNoise_PlusLocalization,2021.2.3,59.99406206519164,
dent.wav,dent.mpg,dent,4,A,Pink_Noise_4_1.wav,Pink_Noise_4_2.wav,,,,,,,,,,,,,,,0,117,117,41,,,,,,,,,,,,,,,,,,,,,,,728.0664190547541,None,729.5827745487913,None,730.9664708096534,None,"dent
",730.9664708096534,None,return,1.0849832454696298,731.0499662337825,None,,,,,,,,,,,,,,,,,,,,,,,,,,,,,,,,,,,,,,,180,001,2024_Mar_08_1346,SpeechDraft1Carolyn_lessNoise_PlusLocalization,2021.2.3,59.99406206519164,
gloom.wav,gloom.mpg,gloom,4,AV,Pink_Noise_4_1.wav,Pink_Noise_4_2.wav,,,,,,,,,,,,,,,0,118,118,90,,,,,,,,,,,,,,,,,,,,,,,732.1664530159906,None,733.6828397950158,None,735.0663739256561,None,glue,735.0663739256561,None,return,4.649261070415378,735.1497770352289,None,,,,,,,,,,,,,,,,,,,,,,,,,,,,,,,,,,,,,,,180,001,2024_Mar_08_1346,SpeechDraft1Carolyn_lessNoise_PlusLocalization,2021.2.3,59.99406206519164,
clutch.wav,clutch.mpg,clutch,1,A,Pink_Noise_1_1.wav,Pink_Noise_1_2.wav,,,,,,,,,,,,,,,0,119,119,8,,,,,,,,,,,,,,,,,,,,,,,739.8164837667719,None,741.3329948419705,None,742.7165438532829,None,clutch,742.7165438532829,None,return,1.8950540255755186,742.7998927980661,None,,,,,,,,,,,,,,,,,,,,,,,,,,,,,,,,,,,,,,,180,001,2024_Mar_08_1346,SpeechDraft1Carolyn_lessNoise_PlusLocalization,2021.2.3,59.99406206519164,
,,,,,,,,,,,,,,,,,,,,,,,,,,,,,,,,,,,,,,,,,,,,,,,,,,,,,,,,,,,,,,,,,,space,17.327074493281543,744.7998623009771,None,,,,,,,,,,,,,,,,,,,,,,,,,,,,,180,001,2024_Mar_08_1346,SpeechDraft1Carolyn_lessNoise_PlusLocalization,2021.2.3,59.99406206519164,
,,,,,,,,midLeft,-13.0,2,ch1Sound_localizationTask.wav,-13.0,"(762, 878)","(-198,-202)",-190,-338,,,,,,,,,0,0,0,1,,,,,,,,,,,,,,,,,,,,,,,,,,,,,,,,,,,,,,,,,,744.7998623009771,None,762.1664159651846,None,763.2661845367402,None,764.1996925929561,None,1.2492063492063492,2.9025325309485197,764.1996925929561,None,,,,,,,,,,,,,,,,,180,001,2024_Mar_08_1346,SpeechDraft1Carolyn_lessNoise_PlusLocalization,2021.2.3,59.99406206519164,
,,,,,,,,midLeft,-13.0,2,ch1Sound_localizationTask.wav,-13.0,"(762, 878)","(-198,-202)",-190,-338,,,,,,,,,0,1,1,1,,,,,,,,,,,,,,,,,,,,,,,,,,,,,,,,,,,,,,,,,,,,767.1166512817144,None,768.2164786346257,None,769.1494761547074,None,1.312169312169312,2.333077173680067,769.1494761547074,None,,,,,,,,,,,,,,,,,180,001,2024_Mar_08_1346,SpeechDraft1Carolyn_lessNoise_PlusLocalization,2021.2.3,59.99406206519164,
,,,,,,,,nearRight,6.5,0,ch1Sound_localizationTask.wav,6.5,"(1047, 878)","(87, -202)",95,-338,,,,,,,,,0,2,2,4,,,,,,,,,,,,,,,,,,,,,,,,,,,,,,,,,,,,,,,,,,,,771.4995648600161,None,772.5996033214033,None,773.516239259392,None,1.6634920634920634,0.8665212765336037,773.516239259392,None,,,,,,,,,,,,,,,,,180,001,2024_Mar_08_1346,SpeechDraft1Carolyn_lessNoise_PlusLocalization,2021.2.3,59.99406206519164,
,,,,,,,,nearRight,6.5,0,ch1Sound_localizationTask.wav,6.5,"(1047, 878)","(87, -202)",95,-338,,,,,,,,,0,3,3,4,,,,,,,,,,,,,,,,,,,,,,,,,,,,,,,,,,,,,,,,,,,,774.383925368078,None,775.4829364391044,None,776.4162343833596,None,1.7661375661375662,0.985660613514483,776.4162343833596,None,,,,,,,,,,,,,,,,,180,001,2024_Mar_08_1346,SpeechDraft1Carolyn_lessNoise_PlusLocalization,2021.2.3,59.99406206519164,
,,,,,,,,nearLeft,-6.5,1,ch1Sound_localizationTask.wav,-6.5,"(857, 878)","(-103,-202)",-95,-338,,,,,,,,,0,4,4,2,,,,,,,,,,,,,,,,,,,,,,,,,,,,,,,,,,,,,,,,,,,,777.4166799420491,None,778.5162206795067,None,779.4496502829716,None,1.4417989417989419,0.7662149434909225,779.4496502829716,None,,,,,,,,,,,,,,,,,180,001,2024_Mar_08_1346,SpeechDraft1Carolyn_lessNoise_PlusLocalization,2021.2.3,59.99406206519164,
,,,,,,,,midLeft,-13.0,2,ch1Sound_localizationTask.wav,-13.0,"(762, 878)","(-198,-202)",-190,-338,,,,,,,,,0,5,5,1,,,,,,,,,,,,,,,,,,,,,,,,,,,,,,,,,,,,,,,,,,,,780.2171236360446,None,781.3163188593462,None,782.2496164031327,None,1.3502645502645503,0.6487792050465941,782.2496164031327,None,,,,,,,,,,,,,,,,,180,001,2024_Mar_08_1346,SpeechDraft1Carolyn_lessNoise_PlusLocalization,2021.2.3,59.99406206519164,
,,,,,,,,nearLeft,-6.5,1,ch1Sound_localizationTask.wav,-6.5,"(857, 878)","(-103,-202)",-95,-338,,,,,,,,,0,6,6,2,,,,,,,,,,,,,,,,,,,,,,,,,,,,,,,,,,,,,,,,,,,,782.9002593262121,None,783.9995235996321,None,784.9331428008154,None,1.403174603174603,0.6512310961261392,784.9331428008154,None,,,,,,,,,,,,,,,,,180,001,2024_Mar_08_1346,SpeechDraft1Carolyn_lessNoise_PlusLocalization,2021.2.3,59.99406206519164,
,,,,,,,,center,0.0,6,ch1Sound_localizationTask.wav,0.0,"(952, 878)","(-8,-202)",0,-338,,,,,,,,,1,0,7,3,,,,,,,,,,,,,,,,,,,,,,,,,,,,,,,,,,,,,,,,,,,,785.5998758831993,None,786.6998513415456,None,787.6330888792872,None,1.5714285714285714,0.9165635285899043,787.6330888792872,None,,,,,,,,,,,,,,,,,180,001,2024_Mar_08_1346,SpeechDraft1Carolyn_lessNoise_PlusLocalization,2021.2.3,59.99406206519164,
,,,,,,,,midRight,13.0,3,ch1Sound_localizationTask.wav,13.0,"(1142, 878)","(182, -202)",190,-338,,,,,,,,,1,1,8,5,,,,,,,,,,,,,,,,,,,,,,,,,,,,,,,,,,,,,,,,,,,,788.5668366337195,None,789.666298430413,None,790.5995532963425,None,1.8846560846560847,0.8000506656244397,790.5995532963425,None,,,,,,,,,,,,,,,,,180,001,2024_Mar_08_1346,SpeechDraft1Carolyn_lessNoise_PlusLocalization,2021.2.3,59.99406206519164,
,,,,,,,,nearLeft,-6.5,1,ch1Sound_localizationTask.wav,-6.5,"(857, 878)","(-103,-202)",-95,-338,,,,,,,,,1,2,9,2,,,,,,,,,,,,,,,,,,,,,,,,,,,,,,,,,,,,,,,,,,,,791.4164423011243,None,792.5162577340379,None,793.449653532356,None,1.331216931216931,1.4003267651423812,793.449653532356,None,,,,,,,,,,,,,,,,,180,001,2024_Mar_08_1346,SpeechDraft1Carolyn_lessNoise_PlusLocalization,2021.2.3,59.99406206519164,
,,,,,,,,midRight,13.0,3,ch1Sound_localizationTask.wav,13.0,"(1142, 878)","(182, -202)",190,-338,,,,,,,,,1,3,10,5,,,,,,,,,,,,,,,,,,,,,,,,,,,,,,,,,,,,,,,,,,,,794.8666467312723,None,795.9661955665797,None,796.8995768912137,None,1.7814814814814814,0.6000220803543925,796.8995768912137,None,,,,,,,,,,,,,,,,,180,001,2024_Mar_08_1346,SpeechDraft1Carolyn_lessNoise_PlusLocalization,2021.2.3,59.99406206519164,
,,,,,,,,midRight,13.0,3,ch1Sound_localizationTask.wav,13.0,"(1142, 878)","(182, -202)",190,-338,,,,,,,,,1,4,11,5,,,,,,,,,,,,,,,,,,,,,,,,,,,,,,,,,,,,,,,,,,,,797.5165243158117,None,798.6163136167452,None,799.5496065663174,None,1.6952380952380952,0.6325502749532461,799.5496065663174,None,,,,,,,,,,,,,,,,,180,001,2024_Mar_08_1346,SpeechDraft1Carolyn_lessNoise_PlusLocalization,2021.2.3,59.99406206519164,
,,,,,,,,nearRight,6.5,0,ch1Sound_localizationTask.wav,6.5,"(1047, 878)","(87, -202)",95,-338,,,,,,,,,1,5,12,4,,,,,,,,,,,,,,,,,,,,,,,,,,,,,,,,,,,,,,,,,,,,800.183431697078,None,801.2830245262012,None,802.2162461066619,None,1.5915343915343916,0.6670392965897918,802.2162461066619,None,,,,,,,,,,,,,,,,,180,001,2024_Mar_08_1346,SpeechDraft1Carolyn_lessNoise_PlusLocalization,2021.2.3,59.99406206519164,
,,,,,,,,farLeft,-19.1,5,ch1Sound_localizationTask.wav,-19.1,"(667, 878)","(-293,-202)",-285,-338,,,,,,,,,1,6,13,0,,,,,,,,,,,,,,,,,,,,,,,,,,,,,,,,,,,,,,,,,,,,802.8838041368872,None,803.9830101169646,None,804.9163310658187,None,1.2021164021164021,0.7511535352095962,804.9163310658187,None,,,,,,,,,,,,,,,,,180,001,2024_Mar_08_1346,SpeechDraft1Carolyn_lessNoise_PlusLocalization,2021.2.3,59.99406206519164,
,,,,,,,,nearRight,6.5,0,ch1Sound_localizationTask.wav,6.5,"(1047, 878)","(87, -202)",95,-338,,,,,,,,,2,0,14,4,,,,,,,,,,,,,,,,,,,,,,,,,,,,,,,,,,,,,,,,,,,,805.6832748427987,None,806.7828838350251,None,807.7163237361237,None,1.7433862433862433,0.6495224228128791,807.7163237361237,None,,,,,,,,,,,,,,,,,180,001,2024_Mar_08_1346,SpeechDraft1Carolyn_lessNoise_PlusLocalization,2021.2.3,59.99406206519164,
,,,,,,,,nearLeft,-6.5,1,ch1Sound_localizationTask.wav,-6.5,"(857, 878)","(-103,-202)",-95,-338,,,,,,,,,2,1,15,2,,,,,,,,,,,,,,,,,,,,,,,,,,,,,,,,,,,,,,,,,,,,808.3669424951077,None,809.466282424517,None,810.3995596878231,None,1.3206349206349206,0.8997184913605452,810.3995596878231,None,,,,,,,,,,,,,,,,,180,001,2024_Mar_08_1346,SpeechDraft1Carolyn_lessNoise_PlusLocalization,2021.2.3,59.99406206519164,
,,,,,,,,midLeft,-13.0,2,ch1Sound_localizationTask.wav,-13.0,"(762, 878)","(-198,-202)",-190,-338,,,,,,,,,2,2,16,1,,,,,,,,,,,,,,,,,,,,,,,,,,,,,,,,,,,,,,,,,,,,811.3008460858837,None,812.3996081445366,None,813.3329318296164,None,1.4116402116402116,1.1493868632242084,813.3329318296164,None,,,,,,,,,,,,,,,,,180,001,2024_Mar_08_1346,SpeechDraft1Carolyn_lessNoise_PlusLocalization,2021.2.3,59.99406206519164,
,,,,,,,,nearLeft,-6.5,1,ch1Sound_localizationTask.wav,-6.5,"(857, 878)","(-103,-202)",-95,-338,,,,,,,,,2,3,17,2,,,,,,,,,,,,,,,,,,,,,,,,,,,,,,,,,,,,,,,,,,,,814.4834094960243,None,815.582855255343,None,816.5165166622028,None,1.4243386243386245,0.6159413885325193,816.5165166622028,None,,,,,,,,,,,,,,,,,180,001,2024_Mar_08_1346,SpeechDraft1Carolyn_lessNoise_PlusLocalization,2021.2.3,59.99406206519164,
,,,,,,,,farRight,19.1,4,ch1Sound_localizationTask.wav,19.1,"(1237, 878)","(277,-202)",285,-338,,,,,,,,,2,4,18,6,,,,,,,,,,,,,,,,,,,,,,,,,,,,,,,,,,,,,,,,,,,,817.1500520333648,None,818.2496695872396,None,819.1833660975099,None,1.7846560846560846,1.034131626598537,819.1833660975099,None,,,,,,,,,,,,,,,,,180,001,2024_Mar_08_1346,SpeechDraft1Carolyn_lessNoise_PlusLocalization,2021.2.3,59.99406206519164,
,,,,,,,,nearRight,6.5,0,ch1Sound_localizationTask.wav,6.5,"(1047, 878)","(87, -202)",95,-338,,,,,,,,,2,5,19,4,,,,,,,,,,,,,,,,,,,,,,,,,,,,,,,,,,,,,,,,,,,,820.2335883369669,None,821.3330343235284,None,822.2669065818191,None,1.61005291005291,0.6660357685759664,822.2669065818191,None,,,,,,,,,,,,,,,,,180,001,2024_Mar_08_1346,SpeechDraft1Carolyn_lessNoise_PlusLocalization,2021.2.3,59.99406206519164,
,,,,,,,,farRight,19.1,4,ch1Sound_localizationTask.wav,19.1,"(1237, 878)","(277,-202)",285,-338,,,,,,,,,2,6,20,6,,,,,,,,,,,,,,,,,,,,,,,,,,,,,,,,,,,,,,,,,,,,822.9340217541903,None,824.0330405393615,None,824.9664300503209,None,1.844973544973545,0.6338142827153206,824.9664300503209,None,,,,,,,,,,,,,,,,,180,001,2024_Mar_08_1346,SpeechDraft1Carolyn_lessNoise_PlusLocalization,2021.2.3,59.99406206519164,
,,,,,,,,nearRight,6.5,0,ch1Sound_localizationTask.wav,6.5,"(1047, 878)","(87, -202)",95,-338,,,,,,,,,3,0,21,4,,,,,,,,,,,,,,,,,,,,,,,,,,,,,,,,,,,,,,,,,,,,825.6166607616469,None,826.7162216678262,None,827.6497327489778,None,1.6179894179894179,0.8676801649853587,827.6497327489778,None,,,,,,,,,,,,,,,,,180,001,2024_Mar_08_1346,SpeechDraft1Carolyn_lessNoise_PlusLocalization,2021.2.3,59.99406206519164,
,,,,,,,,farLeft,-19.1,5,ch1Sound_localizationTask.wav,-19.1,"(667, 878)","(-293,-202)",-285,-338,,,,,,,,,3,1,22,0,,,,,,,,,,,,,,,,,,,,,,,,,,,,,,,,,,,,,,,,,,,,828.533299616538,None,829.6330162910745,None,830.5662586959079,None,1.1714285714285715,1.2997004156932235,830.5662586959079,None,,,,,,,,,,,,,,,,,180,001,2024_Mar_08_1346,SpeechDraft1Carolyn_lessNoise_PlusLocalization,2021.2.3,59.99406206519164,
,,,,,,,,midLeft,-13.0,2,ch1Sound_localizationTask.wav,-13.0,"(762, 878)","(-198,-202)",-190,-338,,,,,,,,,3,2,23,1,,,,,,,,,,,,,,,,,,,,,,,,,,,,,,,,,,,,,,,,,,,,831.8672726806253,None,832.96645668149,None,833.8997289966792,None,1.334920634920635,0.4823353514075279,833.8997289966792,None,,,,,,,,,,,,,,,,,180,001,2024_Mar_08_1346,SpeechDraft1Carolyn_lessNoise_PlusLocalization,2021.2.3,59.99406206519164,
,,,,,,,,midRight,13.0,3,ch1Sound_localizationTask.wav,13.0,"(1142, 878)","(182, -202)",190,-338,,,,,,,,,3,3,24,5,,,,,,,,,,,,,,,,,,,,,,,,,,,,,,,,,,,,,,,,,,,,834.4000837430358,None,835.4997615376487,None,836.4328661980107,None,1.6777777777777778,0.7161850985139608,836.4328661980107,None,,,,,,,,,,,,,,,,,180,001,2024_Mar_08_1346,SpeechDraft1Carolyn_lessNoise_PlusLocalization,2021.2.3,59.99406206519164,
,,,,,,,,nearLeft,-6.5,1,ch1Sound_localizationTask.wav,-6.5,"(857, 878)","(-103,-202)",-95,-338,,,,,,,,,3,4,25,2,,,,,,,,,,,,,,,,,,,,,,,,,,,,,,,,,,,,,,,,,,,,837.1507014678791,None,838.2495854701847,None,839.1829025838524,None,1.3957671957671958,0.5322450343519449,839.1829025838524,None,,,,,,,,,,,,,,,,,180,001,2024_Mar_08_1346,SpeechDraft1Carolyn_lessNoise_PlusLocalization,2021.2.3,59.99406206519164,
,,,,,,,,midLeft,-13.0,2,ch1Sound_localizationTask.wav,-13.0,"(762, 878)","(-198,-202)",-190,-338,,,,,,,,,3,5,26,1,,,,,,,,,,,,,,,,,,,,,,,,,,,,,,,,,,,,,,,,,,,,839.7166849235073,None,840.8163067642599,None,841.7495791753754,None,1.3047619047619048,0.5660005528479815,841.7495791753754,None,,,,,,,,,,,,,,,,,180,001,2024_Mar_08_1346,SpeechDraft1Carolyn_lessNoise_PlusLocalization,2021.2.3,59.99406206519164,
,,,,,,,,midRight,13.0,3,ch1Sound_localizationTask.wav,13.0,"(1142, 878)","(182, -202)",190,-338,,,,,,,,,3,6,27,5,,,,,,,,,,,,,,,,,,,,,,,,,,,,,,,,,,,,,,,,,,,,842.3172528753057,None,843.4163177609444,None,844.3497833907604,None,1.7164021164021164,0.7483658259734511,844.3497833907604,None,,,,,,,,,,,,,,,,,180,001,2024_Mar_08_1346,SpeechDraft1Carolyn_lessNoise_PlusLocalization,2021.2.3,59.99406206519164,
,,,,,,,,farRight,19.1,4,ch1Sound_localizationTask.wav,19.1,"(1237, 878)","(277,-202)",285,-338,,,,,,,,,4,0,28,6,,,,,,,,,,,,,,,,,,,,,,,,,,,,,,,,,,,,,,,,,,,,845.0999690936878,None,846.199660458602,None,847.1329841343686,None,1.807936507936508,0.615828319452703,847.1329841343686,None,,,,,,,,,,,,,,,,,180,001,2024_Mar_08_1346,SpeechDraft1Carolyn_lessNoise_PlusLocalization,2021.2.3,59.99406206519164,
,,,,,,,,farRight,19.1,4,ch1Sound_localizationTask.wav,19.1,"(1237, 878)","(277,-202)",285,-338,,,,,,,,,4,1,29,6,,,,,,,,,,,,,,,,,,,,,,,,,,,,,,,,,,,,,,,,,,,,847.7502350360155,None,848.8496538177133,None,849.7830841215327,None,1.8238095238095238,0.3666336853057146,849.7830841215327,None,,,,,,,,,,,,,,,,,180,001,2024_Mar_08_1346,SpeechDraft1Carolyn_lessNoise_PlusLocalization,2021.2.3,59.99406206519164,
,,,,,,,,farLeft,-19.1,5,ch1Sound_localizationTask.wav,-19.1,"(667, 878)","(-293,-202)",-285,-338,,,,,,,,,4,2,30,0,,,,,,,,,,,,,,,,,,,,,,,,,,,,,,,,,,,,,,,,,,,,850.1505320211872,None,851.2497167140245,None,852.1831925241277,None,1.3111111111111111,0.6327116833999753,852.1831925241277,None,,,,,,,,,,,,,,,,,180,001,2024_Mar_08_1346,SpeechDraft1Carolyn_lessNoise_PlusLocalization,2021.2.3,59.99406206519164,
,,,,,,,,nearRight,6.5,0,ch1Sound_localizationTask.wav,6.5,"(1047, 878)","(87, -202)",95,-338,,,,,,,,,4,3,31,4,,,,,,,,,,,,,,,,,,,,,,,,,,,,,,,,,,,,,,,,,,,,852.8172156186774,None,853.9163447087631,None,854.8497377326712,None,1.6603174603174602,0.9002838442102075,854.8497377326712,None,,,,,,,,,,,,,,,,,180,001,2024_Mar_08_1346,SpeechDraft1Carolyn_lessNoise_PlusLocalization,2021.2.3,59.99406206519164,
,,,,,,,,farLeft,-19.1,5,ch1Sound_localizationTask.wav,-19.1,"(667, 878)","(-293,-202)",-285,-338,,,,,,,,,4,4,32,0,,,,,,,,,,,,,,,,,,,,,,,,,,,,,,,,,,,,,,,,,,,,855.7666197437793,None,856.8662320226431,None,857.7997332122177,None,1.2105820105820104,0.9322337470948696,857.7997332122177,None,,,,,,,,,,,,,,,,,180,001,2024_Mar_08_1346,SpeechDraft1Carolyn_lessNoise_PlusLocalization,2021.2.3,59.99406206519164,
,,,,,,,,midRight,13.0,3,ch1Sound_localizationTask.wav,13.0,"(1142, 878)","(182, -202)",190,-338,,,,,,,,,4,5,33,5,,,,,,,,,,,,,,,,,,,,,,,,,,,,,,,,,,,,,,,,,,,,858.7335667870939,None,859.8329842789099,None,860.7663212837651,None,1.6693121693121693,1.1332437125965953,860.7663212837651,None,,,,,,,,,,,,,,,,,180,001,2024_Mar_08_1346,SpeechDraft1Carolyn_lessNoise_PlusLocalization,2021.2.3,59.99406206519164,
,,,,,,,,midLeft,-13.0,2,ch1Sound_localizationTask.wav,-13.0,"(762, 878)","(-198,-202)",-190,-338,,,,,,,,,4,6,34,1,,,,,,,,,,,,,,,,,,,,,,,,,,,,,,,,,,,,,,,,,,,,861.9168431395665,None,863.0163950491697,None,863.9497028971091,None,1.3756613756613758,0.8663744814693928,863.9497028971091,None,,,,,,,,,,,,,,,,,180,001,2024_Mar_08_1346,SpeechDraft1Carolyn_lessNoise_PlusLocalization,2021.2.3,59.99406206519164,
,,,,,,,,midLeft,-13.0,2,ch1Sound_localizationTask.wav,-13.0,"(762, 878)","(-198,-202)",-190,-338,,,,,,,,,5,0,35,1,,,,,,,,,,,,,,,,,,,,,,,,,,,,,,,,,,,,,,,,,,,,864.8332351660356,None,865.9329868387431,None,866.8665712792426,None,1.3518518518518519,0.635325949639082,866.8665712792426,None,,,,,,,,,,,,,,,,,180,001,2024_Mar_08_1346,SpeechDraft1Carolyn_lessNoise_PlusLocalization,2021.2.3,59.99406206519164,
,,,,,,,,farRight,19.1,4,ch1Sound_localizationTask.wav,19.1,"(1237, 878)","(277,-202)",285,-338,,,,,,,,,5,1,36,6,,,,,,,,,,,,,,,,,,,,,,,,,,,,,,,,,,,,,,,,,,,,867.5166377397254,None,868.6164051406085,None,869.5497723678127,None,1.7380952380952381,0.6158784423023462,869.5497723678127,None,,,,,,,,,,,,,,,,,180,001,2024_Mar_08_1346,SpeechDraft1Carolyn_lessNoise_PlusLocalization,2021.2.3,59.99406206519164,
,,,,,,,,farLeft,-19.1,5,ch1Sound_localizationTask.wav,-19.1,"(667, 878)","(-293,-202)",-285,-338,,,,,,,,,5,2,37,0,,,,,,,,,,,,,,,,,,,,,,,,,,,,,,,,,,,,,,,,,,,,870.1667333459482,None,871.2664882577956,None,872.1997773582116,None,1.3174603174603174,0.616946523077786,872.1997773582116,None,,,,,,,,,,,,,,,,,180,001,2024_Mar_08_1346,SpeechDraft1Carolyn_lessNoise_PlusLocalization,2021.2.3,59.99406206519164,
,,,,,,,,center,0.0,6,ch1Sound_localizationTask.wav,0.0,"(952, 878)","(-8,-202)",0,-338,,,,,,,,,5,3,38,3,,,,,,,,,,,,,,,,,,,,,,,,,,,,,,,,,,,,,,,,,,,,872.8333560572937,None,873.9331246195361,None,874.8663400178775,None,1.4973544973544972,0.7156872842460871,874.8663400178775,None,,,,,,,,,,,,,,,,,180,001,2024_Mar_08_1346,SpeechDraft1Carolyn_lessNoise_PlusLocalization,2021.2.3,59.99406206519164,
,,,,,,,,nearLeft,-6.5,1,ch1Sound_localizationTask.wav,-6.5,"(857, 878)","(-103,-202)",-95,-338,,,,,,,,,5,4,39,2,,,,,,,,,,,,,,,,,,,,,,,,,,,,,,,,,,,,,,,,,,,,875.5834120335057,None,876.6830435637385,None,877.6164517179132,None,1.4518518518518517,0.5668403198942542,877.6164517179132,None,,,,,,,,,,,,,,,,,180,001,2024_Mar_08_1346,SpeechDraft1Carolyn_lessNoise_PlusLocalization,2021.2.3,59.99406206519164,
,,,,,,,,farRight,19.1,4,ch1Sound_localizationTask.wav,19.1,"(1237, 878)","(277,-202)",285,-338,,,,,,,,,5,5,40,6,,,,,,,,,,,,,,,,,,,,,,,,,,,,,,,,,,,,,,,,,,,,878.1840028399602,None,879.2830869089812,None,880.2163741476834,None,1.773015873015873,0.5320598920807242,880.2163741476834,None,,,,,,,,,,,,,,,,,180,001,2024_Mar_08_1346,SpeechDraft1Carolyn_lessNoise_PlusLocalization,2021.2.3,59.99406206519164,
,,,,,,,,farRight,19.1,4,ch1Sound_localizationTask.wav,19.1,"(1237, 878)","(277,-202)",285,-338,,,,,,,,,5,6,41,6,,,,,,,,,,,,,,,,,,,,,,,,,,,,,,,,,,,,,,,,,,,,880.750036297366,None,881.8497330676764,None,882.783159785904,None,1.7682539682539682,0.45057970099151134,882.783159785904,None,,,,,,,,,,,,,,,,,180,001,2024_Mar_08_1346,SpeechDraft1Carolyn_lessNoise_PlusLocalization,2021.2.3,59.99406206519164,
,,,,,,,,center,0.0,6,ch1Sound_localizationTask.wav,0.0,"(952, 878)","(-8,-202)",0,-338,,,,,,,,,6,0,42,3,,,,,,,,,,,,,,,,,,,,,,,,,,,,,,,,,,,,,,,,,,,,883.250122603029,None,884.349896075204,None,885.2830576309934,None,1.5074074074074075,0.6994964564219117,885.2830576309934,None,,,,,,,,,,,,,,,,,180,001,2024_Mar_08_1346,SpeechDraft1Carolyn_lessNoise_PlusLocalization,2021.2.3,59.99406206519164,
,,,,,,,,farLeft,-19.1,5,ch1Sound_localizationTask.wav,-19.1,"(667, 878)","(-293,-202)",-285,-338,,,,,,,,,6,1,43,0,,,,,,,,,,,,,,,,,,,,,,,,,,,,,,,,,,,,,,,,,,,,885.9839748675004,None,887.0831003859639,None,888.0165368849412,None,1.2576719576719577,0.5006900019943714,888.0165368849412,None,,,,,,,,,,,,,,,,,180,001,2024_Mar_08_1346,SpeechDraft1Carolyn_lessNoise_PlusLocalization,2021.2.3,59.99406206519164,
,,,,,,,,midRight,13.0,3,ch1Sound_localizationTask.wav,13.0,"(1142, 878)","(182, -202)",190,-338,,,,,,,,,6,2,44,5,,,,,,,,,,,,,,,,,,,,,,,,,,,,,,,,,,,,,,,,,,,,888.5333453603089,None,889.6330209188163,None,890.5663650836796,None,1.6465608465608466,0.7994074681773782,890.5663650836796,None,,,,,,,,,,,,,,,,,180,001,2024_Mar_08_1346,SpeechDraft1Carolyn_lessNoise_PlusLocalization,2021.2.3,59.99406206519164,
,,,,,,,,farLeft,-19.1,5,ch1Sound_localizationTask.wav,-19.1,"(667, 878)","(-293,-202)",-285,-338,,,,,,,,,6,3,45,0,,,,,,,,,,,,,,,,,,,,,,,,,,,,,,,,,,,,,,,,,,,,891.3671477939934,None,892.4663861580193,None,893.3998160138726,None,1.2560846560846561,0.7336142361164093,893.3998160138726,None,,,,,,,,,,,,,,,,,180,001,2024_Mar_08_1346,SpeechDraft1Carolyn_lessNoise_PlusLocalization,2021.2.3,59.99406206519164,
,,,,,,,,nearRight,6.5,0,ch1Sound_localizationTask.wav,6.5,"(1047, 878)","(87, -202)",95,-338,,,,,,,,,6,4,46,4,,,,,,,,,,,,,,,,,,,,,,,,,,,,,,,,,,,,,,,,,,,,894.1341626830399,None,895.2330257482827,None,896.1665059737861,None,1.553968253968254,1.0494272289797664,896.1665059737861,None,,,,,,,,,,,,,,,,,180,001,2024_Mar_08_1346,SpeechDraft1Carolyn_lessNoise_PlusLocalization,2021.2.3,59.99406206519164,
,,,,,,,,farRight,19.1,4,ch1Sound_localizationTask.wav,19.1,"(1237, 878)","(277,-202)",285,-338,,,,,,,,,6,5,47,6,,,,,,,,,,,,,,,,,,,,,,,,,,,,,,,,,,,,,,,,,,,,897.2171426881105,None,898.3164586322382,None,899.249919607304,None,1.7767195767195767,0.6657525645568967,899.249919607304,None,,,,,,,,,,,,,,,,,180,001,2024_Mar_08_1346,SpeechDraft1Carolyn_lessNoise_PlusLocalization,2021.2.3,59.99406206519164,
,,,,,,,,farLeft,-19.1,5,ch1Sound_localizationTask.wav,-19.1,"(667, 878)","(-293,-202)",-285,-338,,,,,,,,,6,6,48,0,,,,,,,,,,,,,,,,,,,,,,,,,,,,,,,,,,,,,,,,,,,,899.9167226180434,None,901.0163579778746,None,901.9497050773352,None,1.2560846560846561,0.9007856277748942,901.9497050773352,None,,,,,,,,,,,,,,,,,180,001,2024_Mar_08_1346,SpeechDraft1Carolyn_lessNoise_PlusLocalization,2021.2.3,59.99406206519164,
,,,,,,,,center,0.0,6,ch1Sound_localizationTask.wav,0.0,"(952, 878)","(-8,-202)",0,-338,,,,,,,,,7,0,49,3,,,,,,,,,,,,,,,,,,,,,,,,,,,,,,,,,,,,,,,,,,,,902.867116427049,None,903.9665468828753,None,904.8999484768137,None,1.5507936507936508,0.6146572539582849,904.8999484768137,None,,,,,,,,,,,,,,,,,180,001,2024_Mar_08_1346,SpeechDraft1Carolyn_lessNoise_PlusLocalization,2021.2.3,59.99406206519164,
,,,,,,,,nearLeft,-6.5,1,ch1Sound_localizationTask.wav,-6.5,"(857, 878)","(-103,-202)",-95,-338,,,,,,,,,7,1,50,2,,,,,,,,,,,,,,,,,,,,,,,,,,,,,,,,,,,,,,,,,,,,905.5169595628977,None,906.6163877053186,None,907.5497824270278,None,1.4174603174603175,0.5169607801362872,907.5497824270278,None,,,,,,,,,,,,,,,,,180,001,2024_Mar_08_1346,SpeechDraft1Carolyn_lessNoise_PlusLocalization,2021.2.3,59.99406206519164,
,,,,,,,,center,0.0,6,ch1Sound_localizationTask.wav,0.0,"(952, 878)","(-8,-202)",0,-338,,,,,,,,,7,2,51,3,,,,,,,,,,,,,,,,,,,,,,,,,,,,,,,,,,,,,,,,,,,,908.0835707923397,None,909.1831217231229,None,910.1162913152948,None,1.541798941798942,0.5652961330488324,910.1162913152948,None,,,,,,,,,,,,,,,,,180,001,2024_Mar_08_1346,SpeechDraft1Carolyn_lessNoise_PlusLocalization,2021.2.3,59.99406206519164,
,,,,,,,,midRight,13.0,3,ch1Sound_localizationTask.wav,13.0,"(1142, 878)","(182, -202)",190,-338,,,,,,,,,7,3,52,5,,,,,,,,,,,,,,,,,,,,,,,,,,,,,,,,,,,,,,,,,,,,910.6835315171629,None,911.783096967265,None,912.7166076041758,None,1.6767195767195768,0.6161737302318215,912.7166076041758,None,,,,,,,,,,,,,,,,,180,001,2024_Mar_08_1346,SpeechDraft1Carolyn_lessNoise_PlusLocalization,2021.2.3,59.99406206519164,
,,,,,,,,center,0.0,6,ch1Sound_localizationTask.wav,0.0,"(952, 878)","(-8,-202)",0,-338,,,,,,,,,7,4,53,3,,,,,,,,,,,,,,,,,,,,,,,,,,,,,,,,,,,,,,,,,,,,913.3338274545968,None,914.4332419028506,None,915.3666142709553,None,1.482010582010582,0.5510584572330117,915.3666142709553,None,,,,,,,,,,,,,,,,,180,001,2024_Mar_08_1346,SpeechDraft1Carolyn_lessNoise_PlusLocalization,2021.2.3,59.99406206519164,
,,,,,,,,center,0.0,6,ch1Sound_localizationTask.wav,0.0,"(952, 878)","(-8,-202)",0,-338,,,,,,,,,7,5,54,3,,,,,,,,,,,,,,,,,,,,,,,,,,,,,,,,,,,,,,,,,,,,915.9333450170234,None,917.0330484677106,None,917.966510951519,None,1.528042328042328,0.20077628921717405,917.966510951519,None,,,,,,,,,,,,,,,,,180,001,2024_Mar_08_1346,SpeechDraft1Carolyn_lessNoise_PlusLocalization,2021.2.3,59.99406206519164,
,,,,,,,,center,0.0,6,ch1Sound_localizationTask.wav,0.0,"(952, 878)","(-8,-202)",0,-338,,,,,,,,,7,6,55,3,,,,,,,,,,,,,,,,,,,,,,,,,,,,,,,,,,,,,,,,,,,,918.1833656420931,None,919.2832210389897,None,920.2164418669418,None,1.528042328042328,0.33253404684364796,920.2164418669418,None,,,,,,,,,,,,,,,,,180,001,2024_Mar_08_1346,SpeechDraft1Carolyn_lessNoise_PlusLocalization,2021.2.3,59.99406206519164,
,,,,,,,,,,,,,,,,,,,,,,,,,,,,,,,,,,,,,,,,,,,,,,,,,,,,,,,,,,,,,,,,,,,,,,,,,,,,,,,,,,space,6.50940914452076,920.6335221938789,None,,,,,,,,,,,,,180,001,2024_Mar_08_1346,SpeechDraft1Carolyn_lessNoise_PlusLocalization,2021.2.3,59.99406206519164,
,,,,,,,,center,0.0,6,ch1Sound_localizationTask.wav,0.0,"(952, 878)","(-8,-202)",0,-338,,,,,,,,,,,,,0,0,0,3,,,,,,,,,,,,,,,,,,,,,,,,,,,,,,,,,,,,,,,,927.1835315413773,None,,,930.2164663299918,None,1.4978835978835978,0.80368946865201,930.2164663299918,None,,,,,920.6335221938789,None,928.1833935510367,None,928.3667923081666,928.3834293112159,,,,,,,180,001,2024_Mar_08_1346,SpeechDraft1Carolyn_lessNoise_PlusLocalization,2021.2.3,59.99406206519164,
,,,,,,,,center,0.0,6,ch1Sound_localizationTask.wav,0.0,"(952, 878)","(-8,-202)",0,-338,,,,,,,,,,,,,0,1,1,3,,,,,,,,,,,,,,,,,,,,,,,,,,,,,,,,,,,,,,,,931.0178230106831,None,,,934.0499425577,None,1.5047619047619047,0.3673336859792471,934.0499425577,None,,,,,,,932.0333997942507,None,932.2167299529538,932.2334346882999,,,,,,,180,001,2024_Mar_08_1346,SpeechDraft1Carolyn_lessNoise_PlusLocalization,2021.2.3,59.99406206519164,
,,,,,,,,midRight,13.0,3,ch1Sound_localizationTask.wav,13.0,"(1142, 878)","(182, -202)",190,-338,,,,,,,,,,,,,0,2,2,5,,,,,,,,,,,,,,,,,,,,,,,,,,,,,,,,,,,,,,,,934.4335873387754,None,,,937.4498062469065,None,1.6074074074074074,0.5825273236259818,937.4498062469065,None,,,,,,,935.4333554683253,None,935.6167706940323,935.6337386006489,,,,,,,180,001,2024_Mar_08_1346,SpeechDraft1Carolyn_lessNoise_PlusLocalization,2021.2.3,59.99406206519164,
,,,,,,,,nearLeft,-6.5,1,ch1Sound_localizationTask.wav,-6.5,"(857, 878)","(-103,-202)",-95,-338,,,,,,,,,,,,,0,3,3,2,,,,,,,,,,,,,,,,,,,,,,,,,,,,,,,,,,,,,,,,938.050077280961,None,,,941.0665062917396,None,1.4238095238095239,0.8821987165138125,941.0665062917396,None,,,,,,,939.0501418421045,None,939.233429973945,939.250134290196,,,,,,,180,001,2024_Mar_08_1346,SpeechDraft1Carolyn_lessNoise_PlusLocalization,2021.2.3,59.99406206519164,
,,,,,,,,nearRight,6.5,0,ch1Sound_localizationTask.wav,6.5,"(1047, 878)","(87, -202)",95,-338,,,,,,,,,,,,,0,4,4,4,,,,,,,,,,,,,,,,,,,,,,,,,,,,,,,,,,,,,,,,941.9667750271037,None,,,944.9831332806498,None,1.5555555555555556,0.7823838070034981,944.9831332806498,None,,,,,,,942.9668161123991,None,943.1501521933824,943.1667641298845,,,,,,,180,001,2024_Mar_08_1346,SpeechDraft1Carolyn_lessNoise_PlusLocalization,2021.2.3,59.99406206519164,
,,,,,,,,midRight,13.0,3,ch1Sound_localizationTask.wav,13.0,"(1142, 878)","(182, -202)",190,-338,,,,,,,,,,,,,0,5,5,5,,,,,,,,,,,,,,,,,,,,,,,,,,,,,,,,,,,,,,,,945.7835739217699,None,,,948.7997395470738,None,1.6126984126984127,0.7993942806497216,948.7997395470738,None,,,,,,,946.7835094155744,None,946.9667052477598,946.9834022792056,,,,,,,180,001,2024_Mar_08_1346,SpeechDraft1Carolyn_lessNoise_PlusLocalization,2021.2.3,59.99406206519164,
,,,,,,,,farLeft,-19.1,5,ch1Sound_localizationTask.wav,-19.1,"(667, 878)","(-293,-202)",-285,-338,,,,,,,,,,,,,0,6,6,0,,,,,,,,,,,,,,,,,,,,,,,,,,,,,,,,,,,,,,,,949.6012039110065,None,,,952.6333866491914,None,1.3465608465608465,1.0156111735850573,952.6333866491914,None,,,,,,,950.6167455986142,None,950.8000960033387,950.8167312256992,,,,,,,180,001,2024_Mar_08_1346,SpeechDraft1Carolyn_lessNoise_PlusLocalization,2021.2.3,59.99406206519164,
,,,,,,,,farRight,19.1,4,ch1Sound_localizationTask.wav,19.1,"(1237, 878)","(277,-202)",285,-338,,,,,,,,,,,,,1,0,7,6,,,,,,,,,,,,,,,,,,,,,,,,,,,,,,,,,,,,,,,,953.651078550145,None,,,956.6664895741269,None,1.6486772486772487,1.0332967666909099,956.6664895741269,None,,,,,,,954.6501187263057,None,954.8334168642759,954.850061875768,,,,,,,180,001,2024_Mar_08_1346,SpeechDraft1Carolyn_lessNoise_PlusLocalization,2021.2.3,59.99406206519164,
,,,,,,,,nearLeft,-6.5,1,ch1Sound_localizationTask.wav,-6.5,"(857, 878)","(-103,-202)",-95,-338,,,,,,,,,,,,,1,1,8,2,,,,,,,,,,,,,,,,,,,,,,,,,,,,,,,,,,,,,,,,957.7013514023274,None,,,960.7331213811412,None,1.4412698412698413,0.7660068068653345,960.7331213811412,None,,,,,,,958.7168466867879,None,958.9001472583041,958.9168203016743,,,,,,,180,001,2024_Mar_08_1346,SpeechDraft1Carolyn_lessNoise_PlusLocalization,2021.2.3,59.99406206519164,
,,,,,,,,midLeft,-13.0,2,ch1Sound_localizationTask.wav,-13.0,"(762, 878)","(-198,-202)",-190,-338,,,,,,,,,,,,,1,2,9,1,,,,,,,,,,,,,,,,,,,,,,,,,,,,,,,,,,,,,,,,961.5168061107397,None,,,964.5332869077101,None,1.402116402116402,0.832843323238194,964.5332869077101,None,,,,,,,962.5167702836916,None,962.7001414541155,962.7168496847153,,,,,,,180,001,2024_Mar_08_1346,SpeechDraft1Carolyn_lessNoise_PlusLocalization,2021.2.3,59.99406206519164,
,,,,,,,,farLeft,-19.1,5,ch1Sound_localizationTask.wav,-19.1,"(667, 878)","(-293,-202)",-285,-338,,,,,,,,,,,,,1,3,10,0,,,,,,,,,,,,,,,,,,,,,,,,,,,,,,,,,,,,,,,,965.367013364099,None,,,968.3831898402423,None,1.3656084656084655,0.6327799847349524,968.3831898402423,None,,,,,,,966.3667635302991,None,966.5500605022535,966.5667181070894,,,,,,,180,001,2024_Mar_08_1346,SpeechDraft1Carolyn_lessNoise_PlusLocalization,2021.2.3,59.99406206519164,
,,,,,,,,midLeft,-13.0,2,ch1Sound_localizationTask.wav,-13.0,"(762, 878)","(-198,-202)",-190,-338,,,,,,,,,,,,,1,4,11,1,,,,,,,,,,,,,,,,,,,,,,,,,,,,,,,,,,,,,,,,969.018127839081,None,,,972.0499143991619,None,1.4058201058201059,0.7667116252705455,972.0499143991619,None,,,,,,,970.0334863001481,None,970.2167490692809,970.2335053225979,,,,,,,180,001,2024_Mar_08_1346,SpeechDraft1Carolyn_lessNoise_PlusLocalization,2021.2.3,59.99406206519164,
,,,,,,,,farLeft,-19.1,5,ch1Sound_localizationTask.wav,-19.1,"(667, 878)","(-293,-202)",-285,-338,,,,,,,,,,,,,1,5,12,0,,,,,,,,,,,,,,,,,,,,,,,,,,,,,,,,,,,,,,,,972.8334413385019,None,,,975.8498330330476,None,1.362962962962963,0.8323729913681746,975.8498330330476,None,,,,,,,973.8334781518206,None,974.0168023100123,974.033436964266,,,,,,,180,001,2024_Mar_08_1346,SpeechDraft1Carolyn_lessNoise_PlusLocalization,2021.2.3,59.99406206519164,
,,,,,,,,nearRight,6.5,0,ch1Sound_localizationTask.wav,6.5,"(1047, 878)","(87, -202)",95,-338,,,,,,,,,,,,,1,6,13,4,,,,,,,,,,,,,,,,,,,,,,,,,,,,,,,,,,,,,,,,976.6842540372163,None,,,979.6999495960772,None,1.5433862433862435,0.7495190659537911,979.6999495960772,None,,,,,,,977.6836510775611,None,977.8667934769765,977.8834889652207,,,,,,,180,001,2024_Mar_08_1346,SpeechDraft1Carolyn_lessNoise_PlusLocalization,2021.2.3,59.99406206519164,
,,,,,,,,midRight,13.0,3,ch1Sound_localizationTask.wav,13.0,"(1142, 878)","(182, -202)",190,-338,,,,,,,,,,,,,2,0,14,5,,,,,,,,,,,,,,,,,,,,,,,,,,,,,,,,,,,,,,,,980.4510007016361,None,,,983.4667305871844,None,1.6037037037037036,0.6317817652598023,983.4667305871844,None,,,,,,,981.4501367760822,None,981.633512608707,981.6501976689324,,,,,,,180,001,2024_Mar_08_1346,SpeechDraft1Carolyn_lessNoise_PlusLocalization,2021.2.3,59.99406206519164,
,,,,,,,,nearRight,6.5,0,ch1Sound_localizationTask.wav,6.5,"(1047, 878)","(87, -202)",95,-338,,,,,,,,,,,,,2,1,15,4,,,,,,,,,,,,,,,,,,,,,,,,,,,,,,,,,,,,,,,,984.1007022280246,None,,,987.1165489768609,None,1.5687830687830688,0.648872148245573,987.1165489768609,None,,,,,,,985.1001254888251,None,985.2835492901504,985.3001804212108,,,,,,,180,001,2024_Mar_08_1346,SpeechDraft1Carolyn_lessNoise_PlusLocalization,2021.2.3,59.99406206519164,
,,,,,,,,farRight,19.1,4,ch1Sound_localizationTask.wav,19.1,"(1237, 878)","(277,-202)",285,-338,,,,,,,,,,,,,2,2,16,6,,,,,,,,,,,,,,,,,,,,,,,,,,,,,,,,,,,,,,,,987.7678700396791,None,,,990.7831661729142,None,1.6470899470899472,0.5827430803328753,990.7831661729142,None,,,,,,,988.7668237127364,None,988.9502351749688,988.9668265078217,,,,,,,180,001,2024_Mar_08_1346,SpeechDraft1Carolyn_lessNoise_PlusLocalization,2021.2.3,59.99406206519164,
,,,,,,,,nearLeft,-6.5,1,ch1Sound_localizationTask.wav,-6.5,"(857, 878)","(-103,-202)",-95,-338,,,,,,,,,,,,,2,3,17,2,,,,,,,,,,,,,,,,,,,,,,,,,,,,,,,,,,,,,,,,991.3676712550223,None,,,994.3832191508263,None,1.4507936507936507,0.9509734427556396,994.3832191508263,None,,,,,,,992.3668621806428,None,992.5502600586042,992.5667693465948,,,,,,,180,001,2024_Mar_08_1346,SpeechDraft1Carolyn_lessNoise_PlusLocalization,2021.2.3,59.99406206519164,
,,,,,,,,nearLeft,-6.5,1,ch1Sound_localizationTask.wav,-6.5,"(857, 878)","(-103,-202)",-95,-338,,,,,,,,,,,,,2,4,18,2,,,,,,,,,,,,,,,,,,,,,,,,,,,,,,,,,,,,,,,,995.3500669915229,None,,,998.3665592838079,None,1.4126984126984126,0.7495476389303803,998.3665592838079,None,,,,,,,996.3501809667796,None,996.533532500267,996.5502369403839,,,,,,,180,001,2024_Mar_08_1346,SpeechDraft1Carolyn_lessNoise_PlusLocalization,2021.2.3,59.99406206519164,
,,,,,,,,farRight,19.1,4,ch1Sound_localizationTask.wav,19.1,"(1237, 878)","(277,-202)",285,-338,,,,,,,,,,,,,2,5,19,6,,,,,,,,,,,,,,,,,,,,,,,,,,,,,,,,,,,,,,,,999.1335959499702,None,,,1002.1500860629603,None,1.6523809523809523,0.9988515023142099,1002.1500860629603,None,,,,,,,1000.1334341112524,None,1000.3168650837615,1000.3334454149008,,,,,,,180,001,2024_Mar_08_1346,SpeechDraft1Carolyn_lessNoise_PlusLocalization,2021.2.3,59.99406206519164,
,,,,,,,,farLeft,-19.1,5,ch1Sound_localizationTask.wav,-19.1,"(667, 878)","(-293,-202)",-285,-338,,,,,,,,,,,,,2,6,20,0,,,,,,,,,,,,,,,,,,,,,,,,,,,,,,,,,,,,,,,,1003.1508776377887,None,,,1006.1670274212956,None,1.3365079365079366,1.6295937271788716,1006.1670274212956,None,,,,,,,1004.1502262912691,None,1004.3334688488394,1004.3501839106902,,,,,,,180,001,2024_Mar_08_1346,SpeechDraft1Carolyn_lessNoise_PlusLocalization,2021.2.3,59.99406206519164,
,,,,,,,,midRight,13.0,3,ch1Sound_localizationTask.wav,13.0,"(1142, 878)","(182, -202)",190,-338,,,,,,,,,,,,,3,0,21,5,,,,,,,,,,,,,,,,,,,,,,,,,,,,,,,,,,,,,,,,1007.8007068280131,None,,,1010.8166720950976,None,1.6216931216931219,0.6967766219750047,1010.8166720950976,None,,,,,,,1008.800172877498,None,1008.9835471883416,1009.0004773121327,,,,,,,180,001,2024_Mar_08_1346,SpeechDraft1Carolyn_lessNoise_PlusLocalization,2021.2.3,59.99406206519164,
,,,,,,,,nearRight,6.5,0,ch1Sound_localizationTask.wav,6.5,"(1047, 878)","(87, -202)",95,-338,,,,,,,,,,,,,3,1,22,4,,,,,,,,,,,,,,,,,,,,,,,,,,,,,,,,,,,,,,,,1011.5169726489112,None,,,1014.5333550572395,None,1.5507936507936508,0.5492814220488071,1014.5333550572395,None,,,,,,,1012.5170217659324,None,1012.7002317849547,1012.7169416276738,,,,,,,180,001,2024_Mar_08_1346,SpeechDraft1Carolyn_lessNoise_PlusLocalization,2021.2.3,59.99406206519164,
,,,,,,,,midRight,13.0,3,ch1Sound_localizationTask.wav,13.0,"(1142, 878)","(182, -202)",190,-338,,,,,,,,,,,,,3,2,23,5,,,,,,,,,,,,,,,,,,,,,,,,,,,,,,,,,,,,,,,,1015.0842147478834,None,,,1018.1000372348353,None,1.5862433862433862,0.6175442291423678,1018.1000372348353,None,,,,,,,1016.0836284048855,None,1016.2670496990904,1016.2838122081012,,,,,,,180,001,2024_Mar_08_1346,SpeechDraft1Carolyn_lessNoise_PlusLocalization,2021.2.3,59.99406206519164,
,,,,,,,,farRight,19.1,4,ch1Sound_localizationTask.wav,19.1,"(1237, 878)","(277,-202)",285,-338,,,,,,,,,,,,,3,3,24,6,,,,,,,,,,,,,,,,,,,,,,,,,,,,,,,,,,,,,,,,1018.7335444483906,None,,,1021.7499660495669,None,1.6534391534391535,0.7827586671337485,1021.7499660495669,None,,,,,,,1019.7334810057655,None,1019.9169245371595,1019.9335192777216,,,,,,,180,001,2024_Mar_08_1346,SpeechDraft1Carolyn_lessNoise_PlusLocalization,2021.2.3,59.99406206519164,
,,,,,,,,nearLeft,-6.5,1,ch1Sound_localizationTask.wav,-6.5,"(857, 878)","(-103,-202)",-95,-338,,,,,,,,,,,,,3,4,25,2,,,,,,,,,,,,,,,,,,,,,,,,,,,,,,,,,,,,,,,,1022.5340029262006,None,,,1025.5498798657209,None,1.4322751322751324,0.6501905424520373,1025.5498798657209,None,,,,,,,1023.5336281498894,None,1023.7168977828696,1023.7336660157889,,,,,,,180,001,2024_Mar_08_1346,SpeechDraft1Carolyn_lessNoise_PlusLocalization,2021.2.3,59.99406206519164,
,,,,,,,,midLeft,-13.0,2,ch1Sound_localizationTask.wav,-13.0,"(762, 878)","(-198,-202)",-190,-338,,,,,,,,,,,,,3,5,26,1,,,,,,,,,,,,,,,,,,,,,,,,,,,,,,,,,,,,,,,,1026.2169633070007,None,,,1029.233289277181,None,1.3682539682539683,0.615877989679575,1029.233289277181,None,,,,,,,1027.2168468292803,None,1027.4003624888137,1027.4168883170933,,,,,,,180,001,2024_Mar_08_1346,SpeechDraft1Carolyn_lessNoise_PlusLocalization,2021.2.3,59.99406206519164,
,,,,,,,,center,0.0,6,ch1Sound_localizationTask.wav,0.0,"(952, 878)","(-8,-202)",0,-338,,,,,,,,,,,,,3,6,27,3,,,,,,,,,,,,,,,,,,,,,,,,,,,,,,,,,,,,,,,,1029.8508669631556,None,,,1032.8667308893055,None,1.4883597883597883,0.7497717775404453,1032.8667308893055,None,,,,,,,1030.850176201202,None,1031.033613507636,1031.0501987067983,,,,,,,180,001,2024_Mar_08_1346,SpeechDraft1Carolyn_lessNoise_PlusLocalization,2021.2.3,59.99406206519164,
,,,,,,,,farLeft,-19.1,5,ch1Sound_localizationTask.wav,-19.1,"(667, 878)","(-293,-202)",-285,-338,,,,,,,,,,,,,4,0,28,0,,,,,,,,,,,,,,,,,,,,,,,,,,,,,,,,,,,,,,,,1033.6174942245707,None,,,1036.6333932997659,None,1.348148148148148,0.43259975779801607,1036.6333932997659,None,,,,,,,1034.6169493282214,None,1034.8003005944192,1034.816930230707,,,,,,,180,001,2024_Mar_08_1346,SpeechDraft1Carolyn_lessNoise_PlusLocalization,2021.2.3,59.99406206519164,
,,,,,,,,farRight,19.1,4,ch1Sound_localizationTask.wav,19.1,"(1237, 878)","(277,-202)",285,-338,,,,,,,,,,,,,4,1,29,6,,,,,,,,,,,,,,,,,,,,,,,,,,,,,,,,,,,,,,,,1037.0672681797296,None,,,1040.0833912603557,None,1.6576719576719576,0.8490968234837055,1040.0833912603557,None,,,,,,,1038.0669977143407,None,1038.2501682620496,1038.2670863289386,,,,,,,180,001,2024_Mar_08_1346,SpeechDraft1Carolyn_lessNoise_PlusLocalization,2021.2.3,59.99406206519164,
,,,,,,,,farLeft,-19.1,5,ch1Sound_localizationTask.wav,-19.1,"(667, 878)","(-293,-202)",-285,-338,,,,,,,,,,,,,4,2,30,0,,,,,,,,,,,,,,,,,,,,,,,,,,,,,,,,,,,,,,,,1040.9502338198945,None,,,1043.9664759626612,None,1.3460317460317461,0.7990291696041822,1043.9664759626612,None,,,,,,,1041.9502431685105,None,1042.1335133146495,1042.1501823216677,,,,,,,180,001,2024_Mar_08_1346,SpeechDraft1Carolyn_lessNoise_PlusLocalization,2021.2.3,59.99406206519164,
,,,,,,,,center,0.0,6,ch1Sound_localizationTask.wav,0.0,"(952, 878)","(-8,-202)",0,-338,,,,,,,,,,,,,4,3,31,3,,,,,,,,,,,,,,,,,,,,,,,,,,,,,,,,,,,,,,,,1044.7676172191277,None,,,1047.7833574162796,None,1.4984126984126984,0.7487703859806061,1047.7833574162796,None,,,,,,,1045.7669132780284,None,1045.9502562619746,1045.966929716058,,,,,,,180,001,2024_Mar_08_1346,SpeechDraft1Carolyn_lessNoise_PlusLocalization,2021.2.3,59.99406206519164,
,,,,,,,,midLeft,-13.0,2,ch1Sound_localizationTask.wav,-13.0,"(762, 878)","(-198,-202)",-190,-338,,,,,,,,,,,,,4,4,32,1,,,,,,,,,,,,,,,,,,,,,,,,,,,,,,,,,,,,,,,,1048.5340085411444,None,,,1051.5499350260943,None,1.4005291005291005,0.8331080721691251,1051.5499350260943,None,,,,,,,1049.5335911950096,None,1049.7168660825118,1049.7336115315557,,,,,,,180,001,2024_Mar_08_1346,SpeechDraft1Carolyn_lessNoise_PlusLocalization,2021.2.3,59.99406206519164,
,,,,,,,,center,0.0,6,ch1Sound_localizationTask.wav,0.0,"(952, 878)","(-8,-202)",0,-338,,,,,,,,,,,,,4,5,33,3,,,,,,,,,,,,,,,,,,,,,,,,,,,,,,,,,,,,,,,,1052.4003577753901,None,,,1055.4167210599408,None,1.4957671957671956,0.5491358051076531,1055.4167210599408,None,,,,,,,1053.400232908316,None,1053.5835744226351,1053.6001995317638,,,,,,,180,001,2024_Mar_08_1346,SpeechDraft1Carolyn_lessNoise_PlusLocalization,2021.2.3,59.99406206519164,
,,,,,,,,nearLeft,-6.5,1,ch1Sound_localizationTask.wav,-6.5,"(857, 878)","(-103,-202)",-95,-338,,,,,,,,,,,,,4,6,34,2,,,,,,,,,,,,,,,,,,,,,,,,,,,,,,,,,,,,,,,,1055.9676872985438,None,,,1058.9833069918677,None,1.4576719576719577,0.6662362040951848,1058.9833069918677,None,,,,,,,1056.9668924147263,None,1057.1502630440518,1057.1673712031916,,,,,,,180,001,2024_Mar_08_1346,SpeechDraft1Carolyn_lessNoise_PlusLocalization,2021.2.3,59.99406206519164,
,,,,,,,,nearRight,6.5,0,ch1Sound_localizationTask.wav,6.5,"(1047, 878)","(87, -202)",95,-338,,,,,,,,,,,,,5,0,35,4,,,,,,,,,,,,,,,,,,,,,,,,,,,,,,,,,,,,,,,,1059.650892533362,None,,,1062.666740583256,None,1.5492063492063493,0.6992205735296011,1062.666740583256,None,,,,,,,1060.6503407629207,None,1060.8335360279307,1060.8502597883344,,,,,,,180,001,2024_Mar_08_1346,SpeechDraft1Carolyn_lessNoise_PlusLocalization,2021.2.3,59.99406206519164,
,,,,,,,,farRight,19.1,4,ch1Sound_localizationTask.wav,19.1,"(1237, 878)","(277,-202)",285,-338,,,,,,,,,,,,,5,1,36,6,,,,,,,,,,,,,,,,,,,,,,,,,,,,,,,,,,,,,,,,1063.3677660673857,None,,,1066.3837285181507,None,1.6608465608465608,0.5150812137871981,1066.3837285181507,None,,,,,,,1064.3670071009547,None,1064.5503431688994,1064.5670088557526,,,,,,,180,001,2024_Mar_08_1346,SpeechDraft1Carolyn_lessNoise_PlusLocalization,2021.2.3,59.99406206519164,
,,,,,,,,farLeft,-19.1,5,ch1Sound_localizationTask.wav,-19.1,"(667, 878)","(-293,-202)",-285,-338,,,,,,,,,,,,,5,2,37,0,,,,,,,,,,,,,,,,,,,,,,,,,,,,,,,,,,,,,,,,1066.9003339456394,None,,,1069.9167797500268,None,1.3529100529100528,0.8492702227085829,1069.9167797500268,None,,,,,,,1067.900291875936,None,1068.0835499111563,1068.1003233520314,,,,,,,180,001,2024_Mar_08_1346,SpeechDraft1Carolyn_lessNoise_PlusLocalization,2021.2.3,59.99406206519164,
,,,,,,,,nearRight,6.5,0,ch1Sound_localizationTask.wav,6.5,"(1047, 878)","(87, -202)",95,-338,,,,,,,,,,,,,5,3,38,4,,,,,,,,,,,,,,,,,,,,,,,,,,,,,,,,,,,,,,,,1070.7675363589078,None,,,1073.7833359753713,None,1.5677248677248676,0.8666364587843418,1073.7833359753713,None,,,,,,,1071.766935522668,None,1071.9503122186288,1071.9670011540875,,,,,,,180,001,2024_Mar_08_1346,SpeechDraft1Carolyn_lessNoise_PlusLocalization,2021.2.3,59.99406206519164,
,,,,,,,,farLeft,-19.1,5,ch1Sound_localizationTask.wav,-19.1,"(667, 878)","(-293,-202)",-285,-338,,,,,,,,,,,,,5,4,39,0,,,,,,,,,,,,,,,,,,,,,,,,,,,,,,,,,,,,,,,,1074.6670514103025,None,,,1077.683288410306,None,1.3216931216931216,0.7667524190619588,1077.683288410306,None,,,,,,,1075.6669020522386,None,1075.8501915745437,1075.8669419521466,,,,,,,180,001,2024_Mar_08_1346,SpeechDraft1Carolyn_lessNoise_PlusLocalization,2021.2.3,59.99406206519164,
,,,,,,,,nearRight,6.5,0,ch1Sound_localizationTask.wav,6.5,"(1047, 878)","(87, -202)",95,-338,,,,,,,,,,,,,5,5,40,4,,,,,,,,,,,,,,,,,,,,,,,,,,,,,,,,,,,,,,,,1078.466957634315,None,,,1081.4834784669802,None,1.5423280423280423,0.948739311657846,1081.4834784669802,None,,,,,,,1079.4669369487092,None,1079.6502204090357,1079.6669631125405,,,,,,,180,001,2024_Mar_08_1346,SpeechDraft1Carolyn_lessNoise_PlusLocalization,2021.2.3,59.99406206519164,
,,,,,,,,midRight,13.0,3,ch1Sound_localizationTask.wav,13.0,"(1142, 878)","(182, -202)",190,-338,,,,,,,,,,,,,5,6,41,5,,,,,,,,,,,,,,,,,,,,,,,,,,,,,,,,,,,,,,,,1082.4352357275784,None,,,1085.467147164978,None,1.5735449735449736,0.8156576277688146,1085.467147164978,None,,,,,,,1083.4503517448902,None,1083.6335767107084,1083.6504183122888,,,,,,,180,001,2024_Mar_08_1346,SpeechDraft1Carolyn_lessNoise_PlusLocalization,2021.2.3,59.99406206519164,
,,,,,,,,farRight,19.1,4,ch1Sound_localizationTask.wav,19.1,"(1237, 878)","(277,-202)",285,-338,,,,,,,,,,,,,6,0,42,6,,,,,,,,,,,,,,,,,,,,,,,,,,,,,,,,,,,,,,,,1086.2845180518925,None,,,1089.2999784089625,None,1.6777777777777778,0.8321881862357259,1089.2999784089625,None,,,,,,,1087.283701906912,None,1087.4669370921329,1087.483651776798,,,,,,,180,001,2024_Mar_08_1346,SpeechDraft1Carolyn_lessNoise_PlusLocalization,2021.2.3,59.99406206519164,
,,,,,,,,midLeft,-13.0,2,ch1Sound_localizationTask.wav,-13.0,"(762, 878)","(-198,-202)",-190,-338,,,,,,,,,,,,,6,1,43,1,,,,,,,,,,,,,,,,,,,,,,,,,,,,,,,,,,,,,,,,1090.133970704861,None,,,1093.150032629259,None,1.3867724867724869,0.8325451193377376,1093.150032629259,None,,,,,,,1091.1337571498007,None,1091.3169543147087,1091.3336886856705,,,,,,,180,001,2024_Mar_08_1346,SpeechDraft1Carolyn_lessNoise_PlusLocalization,2021.2.3,59.99406206519164,
,,,,,,,,midLeft,-13.0,2,ch1Sound_localizationTask.wav,-13.0,"(762, 878)","(-198,-202)",-190,-338,,,,,,,,,,,,,6,2,44,1,,,,,,,,,,,,,,,,,,,,,,,,,,,,,,,,,,,,,,,,1093.9845237331465,None,,,1097.000002430752,None,1.37989417989418,0.5988411689177155,1097.000002430752,None,,,,,,,1094.9838422061875,None,1095.1670756284148,1095.1839899681509,,,,,,,180,001,2024_Mar_08_1346,SpeechDraft1Carolyn_lessNoise_PlusLocalization,2021.2.3,59.99406206519164,
,,,,,,,,midRight,13.0,3,ch1Sound_localizationTask.wav,13.0,"(1142, 878)","(182, -202)",190,-338,,,,,,,,,,,,,6,3,45,5,,,,,,,,,,,,,,,,,,,,,,,,,,,,,,,,,,,,,,,,1097.600893390365,None,,,1100.6168207693845,None,1.58994708994709,0.6824699407443404,1100.6168207693845,None,,,,,,,1098.600258346647,None,1098.783622212708,1098.8003688501194,,,,,,,180,001,2024_Mar_08_1346,SpeechDraft1Carolyn_lessNoise_PlusLocalization,2021.2.3,59.99406206519164,
,,,,,,,,center,0.0,6,ch1Sound_localizationTask.wav,0.0,"(952, 878)","(-8,-202)",0,-338,,,,,,,,,,,,,6,4,46,3,,,,,,,,,,,,,,,,,,,,,,,,,,,,,,,,,,,,,,,,1101.3022580249235,None,,,1104.3333622775972,None,1.5116402116402117,0.8012339286506176,1104.3333622775972,None,,,,,,,1102.3170618917793,None,1102.5003381660208,1102.517367983237,,,,,,,180,001,2024_Mar_08_1346,SpeechDraft1Carolyn_lessNoise_PlusLocalization,2021.2.3,59.99406206519164,
,,,,,,,,center,0.0,6,ch1Sound_localizationTask.wav,0.0,"(952, 878)","(-8,-202)",0,-338,,,,,,,,,,,,,6,5,47,3,,,,,,,,,,,,,,,,,,,,,,,,,,,,,,,,,,,,,,,,1105.1503788866103,None,,,1108.1668451828882,None,1.507936507936508,0.7324463352560997,1108.1668451828882,None,,,,,,,1106.1503758551553,None,1106.3336208714172,1106.3503562230617,,,,,,,180,001,2024_Mar_08_1346,SpeechDraft1Carolyn_lessNoise_PlusLocalization,2021.2.3,59.99406206519164,
,,,,,,,,nearLeft,-6.5,1,ch1Sound_localizationTask.wav,-6.5,"(857, 878)","(-103,-202)",-95,-338,,,,,,,,,,,,,6,6,48,2,,,,,,,,,,,,,,,,,,,,,,,,,,,,,,,,,,,,,,,,1108.9005432995036,None,,,1111.9167107753456,None,1.4253968253968254,0.6478029489517212,1111.9167107753456,None,,,,,,,1109.9003248540685,None,1110.083704808727,1110.100310278125,,,,,,,180,001,2024_Mar_08_1346,SpeechDraft1Carolyn_lessNoise_PlusLocalization,2021.2.3,59.99406206519164,
,,,,,,,,midLeft,-13.0,2,ch1Sound_localizationTask.wav,-13.0,"(762, 878)","(-198,-202)",-190,-338,,,,,,,,,,,,,7,0,49,1,,,,,,,,,,,,,,,,,,,,,,,,,,,,,,,,,,,,,,,,1112.5670226076618,None,,,1115.583449983038,None,1.3915343915343916,0.5821969164535403,1115.583449983038,None,,,,,,,1113.5670437691733,None,1113.750340871513,1113.7669776277617,,,,,,,180,001,2024_Mar_08_1346,SpeechDraft1Carolyn_lessNoise_PlusLocalization,2021.2.3,59.99406206519164,
,,,,,,,,midLeft,-13.0,2,ch1Sound_localizationTask.wav,-13.0,"(762, 878)","(-198,-202)",-190,-338,,,,,,,,,,,,,7,1,50,1,,,,,,,,,,,,,,,,,,,,,,,,,,,,,,,,,,,,,,,,1116.1682368842885,None,,,1119.199983170256,None,1.4015873015873015,0.26557554956525564,1119.199983170256,None,,,,,,,1117.1836472656578,None,1117.366889057681,1117.3837026869878,,,,,,,180,001,2024_Mar_08_1346,SpeechDraft1Carolyn_lessNoise_PlusLocalization,2021.2.3,59.99406206519164,
,,,,,,,,midRight,13.0,3,ch1Sound_localizationTask.wav,13.0,"(1142, 878)","(182, -202)",190,-338,,,,,,,,,,,,,7,2,51,5,,,,,,,,,,,,,,,,,,,,,,,,,,,,,,,,,,,,,,,,1119.4669337458909,None,,,1122.4833207158372,None,1.5835978835978834,0.21848691534250975,1122.4833207158372,None,,,,,,,1120.4669627342373,None,1120.6504484843463,1120.6669673472643,,,,,,,180,001,2024_Mar_08_1346,SpeechDraft1Carolyn_lessNoise_PlusLocalization,2021.2.3,59.99406206519164,
,,,,,,,,farRight,19.1,4,ch1Sound_localizationTask.wav,19.1,"(1237, 878)","(277,-202)",285,-338,,,,,,,,,,,,,7,3,52,6,,,,,,,,,,,,,,,,,,,,,,,,,,,,,,,,,,,,,,,,1122.7170013682917,None,,,1125.7333980193362,None,1.657142857142857,0.40087352879345417,1125.7333980193362,None,,,,,,,1123.716992136091,None,1123.9002772979438,1123.9170565325767,,,,,,,180,001,2024_Mar_08_1346,SpeechDraft1Carolyn_lessNoise_PlusLocalization,2021.2.3,59.99406206519164,
,,,,,,,,nearRight,6.5,0,ch1Sound_localizationTask.wav,6.5,"(1047, 878)","(87, -202)",95,-338,,,,,,,,,,,,,7,4,53,4,,,,,,,,,,,,,,,,,,,,,,,,,,,,,,,,,,,,,,,,1126.1508960435167,None,,,1129.1667178506032,None,1.573015873015873,0.6821202524006367,1129.1667178506032,None,,,,,,,1127.150415668264,None,1127.3337293975055,1127.3503870284185,,,,,,,180,001,2024_Mar_08_1346,SpeechDraft1Carolyn_lessNoise_PlusLocalization,2021.2.3,59.99406206519164,
,,,,,,,,nearLeft,-6.5,1,ch1Sound_localizationTask.wav,-6.5,"(857, 878)","(-103,-202)",-95,-338,,,,,,,,,,,,,7,5,54,2,,,,,,,,,,,,,,,,,,,,,,,,,,,,,,,,,,,,,,,,1129.8508084779605,None,,,1132.8668632572517,None,1.4047619047619047,0.44975521042943,1132.8668632572517,None,,,,,,,1130.8502686703578,None,1131.033776121214,1131.0503779426217,,,,,,,180,001,2024_Mar_08_1346,SpeechDraft1Carolyn_lessNoise_PlusLocalization,2021.2.3,59.99406206519164,
,,,,,,,,center,0.0,6,ch1Sound_localizationTask.wav,0.0,"(952, 878)","(-8,-202)",0,-338,,,,,,,,,,,,,7,6,55,3,,,,,,,,,,,,,,,,,,,,,,,,,,,,,,,,,,,,,,,,1133.3176568299532,None,,,1136.333413391374,None,1.4851851851851852,0.4661242216825485,1136.333413391374,None,,,,,,,1134.3172915317118,None,1134.5003879833966,1134.5170561978593,,,,,,,180,001,2024_Mar_08_1346,SpeechDraft1Carolyn_lessNoise_PlusLocalization,2021.2.3,59.99406206519164,
,,,,,,,,,,,,,,,,,,,,,,,,,,,,,,,,,,,,,,,,,,,,,,,,,,,,,,,,,,,,,,,,,,,,,,,,,,,,,,,,,,,,,,,,,,,,1136.8015328506008,None,c,557.0554156666622,1137.783648445271,None,180,001,2024_Mar_08_1346,SpeechDraft1Carolyn_lessNoise_PlusLocalization,2021.2.3,59.99406206519164,
