{"meta_data":{"additional_headers":{},"game_name":"Recollect","version":"2.53.01","user_name":"181","organization":"braingamecenter","study":"mpl2_2022_11","session_number":0,"device_id":"74342D95-EE82-45E3-8ADF-48FB3203C5DD"},"data":[{"trial":0,"action":1,"button_pressed":9,"time_out":false,"dwell_time":63.848876953125,"response_time":1710173891398.69},{"trial":0,"action":1,"button_pressed":1,"time_out":false,"dwell_time":46.735107421875,"response_time":1710173891932.05},{"trial":0,"action":9,"button_pressed":-1,"time_out":false,"dwell_time":92.90185546875,"response_time":1710173892410.5},{"trial":1,"action":1,"button_pressed":0,"time_out":false,"dwell_time":80.005126953125,"response_time":1710173902111.93},{"trial":1,"action":1,"button_pressed":10,"time_out":false,"dwell_time":96.623046875,"response_time":1710173902762.18},{"trial":1,"action":1,"button_pressed":11,"time_out":false,"dwell_time":80.075927734375,"response_time":1710173903378.07},{"trial":1,"action":9,"button_pressed":-1,"time_out":false,"dwell_time":114.56298828125,"response_time":1710173904062.45},{"trial":2,"action":1,"button_pressed":1,"time_out":false,"dwell_time":48.650146484375,"response_time":1710173916125.21},{"trial":2,"action":1,"button_pressed":6,"time_out":false,"dwell_time":47.156005859375,"response_time":1710173916674.09},{"trial":2,"action":1,"button_pressed":5,"time_out":false,"dwell_time":63.908203125,"response_time":1710173917373.51},{"trial":2,"action":1,"button_pressed":10,"time_out":false,"dwell_time":63.099853515625,"response_time":1710173917806.88},{"trial":2,"action":9,"button_pressed":-1,"time_out":false,"dwell_time":31.43408203125,"response_time":1710173918507.49},{"trial":3,"action":1,"button_pressed":8,"time_out":false,"dwell_time":81.005126953125,"response_time":1710173933052.29},{"trial":3,"action":1,"button_pressed":4,"time_out":false,"dwell_time":47.529052734375,"response_time":1710173933619.48},{"trial":3,"action":1,"button_pressed":1,"time_out":false,"dwell_time":80.4169921875,"response_time":1710173934034.8},{"trial":3,"action":1,"button_pressed":5,"time_out":false,"dwell_time":97.760986328125,"response_time":1710173934585.39},{"trial":3,"action":1,"button_pressed":3,"time_out":false,"dwell_time":31.01904296875,"response_time":1710173935085.74},{"trial":3,"action":9,"button_pressed":-1,"time_out":false,"dwell_time":16.541015625,"response_time":1710173936800.89},{"trial":4,"action":1,"button_pressed":8,"time_out":false,"dwell_time":130.613037109375,"response_time":1710173954762.46},{"trial":4,"action":1,"button_pressed":0,"time_out":false,"dwell_time":114.7548828125,"response_time":1710173956161.87},{"trial":4,"action":1,"button_pressed":1,"time_out":false,"dwell_time":79.76806640625,"response_time":1710173956827.55},{"trial":4,"action":1,"button_pressed":9,"time_out":false,"dwell_time":96.595947265625,"response_time":1710173957627.23},{"trial":4,"action":1,"button_pressed":3,"time_out":false,"dwell_time":63.65087890625,"response_time":1710173958460.16},{"trial":4,"action":1,"button_pressed":5,"time_out":false,"dwell_time":80.273193359375,"response_time":1710173959343.23},{"trial":4,"action":9,"button_pressed":-1,"time_out":false,"dwell_time":81.205810546875,"response_time":1710173960227.62},{"trial":5,"action":1,"button_pressed":3,"time_out":false,"dwell_time":80.821044921875,"response_time":1710173982453.48},{"trial":5,"action":1,"button_pressed":0,"time_out":false,"dwell_time":63.740966796875,"response_time":1710173982902.36},{"trial":5,"action":1,"button_pressed":10,"time_out":false,"dwell_time":62.858154296875,"response_time":1710173983485.57},{"trial":5,"action":1,"button_pressed":5,"time_out":false,"dwell_time":79.72998046875,"response_time":1710173984218.61},{"trial":5,"action":1,"button_pressed":4,"time_out":false,"dwell_time":81.18408203125,"response_time":1710173986101.99},{"trial":5,"action":1,"button_pressed":1,"time_out":false,"dwell_time":63.0068359375,"response_time":1710173986751.1},{"trial":5,"action":1,"button_pressed":2,"time_out":false,"dwell_time":62.85986328125,"response_time":1710173987650.71},{"trial":5,"action":9,"button_pressed":-1,"time_out":false,"dwell_time":64.466064453125,"response_time":1710173988351.03},{"trial":6,"action":1,"button_pressed":0,"time_out":false,"dwell_time":63.942138671875,"response_time":1710174011443.98},{"trial":6,"action":1,"button_pressed":8,"time_out":false,"dwell_time":63.48388671875,"response_time":1710174012160.24},{"trial":6,"action":1,"button_pressed":9,"time_out":false,"dwell_time":63.699951171875,"response_time":1710174012559.51},{"trial":6,"action":1,"button_pressed":5,"time_out":false,"dwell_time":80.43115234375,"response_time":1710174012925.97},{"trial":6,"action":1,"button_pressed":6,"time_out":false,"dwell_time":63.320068359375,"response_time":1710174013442.62},{"trial":6,"action":1,"button_pressed":7,"time_out":false,"dwell_time":63.5830078125,"response_time":1710174013842.33},{"trial":6,"action":1,"button_pressed":2,"time_out":false,"dwell_time":63.008056640625,"response_time":1710174014908.65},{"trial":6,"action":9,"button_pressed":-1,"time_out":false,"dwell_time":13.118896484375,"response_time":1710174015391.9},{"trial":7,"action":1,"button_pressed":2,"time_out":false,"dwell_time":96.712158203125,"response_time":1710174038667.93},{"trial":7,"action":1,"button_pressed":4,"time_out":false,"dwell_time":62.92822265625,"response_time":1710174039250.87},{"trial":7,"action":1,"button_pressed":11,"time_out":false,"dwell_time":114.43603515625,"response_time":1710174039851.31},{"trial":7,"action":1,"button_pressed":6,"time_out":false,"dwell_time":64.5888671875,"response_time":1710174040601.43},{"trial":7,"action":1,"button_pressed":5,"time_out":false,"dwell_time":80.446044921875,"response_time":1710174041483.43},{"trial":7,"action":1,"button_pressed":3,"time_out":false,"dwell_time":80.64111328125,"response_time":1710174045748.86},{"trial":7,"action":1,"button_pressed":10,"time_out":false,"dwell_time":47.484130859375,"response_time":1710174046383.01},{"trial":7,"action":1,"button_pressed":0,"time_out":false,"dwell_time":80.4248046875,"response_time":1710174047032.43},{"trial":7,"action":9,"button_pressed":-1,"time_out":false,"dwell_time":48.31689453125,"response_time":1710174048548.71},{"trial":8,"action":1,"button_pressed":3,"time_out":false,"dwell_time":30.198974609375,"response_time":1710174067209.06},{"trial":8,"action":1,"button_pressed":7,"time_out":false,"dwell_time":79.590087890625,"response_time":1710174067858.39},{"trial":8,"action":1,"button_pressed":4,"time_out":false,"dwell_time":62.821044921875,"response_time":1710174069007.85},{"trial":8,"action":1,"button_pressed":10,"time_out":false,"dwell_time":47.528076171875,"response_time":1710174069441.86},{"trial":8,"action":1,"button_pressed":2,"time_out":false,"dwell_time":46.68798828125,"response_time":1710174069974.77},{"trial":8,"action":1,"button_pressed":9,"time_out":false,"dwell_time":63.97607421875,"response_time":1710174070491.56},{"trial":8,"action":9,"button_pressed":-1,"time_out":false,"dwell_time":64.47998046875,"response_time":1710174071141.02},{"trial":9,"action":1,"button_pressed":8,"time_out":false,"dwell_time":97.222900390625,"response_time":1710174091517.52},{"trial":9,"action":1,"button_pressed":5,"time_out":false,"dwell_time":63,"response_time":1710174091867.19},{"trial":9,"action":1,"button_pressed":1,"time_out":false,"dwell_time":81.1689453125,"response_time":1710174092617.67},{"trial":9,"action":1,"button_pressed":6,"time_out":false,"dwell_time":64.368896484375,"response_time":1710174093034.24},{"trial":9,"action":1,"button_pressed":0,"time_out":false,"dwell_time":96.205810546875,"response_time":1710174093433.46},{"trial":9,"action":1,"button_pressed":7,"time_out":false,"dwell_time":79.6669921875,"response_time":1710174093866.65},{"trial":9,"action":1,"button_pressed":11,"time_out":false,"dwell_time":48.1669921875,"response_time":1710174094234.34},{"trial":9,"action":9,"button_pressed":-1,"time_out":false,"dwell_time":147.930908203125,"response_time":1710174094866.84},{"trial":10,"action":1,"button_pressed":5,"time_out":false,"dwell_time":64.799072265625,"response_time":1710174117543.12},{"trial":10,"action":1,"button_pressed":4,"time_out":false,"dwell_time":63.656005859375,"response_time":1710174117992.07},{"trial":10,"action":1,"button_pressed":6,"time_out":false,"dwell_time":63.238037109375,"response_time":1710174118358.68},{"trial":10,"action":1,"button_pressed":7,"time_out":false,"dwell_time":63.52490234375,"response_time":1710174118709.14},{"trial":10,"action":1,"button_pressed":1,"time_out":false,"dwell_time":47.52294921875,"response_time":1710174119425.37},{"trial":10,"action":1,"button_pressed":11,"time_out":false,"dwell_time":80.39208984375,"response_time":1710174119958.39},{"trial":10,"action":1,"button_pressed":10,"time_out":false,"dwell_time":47.447021484375,"response_time":1710174120408.44},{"trial":10,"action":1,"button_pressed":0,"time_out":false,"dwell_time":79.736083984375,"response_time":1710174120974.5},{"trial":10,"action":9,"button_pressed":-1,"time_out":false,"dwell_time":65.135009765625,"response_time":1710174123158.16},{"trial":11,"action":1,"button_pressed":7,"time_out":false,"dwell_time":64.804931640625,"response_time":1710174145617.47},{"trial":11,"action":1,"button_pressed":5,"time_out":false,"dwell_time":62.80615234375,"response_time":1710174146516.27},{"trial":11,"action":1,"button_pressed":3,"time_out":false,"dwell_time":47.166015625,"response_time":1710174146967.05},{"trial":11,"action":1,"button_pressed":4,"time_out":false,"dwell_time":80.26806640625,"response_time":1710174147400.14},{"trial":11,"action":1,"button_pressed":1,"time_out":false,"dwell_time":80.439208984375,"response_time":1710174147783.44},{"trial":11,"action":1,"button_pressed":10,"time_out":false,"dwell_time":46.614990234375,"response_time":1710174148782.68},{"trial":11,"action":1,"button_pressed":2,"time_out":false,"dwell_time":30.06884765625,"response_time":1710174149299.14},{"trial":11,"action":9,"button_pressed":-1,"time_out":false,"dwell_time":50.078125,"response_time":1710174150934.25}]}