Audio_Only_Files,Video_Files,Original_Word_List,noiseLevelCode,conditionCodes,noiseLevelFile1,noiseLevelFile2,InstrTextVar,targetSpeakerName,targetSpeakerEccen,targetSpkrChannel,targetSpkrSound,targetVisualDegrees,visStimLoc,visStimLoc2,visStimW,visStimH,practiceTrials.thisRepN,practiceTrials.thisTrialN,practiceTrials.thisN,practiceTrials.thisIndex,trials.thisRepN,trials.thisTrialN,trials.thisN,trials.thisIndex,audLocalLoop.thisRepN,audLocalLoop.thisTrialN,audLocalLoop.thisN,audLocalLoop.thisIndex,visualLocalLoop.thisRepN,visualLocalLoop.thisTrialN,visualLocalLoop.thisN,visualLocalLoop.thisIndex,letsGoAlready.keys,letsGoAlready.rt,letsGoAlready.started,letsGoAlready.stopped,text_2.started,text_2.stopped,text_3.started,text_3.stopped,key_resp_2.keys,key_resp_2.rt,key_resp_2.started,key_resp_2.stopped,text_5.started,text_5.stopped,fixCross.started,fixCross.stopped,fixCross2.started,fixCross2.stopped,answerPrompt.started,answerPrompt.stopped,getAnswer.text,getAnswer.started,getAnswer.stopped,goToNext.keys,goToNext.rt,goToNext.started,goToNext.stopped,stretchBreakTxrt.started,stretchBreakTxrt.stopped,key_resp_3.keys,key_resp_3.rt,key_resp_3.started,key_resp_3.stopped,letsGoLocal.keys,letsGoLocal.rt,letsGoLocal.started,letsGoLocal.stopped,text_4.started,text_4.stopped,prepFixTxt.started,prepFixTxt.stopped,prepFixTxt_2.started,prepFixTxt_2.stopped,respPromptLocal.started,respPromptLocal.stopped,slider.response,slider.rt,slider.started,slider.stopped,letsGoLocal_2.keys,letsGoLocal_2.rt,letsGoLocal_2.started,letsGoLocal_2.stopped,text_7.started,text_7.stopped,prepFixTxt_3.started,prepFixTxt_3.stopped,grating.started,grating.stopped,exitTxt.started,exitTxt.stopped,key_resp.keys,key_resp.rt,key_resp.started,key_resp.stopped,participant,session,date,expName,psychopyVersion,frameRate,
,,,,,,,,,,,,,,,,,,,,,,,,,,,,,,,,,space,1.0261920262128115,33.24913397524506,None,,,,,,,,,,,,,,,,,,,,,,,,,,,,,,,,,,,,,,,,,,,,,,,,,,,,,,,,,,,,,,181,001,2024_Mar_11_1046,SpeechDraft1Carolyn_lessNoise_PlusLocalization,2021.2.3,59.98373804038756,
,,,,,,,,,,,,,,,,,,,,,,,,,,,,,,,,,,,,,33.24913397524506,None,34.398833450861275,None,space,10.877160302363336,34.58216469082981,None,,,,,,,,,,,,,,,,,,,,,,,,,,,,,,,,,,,,,,,,,,,,,,,,,,,,,,181,001,2024_Mar_11_1046,SpeechDraft1Carolyn_lessNoise_PlusLocalization,2021.2.3,59.98373804038756,
ash.wav,ash.mpg,ash,1,A,Pink_Noise_1_1.wav,Pink_Noise_1_2.wav,"This is an example of an

AUDIO trial",,,,,,,,,,0,0,0,0,,,,,,,,,,,,,,,,,,,,,,,,,45.51521453540772,None,46.49878328014165,None,49.848592737689614,None,51.248544469475746,None,ash,51.248544469475746,None,return,1.143730347044766,51.315555398352444,None,,,,,,,,,,,,,,,,,,,,,,,,,,,,,,,,,,,,,,,181,001,2024_Mar_11_1046,SpeechDraft1Carolyn_lessNoise_PlusLocalization,2021.2.3,59.98373804038756,
ash.wav,ash.mpg,ash,1,AV,Pink_Noise_1_1.wav,Pink_Noise_1_2.wav,"This is an example of an

AUDIO + VIDEO  trial",,,,,,,,,,0,1,1,1,,,,,,,,,,,,,,,,,,,,,,,,,52.49860385991633,None,53.49911378324032,None,54.982679163105786,None,56.3654017848894,None,"asg
",56.3654017848894,None,return,2.8024856727570295,56.44881846662611,None,,,,,,,,,,,,,,,,,,,,,,,,,,,,,,,,,,,,,,,181,001,2024_Mar_11_1046,SpeechDraft1Carolyn_lessNoise_PlusLocalization,2021.2.3,59.98373804038756,
,,,,,,,,,,,,,,,,,,,,,,,,,,,,,,,,,,,,,,,,,,,,,,,,,,,,,,,,,,,,59.298460418358445,None,space,12.505192077718675,59.48209610488266,None,,,,,,,,,,,,,,,,,,,,,,,,,,,,,,,,,181,001,2024_Mar_11_1046,SpeechDraft1Carolyn_lessNoise_PlusLocalization,2021.2.3,59.98373804038756,
cliff.wav,cliff.mpg,cliff,3,A,Pink_Noise_3_1.wav,Pink_Noise_3_2.wav,,,,,,,,,,,,,,,0,0,0,47,,,,,,,,,,,,,,,,,,,,,,,72.0485704690218,None,73.53203039988875,None,74.91555406618863,None,"witch
",74.91555406618863,None,return,2.100469217635691,74.99882990214974,None,,,,,,,,,,,,,,,,,,,,,,,,,,,,,,,,,,,,,,,181,001,2024_Mar_11_1046,SpeechDraft1Carolyn_lessNoise_PlusLocalization,2021.2.3,59.98373804038756,
friend.wav,friend.mpg,friend,6,AV,Pink_Noise_6_1.wav,Pink_Noise_6_2.wav,,,,,,,,,,,,,,,0,1,1,78,,,,,,,,,,,,,,,,,,,,,,,77.13213532418013,None,78.63188478443772,None,80.01547040324658,None,witch,80.01547040324658,None,return,2.1924194116145372,80.09887517616153,None,,,,,,,,,,,,,,,,,,,,,,,,,,,,,,,,,,,,,,,181,001,2024_Mar_11_1046,SpeechDraft1Carolyn_lessNoise_PlusLocalization,2021.2.3,59.98373804038756,
spire.wav,spire.mpg,spire,2,AV,Pink_Noise_2_1.wav,Pink_Noise_2_2.wav,,,,,,,,,,,,,,,0,2,2,95,,,,,,,,,,,,,,,,,,,,,,,82.31563192792237,None,83.81544056069106,None,85.19870758149773,None,spire,85.19870758149773,None,return,1.6811326770111918,85.28216518089175,None,,,,,,,,,,,,,,,,,,,,,,,,,,,,,,,,,,,,,,,181,001,2024_Mar_11_1046,SpeechDraft1Carolyn_lessNoise_PlusLocalization,2021.2.3,59.98373804038756,
flock.wav,flock.mpg,flock,5,AV,Pink_Noise_5_1.wav,Pink_Noise_5_2.wav,,,,,,,,,,,,,,,0,3,3,114,,,,,,,,,,,,,,,,,,,,,,,86.98218040075153,None,88.48197238054127,None,89.86548490542918,None,floss,89.86548490542918,None,return,1.3984319465234876,89.94896420370787,None,,,,,,,,,,,,,,,,,,,,,,,,,,,,,,,,,,,,,,,181,001,2024_Mar_11_1046,SpeechDraft1Carolyn_lessNoise_PlusLocalization,2021.2.3,59.98373804038756,
blind.wav,blind.mpg,blind,2,A,Pink_Noise_2_1.wav,Pink_Noise_2_2.wav,,,,,,,,,,,,,,,0,4,4,15,,,,,,,,,,,,,,,,,,,,,,,91.36548410076648,None,92.86528437957168,None,94.24894899223,None,glide,94.24894899223,None,return,2.9431006517261267,94.33219023887068,None,,,,,,,,,,,,,,,,,,,,,,,,,,,,,,,,,,,,,,,181,001,2024_Mar_11_1046,SpeechDraft1Carolyn_lessNoise_PlusLocalization,2021.2.3,59.98373804038756,
crow.wav,crow.mpg,crow,6,A,Pink_Noise_6_1.wav,Pink_Noise_6_2.wav,,,,,,,,,,,,,,,0,5,5,56,,,,,,,,,,,,,,,,,,,,,,,97.29888018965721,None,98.79858434200287,None,100.16550480388105,None,play,100.16550480388105,None,return,3.1143839973956347,100.24891314655542,None,,,,,,,,,,,,,,,,,,,,,,,,,,,,,,,,,,,,,,,181,001,2024_Mar_11_1046,SpeechDraft1Carolyn_lessNoise_PlusLocalization,2021.2.3,59.98373804038756,
floor.wav,floor.mpg,floor,3,A,Pink_Noise_3_1.wav,Pink_Noise_3_2.wav,,,,,,,,,,,,,,,0,6,6,55,,,,,,,,,,,,,,,,,,,,,,,103.38228790275753,None,104.88206133618951,None,106.26563022937626,None,sora,106.26563022937626,None,return,0.8143242243677378,106.34896444994956,None,,,,,,,,,,,,,,,,,,,,,,,,,,,,,,,,,,,,,,,181,001,2024_Mar_11_1046,SpeechDraft1Carolyn_lessNoise_PlusLocalization,2021.2.3,59.98373804038756,
crane.wav,crane.mpg,crane,6,A,Pink_Noise_6_1.wav,Pink_Noise_6_2.wav,,,,,,,,,,,,,,,0,7,7,53,,,,,,,,,,,,,,,,,,,,,,,107.18216548115015,None,108.68188512697816,None,110.0655195787549,None,bike,110.0655195787549,None,return,4.006388231180608,110.14904911350459,None,,,,,,,,,,,,,,,,,,,,,,,,,,,,,,,,,,,,,,,181,001,2024_Mar_11_1046,SpeechDraft1Carolyn_lessNoise_PlusLocalization,2021.2.3,59.98373804038756,
glide.wav,glide.mpg,glide,4,AV,Pink_Noise_4_1.wav,Pink_Noise_4_2.wav,,,,,,,,,,,,,,,0,8,8,105,,,,,,,,,,,,,,,,,,,,,,,114.1821614857763,None,115.68201041221619,None,117.06544411275536,None,glide,117.06544411275536,None,return,1.4225176451727748,117.14885869808495,None,,,,,,,,,,,,,,,,,,,,,,,,,,,,,,,,,,,,,,,181,001,2024_Mar_11_1046,SpeechDraft1Carolyn_lessNoise_PlusLocalization,2021.2.3,59.98373804038756,
dumb.wav,dumb.mpg,dumb,5,AV,Pink_Noise_5_1.wav,Pink_Noise_5_2.wav,,,,,,,,,,,,,,,0,9,9,60,,,,,,,,,,,,,,,,,,,,,,,118.5990023938939,None,120.09863206371665,None,121.48214609362185,None,stum,121.48214609362185,None,return,3.1817438174039125,121.5656024524942,None,,,,,,,,,,,,,,,,,,,,,,,,,,,,,,,,,,,,,,,181,001,2024_Mar_11_1046,SpeechDraft1Carolyn_lessNoise_PlusLocalization,2021.2.3,59.98373804038756,
cloth.wav,cloth.mpg,cloth,2,A,Pink_Noise_2_1.wav,Pink_Noise_2_2.wav,,,,,,,,,,,,,,,0,10,10,17,,,,,,,,,,,,,,,,,,,,,,,124.76568529382348,None,126.26525954343379,None,127.64898199215531,None,clock,127.64898199215531,None,return,1.6391978925094008,127.73227129224688,None,,,,,,,,,,,,,,,,,,,,,,,,,,,,,,,,,,,,,,,181,001,2024_Mar_11_1046,SpeechDraft1Carolyn_lessNoise_PlusLocalization,2021.2.3,59.98373804038756,
die.wav,die.mpg,die,5,A,Pink_Noise_5_1.wav,Pink_Noise_5_2.wav,,,,,,,,,,,,,,,0,11,11,48,,,,,,,,,,,,,,,,,,,,,,,129.39896613918245,None,130.89872841071337,None,132.28219293709844,None,sigh,132.28219293709844,None,return,1.037759067490697,132.36554965935647,None,,,,,,,,,,,,,,,,,,,,,,,,,,,,,,,,,,,,,,,181,001,2024_Mar_11_1046,SpeechDraft1Carolyn_lessNoise_PlusLocalization,2021.2.3,59.98373804038756,
crude.wav,crude.mpg,crude,6,AV,Pink_Noise_6_1.wav,Pink_Noise_6_2.wav,,,,,,,,,,,,,,,0,12,12,77,,,,,,,,,,,,,,,,,,,,,,,133.43241132516414,None,134.93189760670066,None,136.31555578764528,None,orange,136.31555578764528,None,return,1.7084140256047249,136.39887971896678,None,,,,,,,,,,,,,,,,,,,,,,,,,,,,,,,,,,,,,,,181,001,2024_Mar_11_1046,SpeechDraft1Carolyn_lessNoise_PlusLocalization,2021.2.3,59.98373804038756,
vest.wav,vest.mpg,vest,5,AV,Pink_Noise_5_1.wav,Pink_Noise_5_2.wav,,,,,,,,,,,,,,,0,13,13,106,,,,,,,,,,,,,,,,,,,,,,,138.13229440618306,None,139.63204525224864,None,141.0155955813825,None,fast,141.0155955813825,None,return,0.8724475372582674,141.09891737252474,None,,,,,,,,,,,,,,,,,,,,,,,,,,,,,,,,,,,,,,,181,001,2024_Mar_11_1046,SpeechDraft1Carolyn_lessNoise_PlusLocalization,2021.2.3,59.98373804038756,
deal.wav,deal.mpg,deal,5,AV,Pink_Noise_5_1.wav,Pink_Noise_5_2.wav,,,,,,,,,,,,,,,0,14,14,74,,,,,,,,,,,,,,,,,,,,,,,141.99895833898336,None,143.4985785689205,None,144.86550705321133,None,slink,144.86550705321133,None,return,1.7664270121604204,144.9489330118522,None,,,,,,,,,,,,,,,,,,,,,,,,,,,,,,,,,,,,,,,181,001,2024_Mar_11_1046,SpeechDraft1Carolyn_lessNoise_PlusLocalization,2021.2.3,59.98373804038756,
code.wav,code.mpg,code,1,AV,Pink_Noise_1_1.wav,Pink_Noise_1_2.wav,,,,,,,,,,,,,,,0,15,15,63,,,,,,,,,,,,,,,,,,,,,,,146.73233889695257,None,148.23200878500938,None,149.6155025307089,None,"code
",149.6155025307089,None,return,1.535940789617598,149.6993520744145,None,,,,,,,,,,,,,,,,,,,,,,,,,,,,,,,,,,,,,,,181,001,2024_Mar_11_1046,SpeechDraft1Carolyn_lessNoise_PlusLocalization,2021.2.3,59.98373804038756,
fame.wav,fame.mpg,fame,2,AV,Pink_Noise_2_1.wav,Pink_Noise_2_2.wav,,,,,,,,,,,,,,,0,16,16,83,,,,,,,,,,,,,,,,,,,,,,,151.26564181316644,None,152.76537122763693,None,154.14886617287993,None,"

fame
",154.14886617287993,None,return,0.6509860353544354,154.23231062293053,None,,,,,,,,,,,,,,,,,,,,,,,,,,,,,,,,,,,,,,,181,001,2024_Mar_11_1046,SpeechDraft1Carolyn_lessNoise_PlusLocalization,2021.2.3,59.98373804038756,
file.wav,file.mpg,file,1,AV,Pink_Noise_1_1.wav,Pink_Noise_1_2.wav,,,,,,,,,,,,,,,0,17,17,111,,,,,,,,,,,,,,,,,,,,,,,154.91552624385804,None,156.41533961240202,None,157.7988615790382,None,file,157.7988615790382,None,return,2.729041657410562,157.88224738184363,None,,,,,,,,,,,,,,,,,,,,,,,,,,,,,,,,,,,,,,,181,001,2024_Mar_11_1046,SpeechDraft1Carolyn_lessNoise_PlusLocalization,2021.2.3,59.98373804038756,
pop.wav,pop.mpg,pop,3,A,Pink_Noise_3_1.wav,Pink_Noise_3_2.wav,,,,,,,,,,,,,,,0,18,18,54,,,,,,,,,,,,,,,,,,,,,,,160.6322625381872,None,162.1320226052776,None,163.51563063450158,None,pot,163.51563063450158,None,return,0.7483407547697425,163.59900326281786,None,,,,,,,,,,,,,,,,,,,,,,,,,,,,,,,,,,,,,,,181,001,2024_Mar_11_1046,SpeechDraft1Carolyn_lessNoise_PlusLocalization,2021.2.3,59.98373804038756,
feed.wav,feed.mpg,feed,4,A,Pink_Noise_4_1.wav,Pink_Noise_4_2.wav,,,,,,,,,,,,,,,0,19,19,14,,,,,,,,,,,,,,,,,,,,,,,164.36559751536697,None,165.8653607238084,None,167.24903627298772,None,speed,167.24903627298772,None,return,1.8549940818920732,167.3322906717658,None,,,,,,,,,,,,,,,,,,,,,,,,,,,,,,,,,,,,,,,181,001,2024_Mar_11_1046,SpeechDraft1Carolyn_lessNoise_PlusLocalization,2021.2.3,59.98373804038756,
quit.wav,quit.mpg,quit,4,AV,Pink_Noise_4_1.wav,Pink_Noise_4_2.wav,,,,,,,,,,,,,,,0,20,20,119,,,,,,,,,,,,,,,,,,,,,,,169.21560055576265,None,170.71548339910805,None,172.09895530622452,None,quit,172.09895530622452,None,return,4.005067627876997,172.18230444844812,None,,,,,,,,,,,,,,,,,,,,,,,,,,,,,,,,,,,,,,,181,001,2024_Mar_11_1046,SpeechDraft1Carolyn_lessNoise_PlusLocalization,2021.2.3,59.98373804038756,
boot.wav,boot.mpg,boot,1,AV,Pink_Noise_1_1.wav,Pink_Noise_1_2.wav,,,,,,,,,,,,,,,0,21,21,93,,,,,,,,,,,,,,,,,,,,,,,176.21570959221572,None,177.71535848546773,None,179.09899377916008,None,boot,179.09899377916008,None,return,0.9410321218892932,179.182278287597,None,,,,,,,,,,,,,,,,,,,,,,,,,,,,,,,,,,,,,,,181,001,2024_Mar_11_1046,SpeechDraft1Carolyn_lessNoise_PlusLocalization,2021.2.3,59.98373804038756,
grown.wav,grown.mpg,grown,5,AV,Pink_Noise_5_1.wav,Pink_Noise_5_2.wav,,,,,,,,,,,,,,,0,22,22,118,,,,,,,,,,,,,,,,,,,,,,,180.14897980820388,None,181.6487842956558,None,183.0323791122064,None,row,183.0323791122064,None,return,0.6396821802482009,183.11564532574266,None,,,,,,,,,,,,,,,,,,,,,,,,,,,,,,,,,,,,,,,181,001,2024_Mar_11_1046,SpeechDraft1Carolyn_lessNoise_PlusLocalization,2021.2.3,59.98373804038756,
truce.wav,truce.mpg,truce,6,A,Pink_Noise_6_1.wav,Pink_Noise_6_2.wav,,,,,,,,,,,,,,,0,23,23,58,,,,,,,,,,,,,,,,,,,,,,,183.7822737786919,None,185.28204605169594,None,186.66556401737034,None,goose,186.66556401737034,None,return,2.094206082634628,186.74908486846834,None,,,,,,,,,,,,,,,,,,,,,,,,,,,,,,,,,,,,,,,181,001,2024_Mar_11_1046,SpeechDraft1Carolyn_lessNoise_PlusLocalization,2021.2.3,59.98373804038756,
blast.wav,blast.mpg,blast,3,AV,Pink_Noise_3_1.wav,Pink_Noise_3_2.wav,,,,,,,,,,,,,,,0,24,24,64,,,,,,,,,,,,,,,,,,,,,,,188.86563908867538,None,190.36539634410292,None,191.74888512585312,None,blast,191.74888512585312,None,return,1.3789150575175881,191.8323971927166,None,,,,,,,,,,,,,,,,,,,,,,,,,,,,,,,,,,,,,,,181,001,2024_Mar_11_1046,SpeechDraft1Carolyn_lessNoise_PlusLocalization,2021.2.3,59.98373804038756,
fate.wav,fate.mpg,fate,1,AV,Pink_Noise_1_1.wav,Pink_Noise_1_2.wav,,,,,,,,,,,,,,,0,25,25,113,,,,,,,,,,,,,,,,,,,,,,,193.23241740837693,None,194.73201703466475,None,196.11571335513145,None,"fate
",196.11571335513145,None,return,1.2683571996167302,196.1989196361974,None,,,,,,,,,,,,,,,,,,,,,,,,,,,,,,,,,,,,,,,181,001,2024_Mar_11_1046,SpeechDraft1Carolyn_lessNoise_PlusLocalization,2021.2.3,59.98373804038756,
grail.wav,grail.mpg,grail,4,A,Pink_Noise_4_1.wav,Pink_Noise_4_2.wav,,,,,,,,,,,,,,,0,26,26,1,,,,,,,,,,,,,,,,,,,,,,,197.49900123570114,None,198.99894041195512,None,200.38233450613916,None,spray,200.38233450613916,None,return,2.513604301959276,200.46574853546917,None,,,,,,,,,,,,,,,,,,,,,,,,,,,,,,,,,,,,,,,181,001,2024_Mar_11_1046,SpeechDraft1Carolyn_lessNoise_PlusLocalization,2021.2.3,59.98373804038756,
cross.wav,cross.mpg,cross,6,AV,Pink_Noise_6_1.wav,Pink_Noise_6_2.wav,,,,,,,,,,,,,,,0,27,27,67,,,,,,,,,,,,,,,,,,,,,,,202.99909759685397,None,204.53231791313738,None,205.91555801127106,None,rest,205.91555801127106,None,return,2.140208078548312,205.99913534522057,None,,,,,,,,,,,,,,,,,,,,,,,,,,,,,,,,,,,,,,,181,001,2024_Mar_11_1046,SpeechDraft1Carolyn_lessNoise_PlusLocalization,2021.2.3,59.98373804038756,
beach.wav,beach.mpg,beach,5,A,Pink_Noise_5_1.wav,Pink_Noise_5_2.wav,,,,,,,,,,,,,,,0,28,28,42,,,,,,,,,,,,,,,,,,,,,,,208.165675801225,None,209.6654132073745,None,211.04898780025542,None,squish,211.04898780025542,None,return,1.4070293214172125,211.13235262036324,None,,,,,,,,,,,,,,,,,,,,,,,,,,,,,,,,,,,,,,,181,001,2024_Mar_11_1046,SpeechDraft1Carolyn_lessNoise_PlusLocalization,2021.2.3,59.98373804038756,
gym.wav,gym.mpg,gym,5,A,Pink_Noise_5_1.wav,Pink_Noise_5_2.wav,,,,,,,,,,,,,,,0,29,29,0,,,,,,,,,,,,,,,,,,,,,,,212.56566504761577,None,214.0652919774875,None,215.44906164053828,None,chair,215.44906164053828,None,return,1.0550764622166753,215.53230622969568,None,,,,,,,,,,,,,,,,,,,,,,,,,,,,,,,,,,,,,,,181,001,2024_Mar_11_1046,SpeechDraft1Carolyn_lessNoise_PlusLocalization,2021.2.3,59.98373804038756,
beast.wav,beast.mpg,beast,3,AV,Pink_Noise_3_1.wav,Pink_Noise_3_2.wav,,,,,,,,,,,,,,,0,30,30,112,,,,,,,,,,,,,,,,,,,,,,,216.61573062185198,None,218.11555237695575,None,219.4989432161674,None,beast,219.4989432161674,None,return,2.0769865764304996,219.58230089116842,None,,,,,,,,,,,,,,,,,,,,,,,,,,,,,,,,,,,,,,,181,001,2024_Mar_11_1046,SpeechDraft1Carolyn_lessNoise_PlusLocalization,2021.2.3,59.98373804038756,
drug.wav,drug.mpg,drug,4,A,Pink_Noise_4_1.wav,Pink_Noise_4_2.wav,,,,,,,,,,,,,,,0,31,31,22,,,,,,,,,,,,,,,,,,,,,,,221.68242950364947,None,223.1821077298373,None,224.56580185797065,None,drug,224.56580185797065,None,return,0.954249907284975,224.64903392922133,None,,,,,,,,,,,,,,,,,,,,,,,,,,,,,,,,,,,,,,,181,001,2024_Mar_11_1046,SpeechDraft1Carolyn_lessNoise_PlusLocalization,2021.2.3,59.98373804038756,
beat.wav,beat.mpg,beat,4,A,Pink_Noise_4_1.wav,Pink_Noise_4_2.wav,,,,,,,,,,,,,,,0,32,32,51,,,,,,,,,,,,,,,,,,,,,,,225.63239720650017,None,227.13211482111365,None,228.51579394564033,None,feet,228.51579394564033,None,return,1.1080939956009388,228.59918865002692,None,,,,,,,,,,,,,,,,,,,,,,,,,,,,,,,,,,,,,,,181,001,2024_Mar_11_1046,SpeechDraft1Carolyn_lessNoise_PlusLocalization,2021.2.3,59.98373804038756,
grunt.wav,grunt.mpg,grunt,3,A,Pink_Noise_3_1.wav,Pink_Noise_3_2.wav,,,,,,,,,,,,,,,0,33,33,11,,,,,,,,,,,,,,,,,,,,,,,229.7323333080858,None,231.23210810963064,None,232.61566670890898,None,crunch,232.61566670890898,None,return,1.4402833031490445,232.69912539049983,None,,,,,,,,,,,,,,,,,,,,,,,,,,,,,,,,,,,,,,,181,001,2024_Mar_11_1046,SpeechDraft1Carolyn_lessNoise_PlusLocalization,2021.2.3,59.98373804038756,
creep.wav,creep.mpg,creep,5,AV,Pink_Noise_5_1.wav,Pink_Noise_5_2.wav,,,,,,,,,,,,,,,0,34,34,82,,,,,,,,,,,,,,,,,,,,,,,234.1657744748518,None,235.66544575057924,None,237.04908069502562,None,leap,237.04908069502562,None,return,2.023068686015904,237.1323641575873,None,,,,,,,,,,,,,,,,,,,,,,,,,,,,,,,,,,,,,,,181,001,2024_Mar_11_1046,SpeechDraft1Carolyn_lessNoise_PlusLocalization,2021.2.3,59.98373804038756,
craft.wav,craft.mpg,craft,4,A,Pink_Noise_4_1.wav,Pink_Noise_4_2.wav,,,,,,,,,,,,,,,0,35,35,23,,,,,,,,,,,,,,,,,,,,,,,239.18241506256163,None,240.68215945735574,None,242.06568983010948,None,craft,242.06568983010948,None,return,1.6622004453092813,242.1491306340322,None,,,,,,,,,,,,,,,,,,,,,,,,,,,,,,,,,,,,,,,181,001,2024_Mar_11_1046,SpeechDraft1Carolyn_lessNoise_PlusLocalization,2021.2.3,59.98373804038756,
grin.wav,grin.mpg,grin,6,AV,Pink_Noise_6_1.wav,Pink_Noise_6_2.wav,,,,,,,,,,,,,,,0,36,36,88,,,,,,,,,,,,,,,,,,,,,,,243.83240469079465,None,245.33217797800899,None,246.71567362453789,None,raid,246.71567362453789,None,return,1.340258034877479,246.7991653298959,None,,,,,,,,,,,,,,,,,,,,,,,,,,,,,,,,,,,,,,,181,001,2024_Mar_11_1046,SpeechDraft1Carolyn_lessNoise_PlusLocalization,2021.2.3,59.98373804038756,
dig.wav,dig.mpg,dig,3,AV,Pink_Noise_3_1.wav,Pink_Noise_3_2.wav,,,,,,,,,,,,,,,0,37,37,103,,,,,,,,,,,,,,,,,,,,,,,248.16573266871274,None,249.66549959778786,None,251.0489600384608,None,"dig
",251.0489600384608,None,return,0.7668498894199729,251.13243528082967,None,,,,,,,,,,,,,,,,,,,,,,,,,,,,,,,,,,,,,,,181,001,2024_Mar_11_1046,SpeechDraft1Carolyn_lessNoise_PlusLocalization,2021.2.3,59.98373804038756,
nine.wav,nine.mpg,nine,5,A,Pink_Noise_5_1.wav,Pink_Noise_5_2.wav,,,,,,,,,,,,,,,0,38,38,41,,,,,,,,,,,,,,,,,,,,,,,251.93242829851806,None,253.4323335038498,None,254.81571360118687,None,night,254.81571360118687,None,return,2.9282086677849293,254.89906784519553,None,,,,,,,,,,,,,,,,,,,,,,,,,,,,,,,,,,,,,,,181,001,2024_Mar_11_1046,SpeechDraft1Carolyn_lessNoise_PlusLocalization,2021.2.3,59.98373804038756,
bib.wav,bib.mpg,bib,5,AV,Pink_Noise_5_1.wav,Pink_Noise_5_2.wav,,,,,,,,,,,,,,,0,39,39,110,,,,,,,,,,,,,,,,,,,,,,,257.84910957701504,None,259.348845471628,None,260.7323058238253,None,bib,260.7323058238253,None,return,1.9796777982264757,260.81565681193024,None,,,,,,,,,,,,,,,,,,,,,,,,,,,,,,,,,,,,,,,181,001,2024_Mar_11_1046,SpeechDraft1Carolyn_lessNoise_PlusLocalization,2021.2.3,59.98373804038756,
fad.wav,fad.mpg,fad,5,AV,Pink_Noise_5_1.wav,Pink_Noise_5_2.wav,,,,,,,,,,,,,,,0,40,40,115,,,,,,,,,,,,,,,,,,,,,,,262.8157629109919,None,264.31554808840156,None,265.699102637358,None,"fall
",265.699102637358,None,return,1.0688569638878107,265.78243414498866,None,,,,,,,,,,,,,,,,,,,,,,,,,,,,,,,,,,,,,,,181,001,2024_Mar_11_1046,SpeechDraft1Carolyn_lessNoise_PlusLocalization,2021.2.3,59.98373804038756,
badge.wav,badge.mpg,badge,6,A,Pink_Noise_6_1.wav,Pink_Noise_6_2.wav,,,,,,,,,,,,,,,0,41,41,59,,,,,,,,,,,,,,,,,,,,,,,266.8824263047427,None,268.3824705313891,None,269.76680508535355,None,"smashed
",269.76680508535355,None,return,1.7861509546637535,269.8491485128179,None,,,,,,,,,,,,,,,,,,,,,,,,,,,,,,,,,,,,,,,181,001,2024_Mar_11_1046,SpeechDraft1Carolyn_lessNoise_PlusLocalization,2021.2.3,59.98373804038756,
chop.wav,chop.mpg,chop,2,AV,Pink_Noise_2_1.wav,Pink_Noise_2_2.wav,,,,,,,,,,,,,,,0,42,42,72,,,,,,,,,,,,,,,,,,,,,,,271.66580899525434,None,273.1657419158146,None,274.54898026864976,None,"chop
",274.54898026864976,None,return,1.6348462384194136,274.63245430216193,None,,,,,,,,,,,,,,,,,,,,,,,,,,,,,,,,,,,,,,,181,001,2024_Mar_11_1046,SpeechDraft1Carolyn_lessNoise_PlusLocalization,2021.2.3,59.98373804038756,
cycle.wav,cycle.mpg,cycle,3,AV,Pink_Noise_3_1.wav,Pink_Noise_3_2.wav,,,,,,,,,,,,,,,0,43,43,86,,,,,,,,,,,,,,,,,,,,,,,276.2991314791143,None,277.7988855848089,None,279.1824546130374,None,"suncle???
",279.1824546130374,None,return,4.769471546635032,279.2658247323707,None,,,,,,,,,,,,,,,,,,,,,,,,,,,,,,,,,,,,,,,181,001,2024_Mar_11_1046,SpeechDraft1Carolyn_lessNoise_PlusLocalization,2021.2.3,59.98373804038756,
bake.wav,bake.mpg,bake,2,AV,Pink_Noise_2_1.wav,Pink_Noise_2_2.wav,,,,,,,,,,,,,,,0,44,44,73,,,,,,,,,,,,,,,,,,,,,,,284.065778166987,None,285.56552814878523,None,286.9490605648607,None,bake,286.9490605648607,None,return,0.7947049522772431,287.0325818406418,None,,,,,,,,,,,,,,,,,,,,,,,,,,,,,,,,,,,,,,,181,001,2024_Mar_11_1046,SpeechDraft1Carolyn_lessNoise_PlusLocalization,2021.2.3,59.98373804038756,
chief.wav,chief.mpg,chief,3,AV,Pink_Noise_3_1.wav,Pink_Noise_3_2.wav,,,,,,,,,,,,,,,0,45,45,98,,,,,,,,,,,,,,,,,,,,,,,287.8491514539346,None,289.34890554565936,None,290.7324665552005,None,chief,290.7324665552005,None,return,0.9954700078815222,290.8158330814913,None,,,,,,,,,,,,,,,,,,,,,,,,,,,,,,,,,,,,,,,181,001,2024_Mar_11_1046,SpeechDraft1Carolyn_lessNoise_PlusLocalization,2021.2.3,59.98373804038756,
coal.wav,coal.mpg,coal,5,A,Pink_Noise_5_1.wav,Pink_Noise_5_2.wav,,,,,,,,,,,,,,,0,46,46,12,,,,,,,,,,,,,,,,,,,,,,,291.83246125560254,None,293.33243845496327,None,294.7157547837123,None,fall,294.7157547837123,None,return,0.9480649325996637,294.7992510413751,None,,,,,,,,,,,,,,,,,,,,,,,,,,,,,,,,,,,,,,,181,001,2024_Mar_11_1046,SpeechDraft1Carolyn_lessNoise_PlusLocalization,2021.2.3,59.98373804038756,
brand.wav,brand.mpg,brand,6,AV,Pink_Noise_6_1.wav,Pink_Noise_6_2.wav,,,,,,,,,,,,,,,0,47,47,66,,,,,,,,,,,,,,,,,,,,,,,295.76580898463726,None,297.26556211709976,None,298.6491225603968,None,"brain
",298.6491225603968,None,return,1.5348921893164515,298.7324066599831,None,,,,,,,,,,,,,,,,,,,,,,,,,,,,,,,,,,,,,,,181,001,2024_Mar_11_1046,SpeechDraft1Carolyn_lessNoise_PlusLocalization,2021.2.3,59.98373804038756,
golf.wav,golf.mpg,golf,1,A,Pink_Noise_1_1.wav,Pink_Noise_1_2.wav,,,,,,,,,,,,,,,0,48,48,30,,,,,,,,,,,,,,,,,,,,,,,300.2991303252056,None,301.80064080655575,None,303.18241054657847,None,"golf
",303.18241054657847,None,return,1.0173488073050976,303.26594877801836,None,,,,,,,,,,,,,,,,,,,,,,,,,,,,,,,,,,,,,,,181,001,2024_Mar_11_1046,SpeechDraft1Carolyn_lessNoise_PlusLocalization,2021.2.3,59.98373804038756,
duet.wav,duet.mpg,duet,6,AV,Pink_Noise_6_1.wav,Pink_Noise_6_2.wav,,,,,,,,,,,,,,,0,49,49,89,,,,,,,,,,,,,,,,,,,,,,,304.3158328169957,None,305.8162330444902,None,307.1990730864927,None,destroy,307.1990730864927,None,return,4.176737203262746,307.2825312791392,None,,,,,,,,,,,,,,,,,,,,,,,,,,,,,,,,,,,,,,,181,001,2024_Mar_11_1046,SpeechDraft1Carolyn_lessNoise_PlusLocalization,2021.2.3,59.98373804038756,
bless.wav,bless.mpg,bless,3,AV,Pink_Noise_3_1.wav,Pink_Noise_3_2.wav,,,,,,,,,,,,,,,0,50,50,71,,,,,,,,,,,,,,,,,,,,,,,311.4824990965426,None,312.983076938428,None,314.3657564325258,None,rest,314.3657564325258,None,return,1.0101933144032955,314.44915612600744,None,,,,,,,,,,,,,,,,,,,,,,,,,,,,,,,,,,,,,,,181,001,2024_Mar_11_1046,SpeechDraft1Carolyn_lessNoise_PlusLocalization,2021.2.3,59.98373804038756,
row.wav,row.mpg,row,1,A,Pink_Noise_1_1.wav,Pink_Noise_1_2.wav,,,,,,,,,,,,,,,0,51,51,6,,,,,,,,,,,,,,,,,,,,,,,315.48254069220275,None,316.9822881324217,None,318.365762620233,None,row,318.365762620233,None,return,0.7222118498757482,318.4492040537298,None,,,,,,,,,,,,,,,,,,,,,,,,,,,,,,,,,,,,,,,181,001,2024_Mar_11_1046,SpeechDraft1Carolyn_lessNoise_PlusLocalization,2021.2.3,59.98373804038756,
pact.wav,pact.mpg,pact,3,A,Pink_Noise_3_1.wav,Pink_Noise_3_2.wav,,,,,,,,,,,,,,,0,52,52,20,,,,,,,,,,,,,,,,,,,,,,,319.19916516076773,None,320.69899108540267,None,322.08248584065586,None,packed,322.08248584065586,None,return,0.9814477423205972,322.1658485503867,None,,,,,,,,,,,,,,,,,,,,,,,,,,,,,,,,,,,,,,,181,001,2024_Mar_11_1046,SpeechDraft1Carolyn_lessNoise_PlusLocalization,2021.2.3,59.98373804038756,
greed.wav,greed.mpg,greed,1,A,Pink_Noise_1_1.wav,Pink_Noise_1_2.wav,,,,,,,,,,,,,,,0,53,53,38,,,,,,,,,,,,,,,,,,,,,,,323.1658842032775,None,324.6656252332032,None,326.04920945782214,None,greed,326.04920945782214,None,return,1.238815420307219,326.13255041185766,None,,,,,,,,,,,,,,,,,,,,,,,,,,,,,,,,,,,,,,,181,001,2024_Mar_11_1046,SpeechDraft1Carolyn_lessNoise_PlusLocalization,2021.2.3,59.98373804038756,
cleft.wav,cleft.mpg,cleft,2,A,Pink_Noise_2_1.wav,Pink_Noise_2_2.wav,,,,,,,,,,,,,,,0,54,54,2,,,,,,,,,,,,,,,,,,,,,,,327.3991274945438,None,328.89894367661327,None,330.2826013090089,None,cleft,330.2826013090089,None,return,0.9413584833964705,330.3659535702318,None,,,,,,,,,,,,,,,,,,,,,,,,,,,,,,,,,,,,,,,181,001,2024_Mar_11_1046,SpeechDraft1Carolyn_lessNoise_PlusLocalization,2021.2.3,59.98373804038756,
pipe.wav,pipe.mpg,pipe,3,AV,Pink_Noise_3_1.wav,Pink_Noise_3_2.wav,,,,,,,,,,,,,,,0,55,55,85,,,,,,,,,,,,,,,,,,,,,,,331.33271479513496,None,332.8329770360142,None,334.21595876757056,None,plate,334.21595876757056,None,return,1.0321090444922447,334.2992581818253,None,,,,,,,,,,,,,,,,,,,,,,,,,,,,,,,,,,,,,,,181,001,2024_Mar_11_1046,SpeechDraft1Carolyn_lessNoise_PlusLocalization,2021.2.3,59.98373804038756,
cloud.wav,cloud.mpg,cloud,1,AV,Pink_Noise_1_1.wav,Pink_Noise_1_2.wav,,,,,,,,,,,,,,,0,56,56,84,,,,,,,,,,,,,,,,,,,,,,,335.3492252174765,None,336.8489604117349,None,338.2326286146417,None,cloud,338.2326286146417,None,return,1.5995195554569364,338.3158111143857,None,,,,,,,,,,,,,,,,,,,,,,,,,,,,,,,,,,,,,,,181,001,2024_Mar_11_1046,SpeechDraft1Carolyn_lessNoise_PlusLocalization,2021.2.3,59.98373804038756,
gut.wav,gut.mpg,gut,1,A,Pink_Noise_1_1.wav,Pink_Noise_1_2.wav,,,,,,,,,,,,,,,0,57,57,9,,,,,,,,,,,,,,,,,,,,,,,339.9325440134853,None,341.4328917087987,None,342.8157983934507,None,"gut
",342.8157983934507,None,return,0.7680130386725068,342.89928016625345,None,,,,,,,,,,,,,,,,,,,,,,,,,,,,,,,,,,,,,,,181,001,2024_Mar_11_1046,SpeechDraft1Carolyn_lessNoise_PlusLocalization,2021.2.3,59.98373804038756,
fear.wav,fear.mpg,fear,6,A,Pink_Noise_6_1.wav,Pink_Noise_6_2.wav,,,,,,,,,,,,,,,0,58,58,4,,,,,,,,,,,,,,,,,,,,,,,343.69939501583576,None,345.2156656021252,None,346.5993315335363,None,moose,346.5993315335363,None,return,1.0567799489945173,346.68259576987475,None,,,,,,,,,,,,,,,,,,,,,,,,,,,,,,,,,,,,,,,181,001,2024_Mar_11_1046,SpeechDraft1Carolyn_lessNoise_PlusLocalization,2021.2.3,59.98373804038756,
frost.wav,frost.mpg,frost,3,A,Pink_Noise_3_1.wav,Pink_Noise_3_2.wav,,,,,,,,,,,,,,,0,59,59,40,,,,,,,,,,,,,,,,,,,,,,,347.7660145768896,None,349.26556123699993,None,350.64924639556557,None,"frost
",350.64924639556557,None,return,0.9347766386345029,350.7325188536197,None,,,,,,,,,,,,,,,,,,,,,,,,,,,,,,,,,,,,,,,181,001,2024_Mar_11_1046,SpeechDraft1Carolyn_lessNoise_PlusLocalization,2021.2.3,59.98373804038756,
bed.wav,bed.mpg,bed,6,A,Pink_Noise_6_1.wav,Pink_Noise_6_2.wav,,,,,,,,,,,,,,,0,60,60,26,,,,,,,,,,,,,,,,,,,,,,,351.69930484797806,None,353.1990451849997,None,354.58245547953993,None,march,354.58245547953993,None,return,1.1134465811774135,354.665943342261,None,,,,,,,,,,,,,,,,,,,,,,,,,,,,,,,,,,,,,,,181,001,2024_Mar_11_1046,SpeechDraft1Carolyn_lessNoise_PlusLocalization,2021.2.3,59.98373804038756,
ghost.wav,ghost.mpg,ghost,1,A,Pink_Noise_1_1.wav,Pink_Noise_1_2.wav,,,,,,,,,,,,,,,0,61,61,33,,,,,,,,,,,,,,,,,,,,,,,355.79932979214936,None,357.29901140742004,None,358.68266182858497,None,"ghost
",358.68266182858497,None,return,0.9013968603685498,358.7659098422155,None,,,,,,,,,,,,,,,,,,,,,,,,,,,,,,,,,,,,,,,181,001,2024_Mar_11_1046,SpeechDraft1Carolyn_lessNoise_PlusLocalization,2021.2.3,59.98373804038756,
gum.wav,gum.mpg,gum,4,AV,Pink_Noise_4_1.wav,Pink_Noise_4_2.wav,,,,,,,,,,,,,,,0,62,62,87,,,,,,,,,,,,,,,,,,,,,,,359.69965289812535,None,361.21568158455193,None,362.59914935193956,None,gum,362.59914935193956,None,return,1.0728193763643503,362.6826196294278,None,,,,,,,,,,,,,,,,,,,,,,,,,,,,,,,,,,,,,,,181,001,2024_Mar_11_1046,SpeechDraft1Carolyn_lessNoise_PlusLocalization,2021.2.3,59.98373804038756,
strive.wav,strive.mpg,strive,2,A,Pink_Noise_2_1.wav,Pink_Noise_2_2.wav,,,,,,,,,,,,,,,0,63,63,10,,,,,,,,,,,,,,,,,,,,,,,363.78262504190207,None,365.29891675617546,None,366.68262379802763,None,strive,366.68262379802763,None,return,1.2613408649340272,366.7659542998299,None,,,,,,,,,,,,,,,,,,,,,,,,,,,,,,,,,,,,,,,181,001,2024_Mar_11_1046,SpeechDraft1Carolyn_lessNoise_PlusLocalization,2021.2.3,59.98373804038756,
clown.wav,clown.mpg,clown,3,A,Pink_Noise_3_1.wav,Pink_Noise_3_2.wav,,,,,,,,,,,,,,,0,64,64,29,,,,,,,,,,,,,,,,,,,,,,,368.04927953891456,None,369.5656460300088,None,370.9494873546064,None,cloud,370.9494873546064,None,return,1.3387866346165538,371.0326221399009,None,,,,,,,,,,,,,,,,,,,,,,,,,,,,,,,,,,,,,,,181,001,2024_Mar_11_1046,SpeechDraft1Carolyn_lessNoise_PlusLocalization,2021.2.3,59.98373804038756,
bet.wav,bet.mpg,bet,1,A,Pink_Noise_1_1.wav,Pink_Noise_1_2.wav,,,,,,,,,,,,,,,0,65,65,32,,,,,,,,,,,,,,,,,,,,,,,372.3991996226832,None,373.9156455891207,None,375.2993059400469,None,bet,375.2993059400469,None,return,0.7806474072858691,375.3826762130484,None,,,,,,,,,,,,,,,,,,,,,,,,,,,,,,,,,,,,,,,181,001,2024_Mar_11_1046,SpeechDraft1Carolyn_lessNoise_PlusLocalization,2021.2.3,59.98373804038756,
freeze.wav,freeze.mpg,freeze,3,AV,Pink_Noise_3_1.wav,Pink_Noise_3_2.wav,,,,,,,,,,,,,,,0,66,66,68,,,,,,,,,,,,,,,,,,,,,,,376.18258914351463,None,377.6990556474775,None,379.0825295345858,None,freeze,379.0825295345858,None,return,1.9734400026500225,379.1659156708047,None,,,,,,,,,,,,,,,,,,,,,,,,,,,,,,,,,,,,,,,181,001,2024_Mar_11_1046,SpeechDraft1Carolyn_lessNoise_PlusLocalization,2021.2.3,59.98373804038756,
eel.wav,eel.mpg,eel,4,AV,Pink_Noise_4_1.wav,Pink_Noise_4_2.wav,,,,,,,,,,,,,,,0,67,67,65,,,,,,,,,,,,,,,,,,,,,,,381.16591088380665,None,382.6658488539979,None,384.0491511989385,None,heel,384.0491511989385,None,return,0.8941768249496818,384.1491009136662,None,,,,,,,,,,,,,,,,,,,,,,,,,,,,,,,,,,,,,,,181,001,2024_Mar_11_1046,SpeechDraft1Carolyn_lessNoise_PlusLocalization,2021.2.3,59.98373804038756,
boost.wav,boost.mpg,boost,1,AV,Pink_Noise_1_1.wav,Pink_Noise_1_2.wav,,,,,,,,,,,,,,,0,68,68,62,,,,,,,,,,,,,,,,,,,,,,,385.0659707766026,None,386.58232165221125,None,387.9659326206893,None,boost,387.9659326206893,None,return,1.4099677130579948,388.04932600911707,None,,,,,,,,,,,,,,,,,,,,,,,,,,,,,,,,,,,,,,,181,001,2024_Mar_11_1046,SpeechDraft1Carolyn_lessNoise_PlusLocalization,2021.2.3,59.98373804038756,
coach.wav,coach.mpg,coach,2,A,Pink_Noise_2_1.wav,Pink_Noise_2_2.wav,,,,,,,,,,,,,,,0,69,69,13,,,,,,,,,,,,,,,,,,,,,,,389.4826775835827,None,390.9990655751899,None,392.38275912962854,None,coach,392.38275912962854,None,return,2.1053317328915,392.4660271918401,None,,,,,,,,,,,,,,,,,,,,,,,,,,,,,,,,,,,,,,,181,001,2024_Mar_11_1046,SpeechDraft1Carolyn_lessNoise_PlusLocalization,2021.2.3,59.98373804038756,
grim.wav,grim.mpg,grim,4,AV,Pink_Noise_4_1.wav,Pink_Noise_4_2.wav,,,,,,,,,,,,,,,0,70,70,107,,,,,,,,,,,,,,,,,,,,,,,394.59931426215917,None,396.11577832791954,None,397.49933368805796,None,"grim
",397.49933368805796,None,return,1.0846992852166295,397.582597178407,None,,,,,,,,,,,,,,,,,,,,,,,,,,,,,,,,,,,,,,,181,001,2024_Mar_11_1046,SpeechDraft1Carolyn_lessNoise_PlusLocalization,2021.2.3,59.98373804038756,
bloat.wav,bloat.mpg,bloat,6,AV,Pink_Noise_6_1.wav,Pink_Noise_6_2.wav,,,,,,,,,,,,,,,0,71,71,80,,,,,,,,,,,,,,,,,,,,,,,398.69937590509653,None,400.21572303492576,None,401.5993112679571,None,bloat,401.5993112679571,None,return,1.1446342477574944,401.6826529381797,None,,,,,,,,,,,,,,,,,,,,,,,,,,,,,,,,,,,,,,,181,001,2024_Mar_11_1046,SpeechDraft1Carolyn_lessNoise_PlusLocalization,2021.2.3,59.98373804038756,
cheer.wav,cheer.mpg,cheer,5,A,Pink_Noise_5_1.wav,Pink_Noise_5_2.wav,,,,,,,,,,,,,,,0,72,72,45,,,,,,,,,,,,,,,,,,,,,,,402.84925709385425,None,404.3658606512472,None,405.74996952340007,None,sheer,405.74996952340007,None,return,0.954662537202239,405.83267370890826,None,,,,,,,,,,,,,,,,,,,,,,,,,,,,,,,,,,,,,,,181,001,2024_Mar_11_1046,SpeechDraft1Carolyn_lessNoise_PlusLocalization,2021.2.3,59.98373804038756,
dirt.wav,dirt.mpg,dirt,6,AV,Pink_Noise_6_1.wav,Pink_Noise_6_2.wav,,,,,,,,,,,,,,,0,73,73,75,,,,,,,,,,,,,,,,,,,,,,,406.81593692395836,None,408.33230443578213,None,409.7159175295383,None,push,409.7159175295383,None,return,1.7478378769010305,409.7994689717889,None,,,,,,,,,,,,,,,,,,,,,,,,,,,,,,,,,,,,,,,181,001,2024_Mar_11_1046,SpeechDraft1Carolyn_lessNoise_PlusLocalization,2021.2.3,59.98373804038756,
guilt.wav,guilt.mpg,guilt,2,AV,Pink_Noise_2_1.wav,Pink_Noise_2_2.wav,,,,,,,,,,,,,,,0,74,74,99,,,,,,,,,,,,,,,,,,,,,,,411.565997694619,None,413.0661090053618,None,414.44922132603824,None,"guilt
",414.44922132603824,None,return,1.1026396173983812,414.5326445577666,None,,,,,,,,,,,,,,,,,,,,,,,,,,,,,,,,,,,,,,,181,001,2024_Mar_11_1046,SpeechDraft1Carolyn_lessNoise_PlusLocalization,2021.2.3,59.98373804038756,
fruit.wav,fruit.mpg,fruit,3,AV,Pink_Noise_3_1.wav,Pink_Noise_3_2.wav,,,,,,,,,,,,,,,0,75,75,90,,,,,,,,,,,,,,,,,,,,,,,415.66604111436754,None,417.18239151407033,None,418.56591610144824,None,fruit,418.56591610144824,None,return,1.0499079460278153,418.64944138750434,None,,,,,,,,,,,,,,,,,,,,,,,,,,,,,,,,,,,,,,,181,001,2024_Mar_11_1046,SpeechDraft1Carolyn_lessNoise_PlusLocalization,2021.2.3,59.98373804038756,
stone.wav,stone.mpg,stone,1,A,Pink_Noise_1_1.wav,Pink_Noise_1_2.wav,,,,,,,,,,,,,,,0,76,76,46,,,,,,,,,,,,,,,,,,,,,,,419.71667477302253,None,421.2325845900923,None,422.6158861434087,None,stow,422.6158861434087,None,return,0.959992041811347,422.69929363112897,None,,,,,,,,,,,,,,,,,,,,,,,,,,,,,,,,,,,,,,,181,001,2024_Mar_11_1046,SpeechDraft1Carolyn_lessNoise_PlusLocalization,2021.2.3,59.98373804038756,
blob.wav,blob.mpg,blob,2,AV,Pink_Noise_2_1.wav,Pink_Noise_2_2.wav,,,,,,,,,,,,,,,0,77,77,100,,,,,,,,,,,,,,,,,,,,,,,423.68270055390894,None,425.1990410257131,None,426.5826636431739,None,"plob
",426.5826636431739,None,return,1.568628496490419,426.68267032224685,None,,,,,,,,,,,,,,,,,,,,,,,,,,,,,,,,,,,,,,,181,001,2024_Mar_11_1046,SpeechDraft1Carolyn_lessNoise_PlusLocalization,2021.2.3,59.98373804038756,
curve.wav,curve.mpg,curve,3,A,Pink_Noise_3_1.wav,Pink_Noise_3_2.wav,,,,,,,,,,,,,,,0,78,78,39,,,,,,,,,,,,,,,,,,,,,,,428.28262196760625,None,429.799136727117,None,431.18271380197257,None,"curl
",431.18271380197257,None,return,1.2012954261153936,431.26600542943925,None,,,,,,,,,,,,,,,,,,,,,,,,,,,,,,,,,,,,,,,181,001,2024_Mar_11_1046,SpeechDraft1Carolyn_lessNoise_PlusLocalization,2021.2.3,59.98373804038756,
drive.wav,drive.mpg,drive,1,A,Pink_Noise_1_1.wav,Pink_Noise_1_2.wav,,,,,,,,,,,,,,,0,79,79,37,,,,,,,,,,,,,,,,,,,,,,,432.4993632212281,None,434.01583442837,None,435.39942525886,None,drive,435.39942525886,None,return,2.7765538385137916,435.4827203620225,None,,,,,,,,,,,,,,,,,,,,,,,,,,,,,,,,,,,,,,,181,001,2024_Mar_11_1046,SpeechDraft1Carolyn_lessNoise_PlusLocalization,2021.2.3,59.98373804038756,
gag.wav,gag.mpg,gag,3,A,Pink_Noise_3_1.wav,Pink_Noise_3_2.wav,,,,,,,,,,,,,,,0,80,80,19,,,,,,,,,,,,,,,,,,,,,,,438.28257632721215,None,439.81581428740174,None,441.19948417227715,None,"gag
",441.19948417227715,None,return,0.5366303324699402,441.28265784308314,None,,,,,,,,,,,,,,,,,,,,,,,,,,,,,,,,,,,,,,,181,001,2024_Mar_11_1046,SpeechDraft1Carolyn_lessNoise_PlusLocalization,2021.2.3,59.98373804038756,
gone.wav,gone.mpg,gone,5,A,Pink_Noise_5_1.wav,Pink_Noise_5_2.wav,,,,,,,,,,,,,,,0,81,81,16,,,,,,,,,,,,,,,,,,,,,,,441.84930216614157,None,443.3657573228702,None,444.74942587222904,None,wind,444.74942587222904,None,return,1.2586502358317375,444.8326666681096,None,,,,,,,,,,,,,,,,,,,,,,,,,,,,,,,,,,,,,,,181,001,2024_Mar_11_1046,SpeechDraft1Carolyn_lessNoise_PlusLocalization,2021.2.3,59.98373804038756,
cure.wav,cure.mpg,cure,1,A,Pink_Noise_1_1.wav,Pink_Noise_1_2.wav,,,,,,,,,,,,,,,0,82,82,35,,,,,,,,,,,,,,,,,,,,,,,446.11602205689996,None,447.6325817257166,None,449.01607723906636,None,cure,449.01607723906636,None,return,1.5439162207767367,449.099358683452,None,,,,,,,,,,,,,,,,,,,,,,,,,,,,,,,,,,,,,,,181,001,2024_Mar_11_1046,SpeechDraft1Carolyn_lessNoise_PlusLocalization,2021.2.3,59.98373804038756,
dusk.wav,dusk.mpg,dusk,6,AV,Pink_Noise_6_1.wav,Pink_Noise_6_2.wav,,,,,,,,,,,,,,,0,83,83,69,,,,,,,,,,,,,,,,,,,,,,,450.66597924381495,None,452.18455576337874,None,453.5659387940541,None,"nuts
",453.5659387940541,None,return,0.5698481881991029,453.6494405930862,None,,,,,,,,,,,,,,,,,,,,,,,,,,,,,,,,,,,,,,,181,001,2024_Mar_11_1046,SpeechDraft1Carolyn_lessNoise_PlusLocalization,2021.2.3,59.98373804038756,
club.wav,club.mpg,club,6,AV,Pink_Noise_6_1.wav,Pink_Noise_6_2.wav,,,,,,,,,,,,,,,0,84,84,70,,,,,,,,,,,,,,,,,,,,,,,454.24942281097174,None,455.76572275627404,None,457.14928061515093,None,slub,457.14928061515093,None,return,3.6986303934827447,457.23273955099285,None,,,,,,,,,,,,,,,,,,,,,,,,,,,,,,,,,,,,,,,181,001,2024_Mar_11_1046,SpeechDraft1Carolyn_lessNoise_PlusLocalization,2021.2.3,59.98373804038756,
glare.wav,glare.mpg,glare,2,AV,Pink_Noise_2_1.wav,Pink_Noise_2_2.wav,,,,,,,,,,,,,,,0,85,85,116,,,,,,,,,,,,,,,,,,,,,,,460.949412339367,None,462.48241791222245,None,463.8661344908178,None,glar,463.8661344908178,None,return,0.765952748246491,463.94938584044576,None,,,,,,,,,,,,,,,,,,,,,,,,,,,,,,,,,,,,,,,181,001,2024_Mar_11_1046,SpeechDraft1Carolyn_lessNoise_PlusLocalization,2021.2.3,59.98373804038756,
gloom.wav,gloom.mpg,gloom,5,A,Pink_Noise_5_1.wav,Pink_Noise_5_2.wav,,,,,,,,,,,,,,,0,86,86,3,,,,,,,,,,,,,,,,,,,,,,,464.7329915240407,None,466.24918290320784,None,467.6327333720401,None,gleam,467.6327333720401,None,return,0.9912436911836267,467.71605952549726,None,,,,,,,,,,,,,,,,,,,,,,,,,,,,,,,,,,,,,,,181,001,2024_Mar_11_1046,SpeechDraft1Carolyn_lessNoise_PlusLocalization,2021.2.3,59.98373804038756,
grip.wav,grip.mpg,grip,4,A,Pink_Noise_4_1.wav,Pink_Noise_4_2.wav,,,,,,,,,,,,,,,0,87,87,25,,,,,,,,,,,,,,,,,,,,,,,468.7327588684857,None,470.24915161542594,None,471.6327335201204,None,"grip
",471.6327335201204,None,return,0.9511924292892218,471.7161055514589,None,,,,,,,,,,,,,,,,,,,,,,,,,,,,,,,,,,,,,,,181,001,2024_Mar_11_1046,SpeechDraft1Carolyn_lessNoise_PlusLocalization,2021.2.3,59.98373804038756,
tank.wav,tank.mpg,tank,2,A,Pink_Noise_2_1.wav,Pink_Noise_2_2.wav,,,,,,,,,,,,,,,0,88,88,24,,,,,,,,,,,,,,,,,,,,,,,472.6994116930291,None,474.2157913642004,None,475.59960332140326,None,tank,475.59960332140326,None,return,0.9125087363645434,475.68277108389884,None,,,,,,,,,,,,,,,,,,,,,,,,,,,,,,,,,,,,,,,181,001,2024_Mar_11_1046,SpeechDraft1Carolyn_lessNoise_PlusLocalization,2021.2.3,59.98373804038756,
quart.wav,quart.mpg,quart,5,AV,Pink_Noise_5_1.wav,Pink_Noise_5_2.wav,,,,,,,,,,,,,,,0,89,89,108,,,,,,,,,,,,,,,,,,,,,,,476.6161231258884,None,478.13247014954686,None,479.5159777048975,None,port,479.5159777048975,None,return,1.1720550823956728,479.5993454242125,None,,,,,,,,,,,,,,,,,,,,,,,,,,,,,,,,,,,,,,,181,001,2024_Mar_11_1046,SpeechDraft1Carolyn_lessNoise_PlusLocalization,2021.2.3,59.98373804038756,
none.wav,none.mpg,none,2,AV,Pink_Noise_2_1.wav,Pink_Noise_2_2.wav,,,,,,,,,,,,,,,0,90,90,101,,,,,,,,,,,,,,,,,,,,,,,480.7993972739205,None,482.3325114082545,None,483.7160076284781,None,nun,483.7160076284781,None,return,1.1478525456041098,483.79945180006325,None,,,,,,,,,,,,,,,,,,,,,,,,,,,,,,,,,,,,,,,181,001,2024_Mar_11_1046,SpeechDraft1Carolyn_lessNoise_PlusLocalization,2021.2.3,59.98373804038756,
dune.wav,dune.mpg,dune,4,A,Pink_Noise_4_1.wav,Pink_Noise_4_2.wav,,,,,,,,,,,,,,,0,91,91,7,,,,,,,,,,,,,,,,,,,,,,,484.96617204416543,None,486.4824062054977,None,487.8661586334929,None,dew,487.8661586334929,None,return,0.8937676819041371,487.9495257632807,None,,,,,,,,,,,,,,,,,,,,,,,,,,,,,,,,,,,,,,,181,001,2024_Mar_11_1046,SpeechDraft1Carolyn_lessNoise_PlusLocalization,2021.2.3,59.98373804038756,
steam.wav,steam.mpg,steam,2,A,Pink_Noise_2_1.wav,Pink_Noise_2_2.wav,,,,,,,,,,,,,,,0,92,92,5,,,,,,,,,,,,,,,,,,,,,,,488.8661796422675,None,490.3657949734479,None,491.74952116049826,None,"steam
",491.74952116049826,None,return,1.1706526316702366,491.83263294864446,None,,,,,,,,,,,,,,,,,,,,,,,,,,,,,,,,,,,,,,,181,001,2024_Mar_11_1046,SpeechDraft1Carolyn_lessNoise_PlusLocalization,2021.2.3,59.98373804038756,
dad.wav,dad.mpg,dad,1,AV,Pink_Noise_1_1.wav,Pink_Noise_1_2.wav,,,,,,,,,,,,,,,0,93,93,97,,,,,,,,,,,,,,,,,,,,,,,493.0327305300161,None,494.5492017855868,None,495.9326659711078,None,dad,495.9326659711078,None,return,0.7951638866215944,496.016141531989,None,,,,,,,,,,,,,,,,,,,,,,,,,,,,,,,,,,,,,,,181,001,2024_Mar_11_1046,SpeechDraft1Carolyn_lessNoise_PlusLocalization,2021.2.3,59.98373804038756,
cop.wav,cop.mpg,cop,2,A,Pink_Noise_2_1.wav,Pink_Noise_2_2.wav,,,,,,,,,,,,,,,0,94,94,36,,,,,,,,,,,,,,,,,,,,,,,496.8326945109293,None,498.3667591288686,None,499.74947484675795,None,cop,499.74947484675795,None,return,0.6986007494851947,499.83280800189823,None,,,,,,,,,,,,,,,,,,,,,,,,,,,,,,,,,,,,,,,181,001,2024_Mar_11_1046,SpeechDraft1Carolyn_lessNoise_PlusLocalization,2021.2.3,59.98373804038756,
drab.wav,drab.mpg,drab,4,A,Pink_Noise_4_1.wav,Pink_Noise_4_2.wav,,,,,,,,,,,,,,,0,95,95,31,,,,,,,,,,,,,,,,,,,,,,,500.5494015077129,None,502.0660023568198,None,503.44954258576035,None,dress,503.44954258576035,None,return,3.0385543927550316,503.5327934809029,None,,,,,,,,,,,,,,,,,,,,,,,,,,,,,,,,,,,,,,,181,001,2024_Mar_11_1046,SpeechDraft1Carolyn_lessNoise_PlusLocalization,2021.2.3,59.98373804038756,
fried.wav,fried.mpg,fried,4,AV,Pink_Noise_4_1.wav,Pink_Noise_4_2.wav,,,,,,,,,,,,,,,0,96,96,81,,,,,,,,,,,,,,,,,,,,,,,506.59947389923036,None,508.1159470640123,None,509.4994287537411,None,fry,509.4994287537411,None,return,2.2604128252714872,509.5828708484769,None,,,,,,,,,,,,,,,,,,,,,,,,,,,,,,,,,,,,,,,181,001,2024_Mar_11_1046,SpeechDraft1Carolyn_lessNoise_PlusLocalization,2021.2.3,59.98373804038756,
cruel.wav,cruel.mpg,cruel,4,A,Pink_Noise_4_1.wav,Pink_Noise_4_2.wav,,,,,,,,,,,,,,,0,97,97,57,,,,,,,,,,,,,,,,,,,,,,,511.86607004795223,None,513.3825413957238,None,514.7661151438951,None,"cool
",514.7661151438951,None,return,0.817812348715961,514.8494854578748,None,,,,,,,,,,,,,,,,,,,,,,,,,,,,,,,,,,,,,,,181,001,2024_Mar_11_1046,SpeechDraft1Carolyn_lessNoise_PlusLocalization,2021.2.3,59.98373804038756,
wine.wav,wine.mpg,wine,4,AV,Pink_Noise_4_1.wav,Pink_Noise_4_2.wav,,,,,,,,,,,,,,,0,98,98,91,,,,,,,,,,,,,,,,,,,,,,,515.6994252577424,None,517.215890346095,None,518.5993667114526,None,wind,518.5993667114526,None,return,1.2485077315941453,518.6828407905996,None,,,,,,,,,,,,,,,,,,,,,,,,,,,,,,,,,,,,,,,181,001,2024_Mar_11_1046,SpeechDraft1Carolyn_lessNoise_PlusLocalization,2021.2.3,59.98373804038756,
leapt.wav,leapt.mpg,leapt,1,AV,Pink_Noise_1_1.wav,Pink_Noise_1_2.wav,,,,,,,,,,,,,,,0,99,99,102,,,,,,,,,,,,,,,,,,,,,,,519.9495720956475,None,521.4659455735236,None,522.8494418840855,None,"lept
",522.8494418840855,None,return,1.1505879955366254,522.9327292768285,None,,,,,,,,,,,,,,,,,,,,,,,,,,,,,,,,,,,,,,,181,001,2024_Mar_11_1046,SpeechDraft1Carolyn_lessNoise_PlusLocalization,2021.2.3,59.98373804038756,
dash.wav,dash.mpg,dash,5,A,Pink_Noise_5_1.wav,Pink_Noise_5_2.wav,,,,,,,,,,,,,,,0,100,100,18,,,,,,,,,,,,,,,,,,,,,,,524.1161399185658,None,525.6325113419443,None,527.0161787997931,None,"dash
",527.0161787997931,None,return,2.535830515436828,527.0994588928297,None,,,,,,,,,,,,,,,,,,,,,,,,,,,,,,,,,,,,,,,181,001,2024_Mar_11_1046,SpeechDraft1Carolyn_lessNoise_PlusLocalization,2021.2.3,59.98373804038756,
dress.wav,dress.mpg,dress,4,A,Pink_Noise_4_1.wav,Pink_Noise_4_2.wav,,,,,,,,,,,,,,,0,101,101,21,,,,,,,,,,,,,,,,,,,,,,,529.6662244331092,None,531.1992879230529,None,532.5827629221603,None,dress,532.5827629221603,None,return,1.0332453418523073,532.6661137556657,None,,,,,,,,,,,,,,,,,,,,,,,,,,,,,,,,,,,,,,,181,001,2024_Mar_11_1046,SpeechDraft1Carolyn_lessNoise_PlusLocalization,2021.2.3,59.98373804038756,
fund.wav,fund.mpg,fund,5,AV,Pink_Noise_5_1.wav,Pink_Noise_5_2.wav,,,,,,,,,,,,,,,0,102,102,79,,,,,,,,,,,,,,,,,,,,,,,533.7161061428487,None,535.2330654030666,None,536.6160452179611,None,front,536.6160452179611,None,return,0.9117556111887097,536.6995481606573,None,,,,,,,,,,,,,,,,,,,,,,,,,,,,,,,,,,,,,,,181,001,2024_Mar_11_1046,SpeechDraft1Carolyn_lessNoise_PlusLocalization,2021.2.3,59.98373804038756,
gang.wav,gang.mpg,gang,1,AV,Pink_Noise_1_1.wav,Pink_Noise_1_2.wav,,,,,,,,,,,,,,,0,103,103,96,,,,,,,,,,,,,,,,,,,,,,,537.6329842321575,None,539.1659076977521,None,540.5494243549183,None,"gang
",540.5494243549183,None,return,4.018514011055231,540.6327845761552,None,,,,,,,,,,,,,,,,,,,,,,,,,,,,,,,,,,,,,,,181,001,2024_Mar_11_1046,SpeechDraft1Carolyn_lessNoise_PlusLocalization,2021.2.3,59.98373804038756,
dead.wav,dead.mpg,dead,6,A,Pink_Noise_6_1.wav,Pink_Noise_6_2.wav,,,,,,,,,,,,,,,0,104,104,8,,,,,,,,,,,,,,,,,,,,,,,544.6829544985667,None,546.1992530012503,None,547.5829409454018,None,death,547.5829409454018,None,return,2.193144070915878,547.6661484595388,None,,,,,,,,,,,,,,,,,,,,,,,,,,,,,,,,,,,,,,,181,001,2024_Mar_11_1046,SpeechDraft1Carolyn_lessNoise_PlusLocalization,2021.2.3,59.98373804038756,
cook.wav,cook.mpg,cook,2,AV,Pink_Noise_2_1.wav,Pink_Noise_2_2.wav,,,,,,,,,,,,,,,0,105,105,76,,,,,,,,,,,,,,,,,,,,,,,549.882747747004,None,551.3992398139089,None,552.7827723436058,None,"cook
",552.7827723436058,None,return,1.7690877029672265,552.8662025164813,None,,,,,,,,,,,,,,,,,,,,,,,,,,,,,,,,,,,,,,,181,001,2024_Mar_11_1046,SpeechDraft1Carolyn_lessNoise_PlusLocalization,2021.2.3,59.98373804038756,
broad.wav,broad.mpg,broad,2,AV,Pink_Noise_2_1.wav,Pink_Noise_2_2.wav,,,,,,,,,,,,,,,0,106,106,61,,,,,,,,,,,,,,,,,,,,,,,554.6662068450823,None,556.1992221847177,None,557.5827319156379,None,broad,557.5827319156379,None,return,2.6411200733855367,557.6661711782217,None,,,,,,,,,,,,,,,,,,,,,,,,,,,,,,,,,,,,,,,181,001,2024_Mar_11_1046,SpeechDraft1Carolyn_lessNoise_PlusLocalization,2021.2.3,59.98373804038756,
care.wav,care.mpg,care,2,A,Pink_Noise_2_1.wav,Pink_Noise_2_2.wav,,,,,,,,,,,,,,,0,107,107,34,,,,,,,,,,,,,,,,,,,,,,,560.332914698869,None,561.8495029406622,None,563.2327572917566,None,"care
",563.2327572917566,None,return,0.7511069364845753,563.3161877207458,None,,,,,,,,,,,,,,,,,,,,,,,,,,,,,,,,,,,,,,,181,001,2024_Mar_11_1046,SpeechDraft1Carolyn_lessNoise_PlusLocalization,2021.2.3,59.98373804038756,
druid.wav,druid.mpg,druid,3,AV,Pink_Noise_3_1.wav,Pink_Noise_3_2.wav,,,,,,,,,,,,,,,0,108,108,104,,,,,,,,,,,,,,,,,,,,,,,564.0996069330722,None,565.6160131730139,None,566.9994859611616,None,druid,566.9994859611616,None,return,0.8084505805745721,567.082917268388,None,,,,,,,,,,,,,,,,,,,,,,,,,,,,,,,,,,,,,,,181,001,2024_Mar_11_1046,SpeechDraft1Carolyn_lessNoise_PlusLocalization,2021.2.3,59.98373804038756,
gulp.wav,gulp.mpg,gulp,4,AV,Pink_Noise_4_1.wav,Pink_Noise_4_2.wav,,,,,,,,,,,,,,,0,109,109,94,,,,,,,,,,,,,,,,,,,,,,,567.9164061769843,None,569.4658658830449,None,570.8495706254616,None,"sculpt
",570.8495706254616,None,return,1.2865654965862632,570.932743979618,None,,,,,,,,,,,,,,,,,,,,,,,,,,,,,,,,,,,,,,,181,001,2024_Mar_11_1046,SpeechDraft1Carolyn_lessNoise_PlusLocalization,2021.2.3,59.98373804038756,
dream.wav,dream.mpg,dream,1,AV,Pink_Noise_1_1.wav,Pink_Noise_1_2.wav,,,,,,,,,,,,,,,0,110,110,109,,,,,,,,,,,,,,,,,,,,,,,572.2495125448331,None,573.78269793652,None,575.1661221990362,None,"dream
",575.1661221990362,None,return,1.0177768971771002,575.2494923705235,None,,,,,,,,,,,,,,,,,,,,,,,,,,,,,,,,,,,,,,,181,001,2024_Mar_11_1046,SpeechDraft1Carolyn_lessNoise_PlusLocalization,2021.2.3,59.98373804038756,
clue.wav,clue.mpg,clue,3,A,Pink_Noise_3_1.wav,Pink_Noise_3_2.wav,,,,,,,,,,,,,,,0,111,111,27,,,,,,,,,,,,,,,,,,,,,,,576.2995785260573,None,577.8159559099004,None,579.1994963483885,None,clue,579.1994963483885,None,return,1.0806067949160933,579.2828156668693,None,,,,,,,,,,,,,,,,,,,,,,,,,,,,,,,,,,,,,,,181,001,2024_Mar_11_1046,SpeechDraft1Carolyn_lessNoise_PlusLocalization,2021.2.3,59.98373804038756,
dry.wav,dry.mpg,dry,1,A,Pink_Noise_1_1.wav,Pink_Noise_1_2.wav,,,,,,,,,,,,,,,0,112,112,44,,,,,,,,,,,,,,,,,,,,,,,580.3828445980325,None,581.8992180582136,None,583.2828856408596,None,dry,583.2828856408596,None,return,1.5971485348418355,583.3662807736546,None,,,,,,,,,,,,,,,,,,,,,,,,,,,,,,,,,,,,,,,181,001,2024_Mar_11_1046,SpeechDraft1Carolyn_lessNoise_PlusLocalization,2021.2.3,59.98373804038756,
fake.wav,fake.mpg,fake,5,A,Pink_Noise_5_1.wav,Pink_Noise_5_2.wav,,,,,,,,,,,,,,,0,113,113,28,,,,,,,,,,,,,,,,,,,,,,,584.9828560268506,None,586.4992433302104,None,587.8828830942512,None,"flint
",587.8828830942512,None,return,2.0210216576233506,587.9662496214733,None,,,,,,,,,,,,,,,,,,,,,,,,,,,,,,,,,,,,,,,181,001,2024_Mar_11_1046,SpeechDraft1Carolyn_lessNoise_PlusLocalization,2021.2.3,59.98373804038756,
grape.wav,grape.mpg,grape,6,A,Pink_Noise_6_1.wav,Pink_Noise_6_2.wav,,,,,,,,,,,,,,,0,114,114,50,,,,,,,,,,,,,,,,,,,,,,,590.0163475479931,None,591.532770710066,None,592.9162505147979,None,rich,592.9162505147979,None,return,0.9398021716624498,592.9995325691998,None,,,,,,,,,,,,,,,,,,,,,,,,,,,,,,,,,,,,,,,181,001,2024_Mar_11_1046,SpeechDraft1Carolyn_lessNoise_PlusLocalization,2021.2.3,59.98373804038756,
coup.wav,coup.mpg,coup,4,AV,Pink_Noise_4_1.wav,Pink_Noise_4_2.wav,,,,,,,,,,,,,,,0,115,115,117,,,,,,,,,,,,,,,,,,,,,,,593.9661867078394,None,595.499338936992,None,596.8827563971281,None,coup,596.8827563971281,None,return,2.6770404679700732,596.966250821948,None,,,,,,,,,,,,,,,,,,,,,,,,,,,,,,,,,,,,,,,181,001,2024_Mar_11_1046,SpeechDraft1Carolyn_lessNoise_PlusLocalization,2021.2.3,59.98373804038756,
drain.wav,drain.mpg,drain,2,A,Pink_Noise_2_1.wav,Pink_Noise_2_2.wav,,,,,,,,,,,,,,,0,116,116,52,,,,,,,,,,,,,,,,,,,,,,,599.6662605721503,None,601.1999577693641,None,602.5829609204084,None,drain,602.5829609204084,None,return,0.8651412623003125,602.6662124348804,None,,,,,,,,,,,,,,,,,,,,,,,,,,,,,,,,,,,,,,,181,001,2024_Mar_11_1046,SpeechDraft1Carolyn_lessNoise_PlusLocalization,2021.2.3,59.98373804038756,
dual.wav,dual.mpg,dual,4,AV,Pink_Noise_4_1.wav,Pink_Noise_4_2.wav,,,,,,,,,,,,,,,0,117,117,92,,,,,,,,,,,,,,,,,,,,,,,603.5496225114912,None,605.0825971001759,None,606.4661834435537,None,duel,606.4661834435537,None,return,1.24578557908535,606.5495263347402,None,,,,,,,,,,,,,,,,,,,,,,,,,,,,,,,,,,,,,,,181,001,2024_Mar_11_1046,SpeechDraft1Carolyn_lessNoise_PlusLocalization,2021.2.3,59.98373804038756,
block.wav,block.mpg,block,6,A,Pink_Noise_6_1.wav,Pink_Noise_6_2.wav,,,,,,,,,,,,,,,0,118,118,43,,,,,,,,,,,,,,,,,,,,,,,607.8161985371262,None,609.3492510411888,None,610.7328877625987,None,wash,610.7328877625987,None,return,0.8749457504600286,610.8163574580103,None,,,,,,,,,,,,,,,,,,,,,,,,,,,,,,,,,,,,,,,181,001,2024_Mar_11_1046,SpeechDraft1Carolyn_lessNoise_PlusLocalization,2021.2.3,59.98373804038756,
wild.wav,wild.mpg,wild,6,A,Pink_Noise_6_1.wav,Pink_Noise_6_2.wav,,,,,,,,,,,,,,,0,119,119,49,,,,,,,,,,,,,,,,,,,,,,,611.7163508264348,None,613.2342381896451,None,614.6163735277951,None,wired,614.6163735277951,None,return,1.0477264868095517,614.6995831085369,None,,,,,,,,,,,,,,,,,,,,,,,,,,,,,,,,,,,,,,,181,001,2024_Mar_11_1046,SpeechDraft1Carolyn_lessNoise_PlusLocalization,2021.2.3,59.98373804038756,
,,,,,,,,,,,,,,,,,,,,,,,,,,,,,,,,,,,,,,,,,,,,,,,,,,,,,,,,,,,,,,,,,,space,56.913106868974864,615.8662745989859,None,,,,,,,,,,,,,,,,,,,,,,,,,,,,,181,001,2024_Mar_11_1046,SpeechDraft1Carolyn_lessNoise_PlusLocalization,2021.2.3,59.98373804038756,
,,,,,,,,midRight,13.0,3,ch1Sound_localizationTask.wav,13.0,"(1142, 878)","(182, -202)",190,-338,,,,,,,,,0,0,0,5,,,,,,,,,,,,,,,,,,,,,,,,,,,,,,,,,,,,,,,,,,615.8662745989859,None,672.816125748679,None,673.9176293713972,None,674.8494171872735,None,1.38994708994709,2.0367329558357596,674.8494171872735,None,,,,,,,,,,,,,,,,,181,001,2024_Mar_11_1046,SpeechDraft1Carolyn_lessNoise_PlusLocalization,2021.2.3,59.98373804038756,
,,,,,,,,nearLeft,-6.5,1,ch1Sound_localizationTask.wav,-6.5,"(857, 878)","(-103,-202)",-95,-338,,,,,,,,,0,1,1,2,,,,,,,,,,,,,,,,,,,,,,,,,,,,,,,,,,,,,,,,,,,,676.8846943490207,None,677.9994778586552,None,678.9160541435704,None,1.4650793650793652,1.0505162728950381,678.9160541435704,None,,,,,,,,,,,,,,,,,181,001,2024_Mar_11_1046,SpeechDraft1Carolyn_lessNoise_PlusLocalization,2021.2.3,59.98373804038756,
,,,,,,,,midLeft,-13.0,2,ch1Sound_localizationTask.wav,-13.0,"(762, 878)","(-198,-202)",-190,-338,,,,,,,,,0,2,2,1,,,,,,,,,,,,,,,,,,,,,,,,,,,,,,,,,,,,,,,,,,,,679.9664369560778,None,681.0661107776687,None,681.9994856147096,None,1.3761904761904762,0.8158880900591612,681.9994856147096,None,,,,,,,,,,,,,,,,,181,001,2024_Mar_11_1046,SpeechDraft1Carolyn_lessNoise_PlusLocalization,2021.2.3,59.98373804038756,
,,,,,,,,midRight,13.0,3,ch1Sound_localizationTask.wav,13.0,"(1142, 878)","(182, -202)",190,-338,,,,,,,,,0,3,3,5,,,,,,,,,,,,,,,,,,,,,,,,,,,,,,,,,,,,,,,,,,,,682.8163981987163,None,683.9163076160476,None,684.8494071550667,None,1.7444444444444445,1.7485123351216316,684.8494071550667,None,,,,,,,,,,,,,,,,,181,001,2024_Mar_11_1046,SpeechDraft1Carolyn_lessNoise_PlusLocalization,2021.2.3,59.98373804038756,
,,,,,,,,farLeft,-19.1,5,ch1Sound_localizationTask.wav,-19.1,"(667, 878)","(-293,-202)",-285,-338,,,,,,,,,0,4,4,0,,,,,,,,,,,,,,,,,,,,,,,,,,,,,,,,,,,,,,,,,,,,686.5996882710606,None,687.6994167380035,None,688.6326675796881,None,1.3571428571428572,0.8830833286046982,688.6326675796881,None,,,,,,,,,,,,,,,,,181,001,2024_Mar_11_1046,SpeechDraft1Carolyn_lessNoise_PlusLocalization,2021.2.3,59.98373804038756,
,,,,,,,,midLeft,-13.0,2,ch1Sound_localizationTask.wav,-13.0,"(762, 878)","(-198,-202)",-190,-338,,,,,,,,,0,5,5,1,,,,,,,,,,,,,,,,,,,,,,,,,,,,,,,,,,,,,,,,,,,,689.5164154358208,None,690.6162463575602,None,691.5494735697284,None,1.457142857142857,0.8658212944865227,691.5494735697284,None,,,,,,,,,,,,,,,,,181,001,2024_Mar_11_1046,SpeechDraft1Carolyn_lessNoise_PlusLocalization,2021.2.3,59.98373804038756,
,,,,,,,,farLeft,-19.1,5,ch1Sound_localizationTask.wav,-19.1,"(667, 878)","(-293,-202)",-285,-338,,,,,,,,,0,6,6,0,,,,,,,,,,,,,,,,,,,,,,,,,,,,,,,,,,,,,,,,,,,,692.4165046494454,None,693.5161932855844,None,694.4493962367997,None,1.3232804232804232,0.8484190655872226,694.4493962367997,None,,,,,,,,,,,,,,,,,181,001,2024_Mar_11_1046,SpeechDraft1Carolyn_lessNoise_PlusLocalization,2021.2.3,59.98373804038756,
,,,,,,,,nearRight,6.5,0,ch1Sound_localizationTask.wav,6.5,"(1047, 878)","(87, -202)",95,-338,,,,,,,,,1,0,7,4,,,,,,,,,,,,,,,,,,,,,,,,,,,,,,,,,,,,,,,,,,,,695.2996866283938,None,696.3994234828278,None,697.332924252376,None,1.7714285714285714,1.1176075413823128,697.332924252376,None,,,,,,,,,,,,,,,,,181,001,2024_Mar_11_1046,SpeechDraft1Carolyn_lessNoise_PlusLocalization,2021.2.3,59.98373804038756,
,,,,,,,,nearRight,6.5,0,ch1Sound_localizationTask.wav,6.5,"(1047, 878)","(87, -202)",95,-338,,,,,,,,,1,1,8,4,,,,,,,,,,,,,,,,,,,,,,,,,,,,,,,,,,,,,,,,,,,,698.4666077215225,None,699.566268405877,None,700.4994472321123,None,1.8571428571428572,0.7654690565541387,700.4994472321123,None,,,,,,,,,,,,,,,,,181,001,2024_Mar_11_1046,SpeechDraft1Carolyn_lessNoise_PlusLocalization,2021.2.3,59.98373804038756,
,,,,,,,,farLeft,-19.1,5,ch1Sound_localizationTask.wav,-19.1,"(667, 878)","(-293,-202)",-285,-338,,,,,,,,,1,2,9,0,,,,,,,,,,,,,,,,,,,,,,,,,,,,,,,,,,,,,,,,,,,,701.2662783013657,None,702.3660091729835,None,703.2996704503894,None,1.3497354497354497,1.3664756584912539,703.2996704503894,None,,,,,,,,,,,,,,,,,181,001,2024_Mar_11_1046,SpeechDraft1Carolyn_lessNoise_PlusLocalization,2021.2.3,59.98373804038756,
,,,,,,,,nearLeft,-6.5,1,ch1Sound_localizationTask.wav,-6.5,"(857, 878)","(-103,-202)",-95,-338,,,,,,,,,1,3,10,2,,,,,,,,,,,,,,,,,,,,,,,,,,,,,,,,,,,,,,,,,,,,704.6667067827657,None,705.7662538504228,None,706.6995194340125,None,1.505820105820106,1.0659958058968186,706.6995194340125,None,,,,,,,,,,,,,,,,,181,001,2024_Mar_11_1046,SpeechDraft1Carolyn_lessNoise_PlusLocalization,2021.2.3,59.98373804038756,
,,,,,,,,nearRight,6.5,0,ch1Sound_localizationTask.wav,6.5,"(1047, 878)","(87, -202)",95,-338,,,,,,,,,1,4,11,4,,,,,,,,,,,,,,,,,,,,,,,,,,,,,,,,,,,,,,,,,,,,707.7663471009582,None,708.866063810885,None,709.7994295014068,None,1.664021164021164,0.7826534491032362,709.7994295014068,None,,,,,,,,,,,,,,,,,181,001,2024_Mar_11_1046,SpeechDraft1Carolyn_lessNoise_PlusLocalization,2021.2.3,59.98373804038756,
,,,,,,,,midLeft,-13.0,2,ch1Sound_localizationTask.wav,-13.0,"(762, 878)","(-198,-202)",-190,-338,,,,,,,,,1,5,12,1,,,,,,,,,,,,,,,,,,,,,,,,,,,,,,,,,,,,,,,,,,,,710.5830734474584,None,711.6828108280897,None,712.6163046304137,None,1.2735449735449735,0.7659863261505961,712.6163046304137,None,,,,,,,,,,,,,,,,,181,001,2024_Mar_11_1046,SpeechDraft1Carolyn_lessNoise_PlusLocalization,2021.2.3,59.98373804038756,
,,,,,,,,center,0.0,6,ch1Sound_localizationTask.wav,0.0,"(952, 878)","(-8,-202)",0,-338,,,,,,,,,1,6,13,3,,,,,,,,,,,,,,,,,,,,,,,,,,,,,,,,,,,,,,,,,,,,713.3830263866112,None,714.4827185580507,None,715.4162697615102,None,1.5989417989417989,0.8326982129365206,715.4162697615102,None,,,,,,,,,,,,,,,,,181,001,2024_Mar_11_1046,SpeechDraft1Carolyn_lessNoise_PlusLocalization,2021.2.3,59.98373804038756,
,,,,,,,,farRight,19.1,4,ch1Sound_localizationTask.wav,19.1,"(1237, 878)","(277,-202)",285,-338,,,,,,,,,2,0,14,6,,,,,,,,,,,,,,,,,,,,,,,,,,,,,,,,,,,,,,,,,,,,716.2499149609357,None,717.3495462089777,None,718.2827416034415,None,1.9142857142857141,1.1830055015161633,718.2827416034415,None,,,,,,,,,,,,,,,,,181,001,2024_Mar_11_1046,SpeechDraft1Carolyn_lessNoise_PlusLocalization,2021.2.3,59.98373804038756,
,,,,,,,,nearLeft,-6.5,1,ch1Sound_localizationTask.wav,-6.5,"(857, 878)","(-103,-202)",-95,-338,,,,,,,,,2,1,15,2,,,,,,,,,,,,,,,,,,,,,,,,,,,,,,,,,,,,,,,,,,,,719.466572788544,None,720.566199244,None,721.4994813641533,None,1.3793650793650793,1.383280367590487,721.4994813641533,None,,,,,,,,,,,,,,,,,181,001,2024_Mar_11_1046,SpeechDraft1Carolyn_lessNoise_PlusLocalization,2021.2.3,59.98373804038756,
,,,,,,,,nearRight,6.5,0,ch1Sound_localizationTask.wav,6.5,"(1047, 878)","(87, -202)",95,-338,,,,,,,,,2,2,16,4,,,,,,,,,,,,,,,,,,,,,,,,,,,,,,,,,,,,,,,,,,,,722.8831277675927,None,723.9828319484368,None,724.9161354294047,None,1.6169312169312169,0.8327979072928429,724.9161354294047,None,,,,,,,,,,,,,,,,,181,001,2024_Mar_11_1046,SpeechDraft1Carolyn_lessNoise_PlusLocalization,2021.2.3,59.98373804038756,
,,,,,,,,midLeft,-13.0,2,ch1Sound_localizationTask.wav,-13.0,"(762, 878)","(-198,-202)",-190,-338,,,,,,,,,2,3,17,1,,,,,,,,,,,,,,,,,,,,,,,,,,,,,,,,,,,,,,,,,,,,725.7499332185835,None,726.8494894476607,None,727.7829500418156,None,1.3687830687830687,0.8159953150898218,727.7829500418156,None,,,,,,,,,,,,,,,,,181,001,2024_Mar_11_1046,SpeechDraft1Carolyn_lessNoise_PlusLocalization,2021.2.3,59.98373804038756,
,,,,,,,,farRight,19.1,4,ch1Sound_localizationTask.wav,19.1,"(1237, 878)","(277,-202)",285,-338,,,,,,,,,2,4,18,6,,,,,,,,,,,,,,,,,,,,,,,,,,,,,,,,,,,,,,,,,,,,728.5998006742448,None,729.6995275765657,None,730.6328496159986,None,1.692063492063492,1.1161272656172514,730.6328496159986,None,,,,,,,,,,,,,,,,,181,001,2024_Mar_11_1046,SpeechDraft1Carolyn_lessNoise_PlusLocalization,2021.2.3,59.98373804038756,
,,,,,,,,midRight,13.0,3,ch1Sound_localizationTask.wav,13.0,"(1142, 878)","(182, -202)",190,-338,,,,,,,,,2,5,19,5,,,,,,,,,,,,,,,,,,,,,,,,,,,,,,,,,,,,,,,,,,,,731.749950540252,None,732.8494959594682,None,733.7828634874895,None,1.646031746031746,0.7657627472653985,733.7828634874895,None,,,,,,,,,,,,,,,,,181,001,2024_Mar_11_1046,SpeechDraft1Carolyn_lessNoise_PlusLocalization,2021.2.3,59.98373804038756,
,,,,,,,,nearRight,6.5,0,ch1Sound_localizationTask.wav,6.5,"(1047, 878)","(87, -202)",95,-338,,,,,,,,,2,6,20,4,,,,,,,,,,,,,,,,,,,,,,,,,,,,,,,,,,,,,,,,,,,,734.5498545076698,None,735.6495568845421,None,736.5829168045893,None,1.7423280423280423,0.6481193481013179,736.5829168045893,None,,,,,,,,,,,,,,,,,181,001,2024_Mar_11_1046,SpeechDraft1Carolyn_lessNoise_PlusLocalization,2021.2.3,59.98373804038756,
,,,,,,,,farLeft,-19.1,5,ch1Sound_localizationTask.wav,-19.1,"(667, 878)","(-293,-202)",-285,-338,,,,,,,,,3,0,21,0,,,,,,,,,,,,,,,,,,,,,,,,,,,,,,,,,,,,,,,,,,,,737.2330735698342,None,738.3327348539606,None,739.2662665331736,None,1.325925925925926,0.7002367582172155,739.2662665331736,None,,,,,,,,,,,,,,,,,181,001,2024_Mar_11_1046,SpeechDraft1Carolyn_lessNoise_PlusLocalization,2021.2.3,59.98373804038756,
,,,,,,,,midRight,13.0,3,ch1Sound_localizationTask.wav,13.0,"(1142, 878)","(182, -202)",190,-338,,,,,,,,,3,1,22,5,,,,,,,,,,,,,,,,,,,,,,,,,,,,,,,,,,,,,,,,,,,,739.9665098097175,None,741.0662552332506,None,741.9994868179783,None,1.6275132275132276,0.8991470262408257,741.9994868179783,None,,,,,,,,,,,,,,,,,181,001,2024_Mar_11_1046,SpeechDraft1Carolyn_lessNoise_PlusLocalization,2021.2.3,59.98373804038756,
,,,,,,,,farLeft,-19.1,5,ch1Sound_localizationTask.wav,-19.1,"(667, 878)","(-293,-202)",-285,-338,,,,,,,,,3,2,23,0,,,,,,,,,,,,,,,,,,,,,,,,,,,,,,,,,,,,,,,,,,,,742.8998683830723,None,743.9994014408439,None,744.9330602372065,None,1.348148148148148,0.9828454805538058,744.9330602372065,None,,,,,,,,,,,,,,,,,181,001,2024_Mar_11_1046,SpeechDraft1Carolyn_lessNoise_PlusLocalization,2021.2.3,59.98373804038756,
,,,,,,,,center,0.0,6,ch1Sound_localizationTask.wav,0.0,"(952, 878)","(-8,-202)",0,-338,,,,,,,,,3,3,24,3,,,,,,,,,,,,,,,,,,,,,,,,,,,,,,,,,,,,,,,,,,,,745.9164296453819,None,747.0162335494533,None,747.9496583137661,None,1.5402116402116404,1.0823380565270782,747.9496583137661,None,,,,,,,,,,,,,,,,,181,001,2024_Mar_11_1046,SpeechDraft1Carolyn_lessNoise_PlusLocalization,2021.2.3,59.98373804038756,
,,,,,,,,midLeft,-13.0,2,ch1Sound_localizationTask.wav,-13.0,"(762, 878)","(-198,-202)",-190,-338,,,,,,,,,3,4,25,1,,,,,,,,,,,,,,,,,,,,,,,,,,,,,,,,,,,,,,,,,,,,749.0330763431266,None,750.132809529081,None,751.06619508937,None,1.373015873015873,0.7156655183061957,751.06619508937,None,,,,,,,,,,,,,,,,,181,001,2024_Mar_11_1046,SpeechDraft1Carolyn_lessNoise_PlusLocalization,2021.2.3,59.98373804038756,
,,,,,,,,midLeft,-13.0,2,ch1Sound_localizationTask.wav,-13.0,"(762, 878)","(-198,-202)",-190,-338,,,,,,,,,3,5,26,1,,,,,,,,,,,,,,,,,,,,,,,,,,,,,,,,,,,,,,,,,,,,751.7830584486946,None,752.8829254759476,None,753.8162009930238,None,1.3026455026455026,0.6491474695503712,753.8162009930238,None,,,,,,,,,,,,,,,,,181,001,2024_Mar_11_1046,SpeechDraft1Carolyn_lessNoise_PlusLocalization,2021.2.3,59.98373804038756,
,,,,,,,,center,0.0,6,ch1Sound_localizationTask.wav,0.0,"(952, 878)","(-8,-202)",0,-338,,,,,,,,,3,6,27,3,,,,,,,,,,,,,,,,,,,,,,,,,,,,,,,,,,,,,,,,,,,,754.466324149631,None,755.5662967190146,None,756.4995678840205,None,1.5645502645502645,0.6498051565140486,756.4995678840205,None,,,,,,,,,,,,,,,,,181,001,2024_Mar_11_1046,SpeechDraft1Carolyn_lessNoise_PlusLocalization,2021.2.3,59.98373804038756,
,,,,,,,,farRight,19.1,4,ch1Sound_localizationTask.wav,19.1,"(1237, 878)","(277,-202)",285,-338,,,,,,,,,4,0,28,6,,,,,,,,,,,,,,,,,,,,,,,,,,,,,,,,,,,,,,,,,,,,757.1498049749061,None,758.2496540546417,None,759.1828344175592,None,1.6783068783068784,0.8163920938968658,759.1828344175592,None,,,,,,,,,,,,,,,,,181,001,2024_Mar_11_1046,SpeechDraft1Carolyn_lessNoise_PlusLocalization,2021.2.3,59.98373804038756,
,,,,,,,,farLeft,-19.1,5,ch1Sound_localizationTask.wav,-19.1,"(667, 878)","(-293,-202)",-285,-338,,,,,,,,,4,1,29,0,,,,,,,,,,,,,,,,,,,,,,,,,,,,,,,,,,,,,,,,,,,,759.9997294750065,None,761.099548120983,None,762.0327625665814,None,1.373015873015873,0.9330955455079675,762.0327625665814,None,,,,,,,,,,,,,,,,,181,001,2024_Mar_11_1046,SpeechDraft1Carolyn_lessNoise_PlusLocalization,2021.2.3,59.98373804038756,
,,,,,,,,nearRight,6.5,0,ch1Sound_localizationTask.wav,6.5,"(1047, 878)","(87, -202)",95,-338,,,,,,,,,4,2,30,4,,,,,,,,,,,,,,,,,,,,,,,,,,,,,,,,,,,,,,,,,,,,762.9666121760383,None,764.0661940770224,None,764.9994934154674,None,1.5793650793650795,0.7826910717412829,764.9994934154674,None,,,,,,,,,,,,,,,,,181,001,2024_Mar_11_1046,SpeechDraft1Carolyn_lessNoise_PlusLocalization,2021.2.3,59.98373804038756,
,,,,,,,,midLeft,-13.0,2,ch1Sound_localizationTask.wav,-13.0,"(762, 878)","(-198,-202)",-190,-338,,,,,,,,,4,3,31,1,,,,,,,,,,,,,,,,,,,,,,,,,,,,,,,,,,,,,,,,,,,,765.7831461876631,None,766.8827596558258,None,767.8163957651705,None,1.3746031746031746,0.6822583880275488,767.8163957651705,None,,,,,,,,,,,,,,,,,181,001,2024_Mar_11_1046,SpeechDraft1Carolyn_lessNoise_PlusLocalization,2021.2.3,59.98373804038756,
,,,,,,,,nearLeft,-6.5,1,ch1Sound_localizationTask.wav,-6.5,"(857, 878)","(-103,-202)",-95,-338,,,,,,,,,4,4,32,2,,,,,,,,,,,,,,,,,,,,,,,,,,,,,,,,,,,,,,,,,,,,768.4998340494931,None,769.5996937705204,None,770.5329902991652,None,1.4645502645502646,0.649172536097467,770.5329902991652,None,,,,,,,,,,,,,,,,,181,001,2024_Mar_11_1046,SpeechDraft1Carolyn_lessNoise_PlusLocalization,2021.2.3,59.98373804038756,
,,,,,,,,farLeft,-19.1,5,ch1Sound_localizationTask.wav,-19.1,"(667, 878)","(-293,-202)",-285,-338,,,,,,,,,4,5,33,0,,,,,,,,,,,,,,,,,,,,,,,,,,,,,,,,,,,,,,,,,,,,771.1830781437457,None,772.2828516662121,None,773.2163949878886,None,1.3343915343915345,0.6490492094308138,773.2163949878886,None,,,,,,,,,,,,,,,,,181,001,2024_Mar_11_1046,SpeechDraft1Carolyn_lessNoise_PlusLocalization,2021.2.3,59.98373804038756,
,,,,,,,,farRight,19.1,4,ch1Sound_localizationTask.wav,19.1,"(1237, 878)","(277,-202)",285,-338,,,,,,,,,4,6,34,6,,,,,,,,,,,,,,,,,,,,,,,,,,,,,,,,,,,,,,,,,,,,773.8670607320964,None,774.9662201981992,None,775.89954720065,None,1.6349206349206349,1.0163862947374582,775.89954720065,None,,,,,,,,,,,,,,,,,181,001,2024_Mar_11_1046,SpeechDraft1Carolyn_lessNoise_PlusLocalization,2021.2.3,59.98373804038756,
,,,,,,,,farRight,19.1,4,ch1Sound_localizationTask.wav,19.1,"(1237, 878)","(277,-202)",285,-338,,,,,,,,,5,0,35,6,,,,,,,,,,,,,,,,,,,,,,,,,,,,,,,,,,,,,,,,,,,,776.9164240732789,None,778.0162457702681,None,778.9498526742682,None,1.7417989417989417,0.8379127224907279,778.9498526742682,None,,,,,,,,,,,,,,,,,181,001,2024_Mar_11_1046,SpeechDraft1Carolyn_lessNoise_PlusLocalization,2021.2.3,59.98373804038756,
,,,,,,,,center,0.0,6,ch1Sound_localizationTask.wav,0.0,"(952, 878)","(-8,-202)",0,-338,,,,,,,,,5,1,36,3,,,,,,,,,,,,,,,,,,,,,,,,,,,,,,,,,,,,,,,,,,,,779.801177768968,None,780.9163071252406,None,781.8328818799928,None,1.4592592592592593,0.8827411765232682,781.8328818799928,None,,,,,,,,,,,,,,,,,181,001,2024_Mar_11_1046,SpeechDraft1Carolyn_lessNoise_PlusLocalization,2021.2.3,59.98373804038756,
,,,,,,,,nearLeft,-6.5,1,ch1Sound_localizationTask.wav,-6.5,"(857, 878)","(-103,-202)",-95,-338,,,,,,,,,5,2,37,2,,,,,,,,,,,,,,,,,,,,,,,,,,,,,,,,,,,,,,,,,,,,782.716459759511,None,783.8162389984354,None,784.749536911957,None,1.5015873015873016,0.848952273838222,784.749536911957,None,,,,,,,,,,,,,,,,,181,001,2024_Mar_11_1046,SpeechDraft1Carolyn_lessNoise_PlusLocalization,2021.2.3,59.98373804038756,
,,,,,,,,nearLeft,-6.5,1,ch1Sound_localizationTask.wav,-6.5,"(857, 878)","(-103,-202)",-95,-338,,,,,,,,,5,3,38,2,,,,,,,,,,,,,,,,,,,,,,,,,,,,,,,,,,,,,,,,,,,,785.5998691022396,None,786.6996367843822,None,787.6329254042357,None,1.5354497354497354,0.9988292381167412,787.6329254042357,None,,,,,,,,,,,,,,,,,181,001,2024_Mar_11_1046,SpeechDraft1Carolyn_lessNoise_PlusLocalization,2021.2.3,59.98373804038756,
,,,,,,,,midRight,13.0,3,ch1Sound_localizationTask.wav,13.0,"(1142, 878)","(182, -202)",190,-338,,,,,,,,,5,4,39,5,,,,,,,,,,,,,,,,,,,,,,,,,,,,,,,,,,,,,,,,,,,,788.6331741455942,None,789.7330157021061,None,790.666250154376,None,1.6386243386243386,0.9165380951017141,790.666250154376,None,,,,,,,,,,,,,,,,,181,001,2024_Mar_11_1046,SpeechDraft1Carolyn_lessNoise_PlusLocalization,2021.2.3,59.98373804038756,
,,,,,,,,midRight,13.0,3,ch1Sound_localizationTask.wav,13.0,"(1142, 878)","(182, -202)",190,-338,,,,,,,,,5,5,40,5,,,,,,,,,,,,,,,,,,,,,,,,,,,,,,,,,,,,,,,,,,,,791.5832090862095,None,792.6829209877178,None,793.616385939531,None,1.717989417989418,0.9158216593787074,793.616385939531,None,,,,,,,,,,,,,,,,,181,001,2024_Mar_11_1046,SpeechDraft1Carolyn_lessNoise_PlusLocalization,2021.2.3,59.98373804038756,
,,,,,,,,farRight,19.1,4,ch1Sound_localizationTask.wav,19.1,"(1237, 878)","(277,-202)",285,-338,,,,,,,,,5,6,41,6,,,,,,,,,,,,,,,,,,,,,,,,,,,,,,,,,,,,,,,,,,,,794.5333613855764,None,795.6328347884119,None,796.5664594080299,None,1.7534391534391536,0.7665954809635878,796.5664594080299,None,,,,,,,,,,,,,,,,,181,001,2024_Mar_11_1046,SpeechDraft1Carolyn_lessNoise_PlusLocalization,2021.2.3,59.98373804038756,
,,,,,,,,midLeft,-13.0,2,ch1Sound_localizationTask.wav,-13.0,"(762, 878)","(-198,-202)",-190,-338,,,,,,,,,6,0,42,1,,,,,,,,,,,,,,,,,,,,,,,,,,,,,,,,,,,,,,,,,,,,797.3331967620179,None,798.4328969204798,None,799.366409108974,None,1.4428571428571428,0.9317674823105335,799.366409108974,None,,,,,,,,,,,,,,,,,181,001,2024_Mar_11_1046,SpeechDraft1Carolyn_lessNoise_PlusLocalization,2021.2.3,59.98373804038756,
,,,,,,,,center,0.0,6,ch1Sound_localizationTask.wav,0.0,"(952, 878)","(-8,-202)",0,-338,,,,,,,,,6,1,43,3,,,,,,,,,,,,,,,,,,,,,,,,,,,,,,,,,,,,,,,,,,,,800.2997325044125,None,801.399546536617,None,802.3331467378885,None,1.5603174603174603,0.6328247599303722,802.3331467378885,None,,,,,,,,,,,,,,,,,181,001,2024_Mar_11_1046,SpeechDraft1Carolyn_lessNoise_PlusLocalization,2021.2.3,59.98373804038756,
,,,,,,,,farLeft,-19.1,5,ch1Sound_localizationTask.wav,-19.1,"(667, 878)","(-293,-202)",-285,-338,,,,,,,,,6,2,44,0,,,,,,,,,,,,,,,,,,,,,,,,,,,,,,,,,,,,,,,,,,,,802.9665406215936,None,804.0663214940578,None,804.9995994437486,None,1.2947089947089947,0.899828671477735,804.9995994437486,None,,,,,,,,,,,,,,,,,181,001,2024_Mar_11_1046,SpeechDraft1Carolyn_lessNoise_PlusLocalization,2021.2.3,59.98373804038756,
,,,,,,,,center,0.0,6,ch1Sound_localizationTask.wav,0.0,"(952, 878)","(-8,-202)",0,-338,,,,,,,,,6,3,45,3,,,,,,,,,,,,,,,,,,,,,,,,,,,,,,,,,,,,,,,,,,,,805.8999178642407,None,806.9994680732489,None,807.9330342048779,None,1.5005291005291004,0.8996959757059813,807.9330342048779,None,,,,,,,,,,,,,,,,,181,001,2024_Mar_11_1046,SpeechDraft1Carolyn_lessNoise_PlusLocalization,2021.2.3,59.98373804038756,
,,,,,,,,farRight,19.1,4,ch1Sound_localizationTask.wav,19.1,"(1237, 878)","(277,-202)",285,-338,,,,,,,,,6,4,46,6,,,,,,,,,,,,,,,,,,,,,,,,,,,,,,,,,,,,,,,,,,,,808.8338639251888,None,809.9329292587936,None,810.8662637444213,None,1.7253968253968255,1.099740743637085,810.8662637444213,None,,,,,,,,,,,,,,,,,181,001,2024_Mar_11_1046,SpeechDraft1Carolyn_lessNoise_PlusLocalization,2021.2.3,59.98373804038756,
,,,,,,,,midRight,13.0,3,ch1Sound_localizationTask.wav,13.0,"(1142, 878)","(182, -202)",190,-338,,,,,,,,,6,5,47,5,,,,,,,,,,,,,,,,,,,,,,,,,,,,,,,,,,,,,,,,,,,,811.9672489054501,None,813.0662717996165,None,813.9995959158987,None,1.6296296296296298,0.8498268937692046,813.9995959158987,None,,,,,,,,,,,,,,,,,181,001,2024_Mar_11_1046,SpeechDraft1Carolyn_lessNoise_PlusLocalization,2021.2.3,59.98373804038756,
,,,,,,,,nearRight,6.5,0,ch1Sound_localizationTask.wav,6.5,"(1047, 878)","(87, -202)",95,-338,,,,,,,,,6,6,48,4,,,,,,,,,,,,,,,,,,,,,,,,,,,,,,,,,,,,,,,,,,,,814.8498505316675,None,815.9496921785176,None,816.8830263968557,None,1.5682539682539682,0.9989666184410453,816.8830263968557,None,,,,,,,,,,,,,,,,,181,001,2024_Mar_11_1046,SpeechDraft1Carolyn_lessNoise_PlusLocalization,2021.2.3,59.98373804038756,
,,,,,,,,center,0.0,6,ch1Sound_localizationTask.wav,0.0,"(952, 878)","(-8,-202)",0,-338,,,,,,,,,7,0,49,3,,,,,,,,,,,,,,,,,,,,,,,,,,,,,,,,,,,,,,,,,,,,817.8834218205884,None,818.9829654777423,None,819.9163553006947,None,1.4925925925925925,1.0998579859733582,819.9163553006947,None,,,,,,,,,,,,,,,,,181,001,2024_Mar_11_1046,SpeechDraft1Carolyn_lessNoise_PlusLocalization,2021.2.3,59.98373804038756,
,,,,,,,,nearRight,6.5,0,ch1Sound_localizationTask.wav,6.5,"(1047, 878)","(87, -202)",95,-338,,,,,,,,,7,1,50,4,,,,,,,,,,,,,,,,,,,,,,,,,,,,,,,,,,,,,,,,,,,,821.0165165616199,None,822.1162779927254,None,823.0495361527428,None,1.561904761904762,0.9824148351326585,823.0495361527428,None,,,,,,,,,,,,,,,,,181,001,2024_Mar_11_1046,SpeechDraft1Carolyn_lessNoise_PlusLocalization,2021.2.3,59.98373804038756,
,,,,,,,,nearLeft,-6.5,1,ch1Sound_localizationTask.wav,-6.5,"(857, 878)","(-103,-202)",-95,-338,,,,,,,,,7,2,51,2,,,,,,,,,,,,,,,,,,,,,,,,,,,,,,,,,,,,,,,,,,,,824.0331930937245,None,825.1330334497616,None,826.0662953760475,None,1.4306878306878308,0.5330170271918178,826.0662953760475,None,,,,,,,,,,,,,,,,,181,001,2024_Mar_11_1046,SpeechDraft1Carolyn_lessNoise_PlusLocalization,2021.2.3,59.98373804038756,
,,,,,,,,center,0.0,6,ch1Sound_localizationTask.wav,0.0,"(952, 878)","(-8,-202)",0,-338,,,,,,,,,7,3,52,3,,,,,,,,,,,,,,,,,,,,,,,,,,,,,,,,,,,,,,,,,,,,826.5998409697786,None,827.6996155939996,None,828.6329261064529,None,1.4867724867724867,0.9501817002892494,828.6329261064529,None,,,,,,,,,,,,,,,,,181,001,2024_Mar_11_1046,SpeechDraft1Carolyn_lessNoise_PlusLocalization,2021.2.3,59.98373804038756,
,,,,,,,,nearLeft,-6.5,1,ch1Sound_localizationTask.wav,-6.5,"(857, 878)","(-103,-202)",-95,-338,,,,,,,,,7,4,53,2,,,,,,,,,,,,,,,,,,,,,,,,,,,,,,,,,,,,,,,,,,,,829.583280810155,None,830.6830617170781,None,831.6162959085777,None,1.452910052910053,0.6997709199786186,831.6162959085777,None,,,,,,,,,,,,,,,,,181,001,2024_Mar_11_1046,SpeechDraft1Carolyn_lessNoise_PlusLocalization,2021.2.3,59.98373804038756,
,,,,,,,,midRight,13.0,3,ch1Sound_localizationTask.wav,13.0,"(1142, 878)","(182, -202)",190,-338,,,,,,,,,7,5,54,5,,,,,,,,,,,,,,,,,,,,,,,,,,,,,,,,,,,,,,,,,,,,832.3165266336873,None,833.416271856986,None,834.3496531955898,None,1.574074074074074,0.7157617630437016,834.3496531955898,None,,,,,,,,,,,,,,,,,181,001,2024_Mar_11_1046,SpeechDraft1Carolyn_lessNoise_PlusLocalization,2021.2.3,59.98373804038756,
,,,,,,,,farRight,19.1,4,ch1Sound_localizationTask.wav,19.1,"(1237, 878)","(277,-202)",285,-338,,,,,,,,,7,6,55,6,,,,,,,,,,,,,,,,,,,,,,,,,,,,,,,,,,,,,,,,,,,,835.0665273079649,None,836.166243149899,None,837.0997092509642,None,1.6857142857142857,0.7487808400765061,837.0997092509642,None,,,,,,,,,,,,,,,,,181,001,2024_Mar_11_1046,SpeechDraft1Carolyn_lessNoise_PlusLocalization,2021.2.3,59.98373804038756,
,,,,,,,,,,,,,,,,,,,,,,,,,,,,,,,,,,,,,,,,,,,,,,,,,,,,,,,,,,,,,,,,,,,,,,,,,,,,,,,,,,space,7.318036438897252,837.9332364844158,None,,,,,,,,,,,,,181,001,2024_Mar_11_1046,SpeechDraft1Carolyn_lessNoise_PlusLocalization,2021.2.3,59.98373804038756,
,,,,,,,,midRight,13.0,3,ch1Sound_localizationTask.wav,13.0,"(1142, 878)","(182, -202)",190,-338,,,,,,,,,,,,,0,0,0,5,,,,,,,,,,,,,,,,,,,,,,,,,,,,,,,,,,,,,,,,845.2997052734718,None,,,848.3167642401531,None,1.6275132275132276,0.720706638880074,848.3167642401531,None,,,,,837.9332364844158,None,846.299892494455,None,846.4832552159205,846.4999480014667,,,,,,,181,001,2024_Mar_11_1046,SpeechDraft1Carolyn_lessNoise_PlusLocalization,2021.2.3,59.98373804038756,
,,,,,,,,nearRight,6.5,0,ch1Sound_localizationTask.wav,6.5,"(1047, 878)","(87, -202)",95,-338,,,,,,,,,,,,,0,1,1,4,,,,,,,,,,,,,,,,,,,,,,,,,,,,,,,,,,,,,,,,849.0500013465062,None,,,852.0663804411888,None,1.5645502645502645,0.8153845304623246,852.0663804411888,None,,,,,,,850.0498847831041,None,850.233262527734,850.2499519651756,,,,,,,181,001,2024_Mar_11_1046,SpeechDraft1Carolyn_lessNoise_PlusLocalization,2021.2.3,59.98373804038756,
,,,,,,,,nearLeft,-6.5,1,ch1Sound_localizationTask.wav,-6.5,"(857, 878)","(-103,-202)",-95,-338,,,,,,,,,,,,,0,2,2,2,,,,,,,,,,,,,,,,,,,,,,,,,,,,,,,,,,,,,,,,852.8833223460242,None,,,855.8996445508674,None,1.4375661375661375,1.3999166982248425,855.8996445508674,None,,,,,,,853.883317370899,None,854.0665581785142,854.0832576518878,,,,,,,181,001,2024_Mar_11_1046,SpeechDraft1Carolyn_lessNoise_PlusLocalization,2021.2.3,59.98373804038756,
,,,,,,,,center,0.0,6,ch1Sound_localizationTask.wav,0.0,"(952, 878)","(-8,-202)",0,-338,,,,,,,,,,,,,0,3,3,3,,,,,,,,,,,,,,,,,,,,,,,,,,,,,,,,,,,,,,,,857.2999306162819,None,,,860.3165046805516,None,1.5015873015873016,1.28254615329206,860.3165046805516,None,,,,,,,858.2998633161187,None,858.4830814851448,858.4998142300174,,,,,,,181,001,2024_Mar_11_1046,SpeechDraft1Carolyn_lessNoise_PlusLocalization,2021.2.3,59.98373804038756,
,,,,,,,,farLeft,-19.1,5,ch1Sound_localizationTask.wav,-19.1,"(667, 878)","(-293,-202)",-285,-338,,,,,,,,,,,,,0,4,4,0,,,,,,,,,,,,,,,,,,,,,,,,,,,,,,,,,,,,,,,,861.5998804075643,None,,,864.616238345392,None,1.3502645502645503,1.2822188967838883,864.616238345392,None,,,,,,,862.5999424029142,None,862.7833179580048,862.7999040614814,,,,,,,181,001,2024_Mar_11_1046,SpeechDraft1Carolyn_lessNoise_PlusLocalization,2021.2.3,59.98373804038756,
,,,,,,,,nearLeft,-6.5,1,ch1Sound_localizationTask.wav,-6.5,"(857, 878)","(-103,-202)",-95,-338,,,,,,,,,,,,,0,5,5,2,,,,,,,,,,,,,,,,,,,,,,,,,,,,,,,,,,,,,,,,865.9000461660326,None,,,868.9163046916947,None,1.4312169312169312,1.0662739593535662,868.9163046916947,None,,,,,,,866.9001481346786,None,867.0833121044561,867.0999832572415,,,,,,,181,001,2024_Mar_11_1046,SpeechDraft1Carolyn_lessNoise_PlusLocalization,2021.2.3,59.98373804038756,
,,,,,,,,center,0.0,6,ch1Sound_localizationTask.wav,0.0,"(952, 878)","(-8,-202)",0,-338,,,,,,,,,,,,,0,6,6,3,,,,,,,,,,,,,,,,,,,,,,,,,,,,,,,,,,,,,,,,869.9832377396524,None,,,872.9998119808733,None,1.4978835978835978,0.7158262431621552,872.9998119808733,None,,,,,,,870.9833929063752,None,871.1665851259604,871.1832126174122,,,,,,,181,001,2024_Mar_11_1046,SpeechDraft1Carolyn_lessNoise_PlusLocalization,2021.2.3,59.98373804038756,
,,,,,,,,nearRight,6.5,0,ch1Sound_localizationTask.wav,6.5,"(1047, 878)","(87, -202)",95,-338,,,,,,,,,,,,,1,0,7,4,,,,,,,,,,,,,,,,,,,,,,,,,,,,,,,,,,,,,,,,873.7166633736342,None,,,876.7329790974036,None,1.5624338624338625,1.2995561193674803,876.7329790974036,None,,,,,,,874.7166712153703,None,874.9000235749409,874.9166410369799,,,,,,,181,001,2024_Mar_11_1046,SpeechDraft1Carolyn_lessNoise_PlusLocalization,2021.2.3,59.98373804038756,
,,,,,,,,midRight,13.0,3,ch1Sound_localizationTask.wav,13.0,"(1142, 878)","(182, -202)",190,-338,,,,,,,,,,,,,1,1,8,5,,,,,,,,,,,,,,,,,,,,,,,,,,,,,,,,,,,,,,,,878.0332593945786,None,,,881.049697579816,None,1.6,1.0991259338334203,881.049697579816,None,,,,,,,879.0332647496834,None,879.2167895529419,879.2332454714924,,,,,,,181,001,2024_Mar_11_1046,SpeechDraft1Carolyn_lessNoise_PlusLocalization,2021.2.3,59.98373804038756,
,,,,,,,,farRight,19.1,4,ch1Sound_localizationTask.wav,19.1,"(1237, 878)","(277,-202)",285,-338,,,,,,,,,,,,,1,2,9,6,,,,,,,,,,,,,,,,,,,,,,,,,,,,,,,,,,,,,,,,882.1500118514523,None,,,885.1665018554777,None,1.7005291005291006,1.081428274512291,885.1665018554777,None,,,,,,,883.1499451734126,None,883.3334342902526,883.350114041008,,,,,,,181,001,2024_Mar_11_1046,SpeechDraft1Carolyn_lessNoise_PlusLocalization,2021.2.3,59.98373804038756,
,,,,,,,,center,0.0,6,ch1Sound_localizationTask.wav,0.0,"(952, 878)","(-8,-202)",0,-338,,,,,,,,,,,,,1,3,10,3,,,,,,,,,,,,,,,,,,,,,,,,,,,,,,,,,,,,,,,,886.2499119080603,None,,,889.2662646239623,None,1.491005291005291,1.0661507062613964,889.2662646239623,None,,,,,,,887.25004045479,None,887.4333289219067,887.4499833220616,,,,,,,181,001,2024_Mar_11_1046,SpeechDraft1Carolyn_lessNoise_PlusLocalization,2021.2.3,59.98373804038756,
,,,,,,,,nearRight,6.5,0,ch1Sound_localizationTask.wav,6.5,"(1047, 878)","(87, -202)",95,-338,,,,,,,,,,,,,1,4,11,4,,,,,,,,,,,,,,,,,,,,,,,,,,,,,,,,,,,,,,,,890.3333997474983,None,,,893.3498010141775,None,1.5703703703703704,1.0986630031839013,893.3498010141775,None,,,,,,,891.3333630338311,None,891.5166064891964,891.5333610195667,,,,,,,181,001,2024_Mar_11_1046,SpeechDraft1Carolyn_lessNoise_PlusLocalization,2021.2.3,59.98373804038756,
,,,,,,,,farLeft,-19.1,5,ch1Sound_localizationTask.wav,-19.1,"(667, 878)","(-293,-202)",-285,-338,,,,,,,,,,,,,1,5,12,0,,,,,,,,,,,,,,,,,,,,,,,,,,,,,,,,,,,,,,,,894.4499800037593,None,,,897.4662469401956,None,1.3608465608465607,1.5157666224986315,897.4662469401956,None,,,,,,,895.4500077972189,None,895.6332817906514,895.6500860955566,,,,,,,181,001,2024_Mar_11_1046,SpeechDraft1Carolyn_lessNoise_PlusLocalization,2021.2.3,59.98373804038756,
,,,,,,,,farLeft,-19.1,5,ch1Sound_localizationTask.wav,-19.1,"(667, 878)","(-293,-202)",-285,-338,,,,,,,,,,,,,1,6,13,0,,,,,,,,,,,,,,,,,,,,,,,,,,,,,,,,,,,,,,,,898.9833468832076,None,,,901.999800240621,None,1.3534391534391534,0.781734187155962,901.999800240621,None,,,,,,,899.9832719787955,None,900.1667112698779,900.1832737168297,,,,,,,181,001,2024_Mar_11_1046,SpeechDraft1Carolyn_lessNoise_PlusLocalization,2021.2.3,59.98373804038756,
,,,,,,,,nearLeft,-6.5,1,ch1Sound_localizationTask.wav,-6.5,"(857, 878)","(-103,-202)",-95,-338,,,,,,,,,,,,,2,0,14,2,,,,,,,,,,,,,,,,,,,,,,,,,,,,,,,,,,,,,,,,902.7835591258481,None,,,905.7997608566657,None,1.4597883597883599,0.9984883591532707,905.7997608566657,None,,,,,,,903.7833393672481,None,903.9665951337665,903.9833830799907,,,,,,,181,001,2024_Mar_11_1046,SpeechDraft1Carolyn_lessNoise_PlusLocalization,2021.2.3,59.98373804038756,
,,,,,,,,nearLeft,-6.5,1,ch1Sound_localizationTask.wav,-6.5,"(857, 878)","(-103,-202)",-95,-338,,,,,,,,,,,,,2,1,15,2,,,,,,,,,,,,,,,,,,,,,,,,,,,,,,,,,,,,,,,,906.8001281740144,None,,,909.8164358371869,None,1.4365079365079365,0.7484395187348127,909.8164358371869,None,,,,,,,907.7999795088544,None,907.983320186846,908.0000020982698,,,,,,,181,001,2024_Mar_11_1046,SpeechDraft1Carolyn_lessNoise_PlusLocalization,2021.2.3,59.98373804038756,
,,,,,,,,nearLeft,-6.5,1,ch1Sound_localizationTask.wav,-6.5,"(857, 878)","(-103,-202)",-95,-338,,,,,,,,,,,,,2,2,16,2,,,,,,,,,,,,,,,,,,,,,,,,,,,,,,,,,,,,,,,,910.5666123041883,None,,,913.5831355154514,None,1.447089947089947,0.5328547395765781,913.5831355154514,None,,,,,,,911.5666164327413,None,911.7499890737236,911.7666499717161,,,,,,,181,001,2024_Mar_11_1046,SpeechDraft1Carolyn_lessNoise_PlusLocalization,2021.2.3,59.98373804038756,
,,,,,,,,farRight,19.1,4,ch1Sound_localizationTask.wav,19.1,"(1237, 878)","(277,-202)",285,-338,,,,,,,,,,,,,2,3,17,6,,,,,,,,,,,,,,,,,,,,,,,,,,,,,,,,,,,,,,,,914.1166941681877,None,,,917.1331471130252,None,1.6751322751322753,1.515135015361011,917.1331471130252,None,,,,,,,915.1166291236877,None,915.300061124377,915.3166315909475,,,,,,,181,001,2024_Mar_11_1046,SpeechDraft1Carolyn_lessNoise_PlusLocalization,2021.2.3,59.98373804038756,
,,,,,,,,farLeft,-19.1,5,ch1Sound_localizationTask.wav,-19.1,"(667, 878)","(-293,-202)",-285,-338,,,,,,,,,,,,,2,4,18,0,,,,,,,,,,,,,,,,,,,,,,,,,,,,,,,,,,,,,,,,918.6500322390348,None,,,921.6664222106338,None,1.3666666666666667,1.1655785152688622,921.6664222106338,None,,,,,,,919.650047509931,None,919.8334444435313,919.8500422304496,,,,,,,181,001,2024_Mar_11_1046,SpeechDraft1Carolyn_lessNoise_PlusLocalization,2021.2.3,59.98373804038756,
,,,,,,,,center,0.0,6,ch1Sound_localizationTask.wav,0.0,"(952, 878)","(-8,-202)",0,-338,,,,,,,,,,,,,2,5,19,3,,,,,,,,,,,,,,,,,,,,,,,,,,,,,,,,,,,,,,,,922.8335895519704,None,,,925.8497571228072,None,1.4772486772486773,1.0492816474288702,925.8497571228072,None,,,,,,,923.8334193024784,None,924.0166759425774,924.0334419570863,,,,,,,181,001,2024_Mar_11_1046,SpeechDraft1Carolyn_lessNoise_PlusLocalization,2021.2.3,59.98373804038756,
,,,,,,,,farLeft,-19.1,5,ch1Sound_localizationTask.wav,-19.1,"(667, 878)","(-293,-202)",-285,-338,,,,,,,,,,,,,2,6,20,0,,,,,,,,,,,,,,,,,,,,,,,,,,,,,,,,,,,,,,,,926.9003063095734,None,,,929.9165181480348,None,1.3058201058201058,1.298765861429274,929.9165181480348,None,,,,,,,927.8999905986711,None,928.0833898726851,928.1000088285655,,,,,,,181,001,2024_Mar_11_1046,SpeechDraft1Carolyn_lessNoise_PlusLocalization,2021.2.3,59.98373804038756,
,,,,,,,,midLeft,-13.0,2,ch1Sound_localizationTask.wav,-13.0,"(762, 878)","(-198,-202)",-190,-338,,,,,,,,,,,,,3,0,21,1,,,,,,,,,,,,,,,,,,,,,,,,,,,,,,,,,,,,,,,,931.2166233267635,None,,,934.2329668235034,None,1.3962962962962964,0.948789831250906,934.2329668235034,None,,,,,,,932.2166458908468,None,932.4000199828297,932.4167489986867,,,,,,,181,001,2024_Mar_11_1046,SpeechDraft1Carolyn_lessNoise_PlusLocalization,2021.2.3,59.98373804038756,
,,,,,,,,center,0.0,6,ch1Sound_localizationTask.wav,0.0,"(952, 878)","(-8,-202)",0,-338,,,,,,,,,,,,,3,1,22,3,,,,,,,,,,,,,,,,,,,,,,,,,,,,,,,,,,,,,,,,935.1833777250722,None,,,938.1997727556154,None,1.5375661375661376,1.6657637171447277,938.1997727556154,None,,,,,,,936.1834288379177,None,936.3667119210586,936.3834015130997,,,,,,,181,001,2024_Mar_11_1046,SpeechDraft1Carolyn_lessNoise_PlusLocalization,2021.2.3,59.98373804038756,
,,,,,,,,midLeft,-13.0,2,ch1Sound_localizationTask.wav,-13.0,"(762, 878)","(-198,-202)",-190,-338,,,,,,,,,,,,,3,2,23,1,,,,,,,,,,,,,,,,,,,,,,,,,,,,,,,,,,,,,,,,939.8667160496116,None,,,942.8831044584513,None,1.3613756613756614,0.7157650459557772,942.8831044584513,None,,,,,,,940.8666945360601,None,941.0500267995521,941.0667033921927,,,,,,,181,001,2024_Mar_11_1046,SpeechDraft1Carolyn_lessNoise_PlusLocalization,2021.2.3,59.98373804038756,
,,,,,,,,midRight,13.0,3,ch1Sound_localizationTask.wav,13.0,"(1142, 878)","(182, -202)",190,-338,,,,,,,,,,,,,3,3,24,5,,,,,,,,,,,,,,,,,,,,,,,,,,,,,,,,,,,,,,,,943.6000134162605,None,,,946.6165734780952,None,1.6195767195767194,1.8820162573829293,946.6165734780952,None,,,,,,,944.6000046851113,None,944.7833626940846,944.8000713344663,,,,,,,181,001,2024_Mar_11_1046,SpeechDraft1Carolyn_lessNoise_PlusLocalization,2021.2.3,59.98373804038756,
,,,,,,,,farRight,19.1,4,ch1Sound_localizationTask.wav,19.1,"(1237, 878)","(277,-202)",285,-338,,,,,,,,,,,,,3,4,25,6,,,,,,,,,,,,,,,,,,,,,,,,,,,,,,,,,,,,,,,,948.5001560328528,None,,,951.5163943376392,None,1.6597883597883598,0.8980769263580441,951.5163943376392,None,,,,,,,949.5000273138285,None,949.6833214731887,949.7000590600073,,,,,,,181,001,2024_Mar_11_1046,SpeechDraft1Carolyn_lessNoise_PlusLocalization,2021.2.3,59.98373804038756,
,,,,,,,,center,0.0,6,ch1Sound_localizationTask.wav,0.0,"(952, 878)","(-8,-202)",0,-338,,,,,,,,,,,,,3,5,26,3,,,,,,,,,,,,,,,,,,,,,,,,,,,,,,,,,,,,,,,,952.4167444277555,None,,,955.4330852515996,None,1.5137566137566139,1.5486153094097972,955.4330852515996,None,,,,,,,953.4169432278723,None,953.6000202102587,953.6167382448912,,,,,,,181,001,2024_Mar_11_1046,SpeechDraft1Carolyn_lessNoise_PlusLocalization,2021.2.3,59.98373804038756,
,,,,,,,,center,0.0,6,ch1Sound_localizationTask.wav,0.0,"(952, 878)","(-8,-202)",0,-338,,,,,,,,,,,,,3,6,27,3,,,,,,,,,,,,,,,,,,,,,,,,,,,,,,,,,,,,,,,,956.9833831051365,None,,,959.9999139700085,None,1.4925925925925925,1.1327737281098962,959.9999139700085,None,,,,,,,957.9834237452596,None,958.1667738351971,958.1833279663697,,,,,,,181,001,2024_Mar_11_1046,SpeechDraft1Carolyn_lessNoise_PlusLocalization,2021.2.3,59.98373804038756,
,,,,,,,,midRight,13.0,3,ch1Sound_localizationTask.wav,13.0,"(1142, 878)","(182, -202)",190,-338,,,,,,,,,,,,,4,0,28,5,,,,,,,,,,,,,,,,,,,,,,,,,,,,,,,,,,,,,,,,961.1333510670811,None,,,964.1500229276717,None,1.5761904761904761,0.7321173083037138,964.1500229276717,None,,,,,,,962.1333801625296,None,962.3167694024742,962.3334352662787,,,,,,,181,001,2024_Mar_11_1046,SpeechDraft1Carolyn_lessNoise_PlusLocalization,2021.2.3,59.98373804038756,
,,,,,,,,midLeft,-13.0,2,ch1Sound_localizationTask.wav,-13.0,"(762, 878)","(-198,-202)",-190,-338,,,,,,,,,,,,,4,1,29,1,,,,,,,,,,,,,,,,,,,,,,,,,,,,,,,,,,,,,,,,964.8834228543565,None,,,967.8997636893764,None,1.3915343915343916,0.8656604019924998,967.8997636893764,None,,,,,,,965.8834149073809,None,966.0667903218418,966.0833904081956,,,,,,,181,001,2024_Mar_11_1046,SpeechDraft1Carolyn_lessNoise_PlusLocalization,2021.2.3,59.98373804038756,
,,,,,,,,farLeft,-19.1,5,ch1Sound_localizationTask.wav,-19.1,"(667, 878)","(-293,-202)",-285,-338,,,,,,,,,,,,,4,2,30,0,,,,,,,,,,,,,,,,,,,,,,,,,,,,,,,,,,,,,,,,968.7667346410453,None,,,971.7832461977378,None,1.2878306878306878,1.0654828045517206,971.7832461977378,None,,,,,,,969.7667252514511,None,969.950129958801,969.9667438594624,,,,,,,181,001,2024_Mar_11_1046,SpeechDraft1Carolyn_lessNoise_PlusLocalization,2021.2.3,59.98373804038756,
,,,,,,,,farRight,19.1,4,ch1Sound_localizationTask.wav,19.1,"(1237, 878)","(277,-202)",285,-338,,,,,,,,,,,,,4,3,31,6,,,,,,,,,,,,,,,,,,,,,,,,,,,,,,,,,,,,,,,,972.8500889269635,None,,,975.8664104631171,None,1.5857142857142859,1.1164703126996756,975.8664104631171,None,,,,,,,973.8500544661656,None,974.0334844235331,974.0500669945031,,,,,,,181,001,2024_Mar_11_1046,SpeechDraft1Carolyn_lessNoise_PlusLocalization,2021.2.3,59.98373804038756,
,,,,,,,,nearLeft,-6.5,1,ch1Sound_localizationTask.wav,-6.5,"(857, 878)","(-103,-202)",-95,-338,,,,,,,,,,,,,4,4,32,2,,,,,,,,,,,,,,,,,,,,,,,,,,,,,,,,,,,,,,,,976.9835718683898,None,,,979.9998970506713,None,1.428042328042328,1.3659989470615983,979.9998970506713,None,,,,,,,977.9835565686226,None,978.1667826035991,978.183393242769,,,,,,,181,001,2024_Mar_11_1046,SpeechDraft1Carolyn_lessNoise_PlusLocalization,2021.2.3,59.98373804038756,
,,,,,,,,center,0.0,6,ch1Sound_localizationTask.wav,0.0,"(952, 878)","(-8,-202)",0,-338,,,,,,,,,,,,,4,5,33,3,,,,,,,,,,,,,,,,,,,,,,,,,,,,,,,,,,,,,,,,981.3667954858392,None,,,984.3832033490762,None,1.5343915343915344,7.400250447914004,984.3832033490762,None,,,,,,,982.3668168168515,None,982.5500693144277,982.5667959246784,,,,,,,181,001,2024_Mar_11_1046,SpeechDraft1Carolyn_lessNoise_PlusLocalization,2021.2.3,59.98373804038756,
,,,,,,,,midRight,13.0,3,ch1Sound_localizationTask.wav,13.0,"(1142, 878)","(182, -202)",190,-338,,,,,,,,,,,,,4,6,34,5,,,,,,,,,,,,,,,,,,,,,,,,,,,,,,,,,,,,,,,,991.8002129690722,None,,,994.8166321096942,None,1.5973544973544973,1.099442827515304,994.8166321096942,None,,,,,,,992.8002460114658,None,992.9834140008315,993.0001311339438,,,,,,,181,001,2024_Mar_11_1046,SpeechDraft1Carolyn_lessNoise_PlusLocalization,2021.2.3,59.98373804038756,
,,,,,,,,farRight,19.1,4,ch1Sound_localizationTask.wav,19.1,"(1237, 878)","(277,-202)",285,-338,,,,,,,,,,,,,5,0,35,6,,,,,,,,,,,,,,,,,,,,,,,,,,,,,,,,,,,,,,,,995.9167975531891,None,,,998.9333534222096,None,1.6777777777777778,0.9822412990033627,998.9333534222096,None,,,,,,,996.9167190697044,None,997.1000579241663,997.1167442742735,,,,,,,181,001,2024_Mar_11_1046,SpeechDraft1Carolyn_lessNoise_PlusLocalization,2021.2.3,59.98373804038756,
,,,,,,,,nearLeft,-6.5,1,ch1Sound_localizationTask.wav,-6.5,"(857, 878)","(-103,-202)",-95,-338,,,,,,,,,,,,,5,1,36,2,,,,,,,,,,,,,,,,,,,,,,,,,,,,,,,,,,,,,,,,999.9168022833765,None,,,1002.933270983398,None,1.4455026455026454,0.9829198522493243,1002.933270983398,None,,,,,,,1000.9168123975396,None,1001.1001245453954,1001.1167427087203,,,,,,,181,001,2024_Mar_11_1046,SpeechDraft1Carolyn_lessNoise_PlusLocalization,2021.2.3,59.98373804038756,
,,,,,,,,midLeft,-13.0,2,ch1Sound_localizationTask.wav,-13.0,"(762, 878)","(-198,-202)",-190,-338,,,,,,,,,,,,,5,2,37,1,,,,,,,,,,,,,,,,,,,,,,,,,,,,,,,,,,,,,,,,1003.916945966892,None,,,1006.9332278156653,None,1.3957671957671958,1.1329070562496781,1006.9332278156653,None,,,,,,,1004.9168274654076,None,1005.1001618057489,1005.1169067202136,,,,,,,181,001,2024_Mar_11_1046,SpeechDraft1Carolyn_lessNoise_PlusLocalization,2021.2.3,59.98373804038756,
,,,,,,,,midLeft,-13.0,2,ch1Sound_localizationTask.wav,-13.0,"(762, 878)","(-198,-202)",-190,-338,,,,,,,,,,,,,5,3,38,1,,,,,,,,,,,,,,,,,,,,,,,,,,,,,,,,,,,,,,,,1008.0668010227382,None,,,1011.0832330659032,None,1.3735449735449734,1.0827052481472492,1011.0832330659032,None,,,,,,,1009.0668444978073,None,1009.250156535767,1009.2668300559744,,,,,,,181,001,2024_Mar_11_1046,SpeechDraft1Carolyn_lessNoise_PlusLocalization,2021.2.3,59.98373804038756,
,,,,,,,,midRight,13.0,3,ch1Sound_localizationTask.wav,13.0,"(1142, 878)","(182, -202)",190,-338,,,,,,,,,,,,,5,4,39,5,,,,,,,,,,,,,,,,,,,,,,,,,,,,,,,,,,,,,,,,1012.1667878646404,None,,,1015.1832707058638,None,1.6121693121693121,1.232362613081932,1015.1832707058638,None,,,,,,,1013.1667517786846,None,1013.3501885458827,1013.3667535986751,,,,,,,181,001,2024_Mar_11_1046,SpeechDraft1Carolyn_lessNoise_PlusLocalization,2021.2.3,59.98373804038756,
,,,,,,,,midLeft,-13.0,2,ch1Sound_localizationTask.wav,-13.0,"(762, 878)","(-198,-202)",-190,-338,,,,,,,,,,,,,5,5,40,1,,,,,,,,,,,,,,,,,,,,,,,,,,,,,,,,,,,,,,,,1016.4167715851218,None,,,1019.4332573981956,None,1.426984126984127,1.1816738108173013,1019.4332573981956,None,,,,,,,1017.4168379753828,None,1017.6000878727064,1017.6167609328404,,,,,,,181,001,2024_Mar_11_1046,SpeechDraft1Carolyn_lessNoise_PlusLocalization,2021.2.3,59.98373804038756,
,,,,,,,,nearRight,6.5,0,ch1Sound_localizationTask.wav,6.5,"(1047, 878)","(87, -202)",95,-338,,,,,,,,,,,,,5,6,41,4,,,,,,,,,,,,,,,,,,,,,,,,,,,,,,,,,,,,,,,,1020.6168257463723,None,,,1023.6334038414061,None,1.5613756613756613,1.3163104401901364,1023.6334038414061,None,,,,,,,1021.6168980207294,None,1021.8000721139833,1021.8168684039265,,,,,,,181,001,2024_Mar_11_1046,SpeechDraft1Carolyn_lessNoise_PlusLocalization,2021.2.3,59.98373804038756,
,,,,,,,,nearRight,6.5,0,ch1Sound_localizationTask.wav,6.5,"(1047, 878)","(87, -202)",95,-338,,,,,,,,,,,,,6,0,42,4,,,,,,,,,,,,,,,,,,,,,,,,,,,,,,,,,,,,,,,,1024.9502345323563,None,,,1027.9666396211833,None,1.5708994708994708,0.5995627148076892,1027.9666396211833,None,,,,,,,1025.9502125764266,None,1026.1335268039256,1026.1501517696306,,,,,,,181,001,2024_Mar_11_1046,SpeechDraft1Carolyn_lessNoise_PlusLocalization,2021.2.3,59.98373804038756,
,,,,,,,,midRight,13.0,3,ch1Sound_localizationTask.wav,13.0,"(1142, 878)","(182, -202)",190,-338,,,,,,,,,,,,,6,1,43,5,,,,,,,,,,,,,,,,,,,,,,,,,,,,,,,,,,,,,,,,1028.5668751513585,None,,,1031.583249961026,None,1.6074074074074074,1.2996999230235815,1031.583249961026,None,,,,,,,1029.5668424805626,None,1029.7501899562776,1029.7668014988303,,,,,,,181,001,2024_Mar_11_1046,SpeechDraft1Carolyn_lessNoise_PlusLocalization,2021.2.3,59.98373804038756,
,,,,,,,,midLeft,-13.0,2,ch1Sound_localizationTask.wav,-13.0,"(762, 878)","(-198,-202)",-190,-338,,,,,,,,,,,,,6,2,44,1,,,,,,,,,,,,,,,,,,,,,,,,,,,,,,,,,,,,,,,,1032.8834833549336,None,,,1035.8999741682783,None,1.4121693121693122,0.9149925950914621,1035.8999741682783,None,,,,,,,1033.883463154547,None,1034.0669127190486,1034.083408021368,,,,,,,181,001,2024_Mar_11_1046,SpeechDraft1Carolyn_lessNoise_PlusLocalization,2021.2.3,59.98373804038756,
,,,,,,,,nearLeft,-6.5,1,ch1Sound_localizationTask.wav,-6.5,"(857, 878)","(-103,-202)",-95,-338,,,,,,,,,,,,,6,3,45,2,,,,,,,,,,,,,,,,,,,,,,,,,,,,,,,,,,,,,,,,1036.816790908575,None,,,1039.8335862066597,None,1.4608465608465608,0.7828709417954087,1039.8335862066597,None,,,,,,,1037.8168363245204,None,1038.000202095136,1038.0168327419087,,,,,,,181,001,2024_Mar_11_1046,SpeechDraft1Carolyn_lessNoise_PlusLocalization,2021.2.3,59.98373804038756,
,,,,,,,,farRight,19.1,4,ch1Sound_localizationTask.wav,19.1,"(1237, 878)","(277,-202)",285,-338,,,,,,,,,,,,,6,4,46,6,,,,,,,,,,,,,,,,,,,,,,,,,,,,,,,,,,,,,,,,1040.6170068206266,None,,,1043.6331147076562,None,1.6301587301587301,0.9159462517127395,1043.6331147076562,None,,,,,,,1041.6168798832223,None,1041.8001644928008,1041.8168600192294,,,,,,,181,001,2024_Mar_11_1046,SpeechDraft1Carolyn_lessNoise_PlusLocalization,2021.2.3,59.98373804038756,
,,,,,,,,nearRight,6.5,0,ch1Sound_localizationTask.wav,6.5,"(1047, 878)","(87, -202)",95,-338,,,,,,,,,,,,,6,5,47,4,,,,,,,,,,,,,,,,,,,,,,,,,,,,,,,,,,,,,,,,1044.5510223628953,None,,,1047.566675000824,None,1.546031746031746,0.6653708657249808,1047.566675000824,None,,,,,,,1045.5502291703597,None,1045.733454558067,1045.7503549866378,,,,,,,181,001,2024_Mar_11_1046,SpeechDraft1Carolyn_lessNoise_PlusLocalization,2021.2.3,59.98373804038756,
,,,,,,,,midLeft,-13.0,2,ch1Sound_localizationTask.wav,-13.0,"(762, 878)","(-198,-202)",-190,-338,,,,,,,,,,,,,6,6,48,1,,,,,,,,,,,,,,,,,,,,,,,,,,,,,,,,,,,,,,,,1048.233520211652,None,,,1051.2500005131587,None,1.397883597883598,1.4322043815627694,1051.2500005131587,None,,,,,,,1049.2335685770959,None,1049.4168545333669,1049.4335418399423,,,,,,,181,001,2024_Mar_11_1046,SpeechDraft1Carolyn_lessNoise_PlusLocalization,2021.2.3,59.98373804038756,
,,,,,,,,farRight,19.1,4,ch1Sound_localizationTask.wav,19.1,"(1237, 878)","(277,-202)",285,-338,,,,,,,,,,,,,7,0,49,6,,,,,,,,,,,,,,,,,,,,,,,,,,,,,,,,,,,,,,,,1052.6835101982579,None,,,1055.6999631114304,None,1.6492063492063491,0.9829225335270166,1055.6999631114304,None,,,,,,,1053.6835689339787,None,1053.866831629537,1053.8836215958,,,,,,,181,001,2024_Mar_11_1046,SpeechDraft1Carolyn_lessNoise_PlusLocalization,2021.2.3,59.98373804038756,
,,,,,,,,farLeft,-19.1,5,ch1Sound_localizationTask.wav,-19.1,"(667, 878)","(-293,-202)",-285,-338,,,,,,,,,,,,,7,1,50,0,,,,,,,,,,,,,,,,,,,,,,,,,,,,,,,,,,,,,,,,1056.683785494417,None,,,1059.6999754663557,None,1.3931216931216932,0.9990210477262735,1059.6999754663557,None,,,,,,,1057.6834382750094,None,1057.866841503419,1057.8835302125663,,,,,,,181,001,2024_Mar_11_1046,SpeechDraft1Carolyn_lessNoise_PlusLocalization,2021.2.3,59.98373804038756,
,,,,,,,,nearRight,6.5,0,ch1Sound_localizationTask.wav,6.5,"(1047, 878)","(87, -202)",95,-338,,,,,,,,,,,,,7,2,51,4,,,,,,,,,,,,,,,,,,,,,,,,,,,,,,,,,,,,,,,,1060.7002491299063,None,,,1063.716609028168,None,1.5275132275132275,1.316154709085822,1063.716609028168,None,,,,,,,1061.7002294436097,None,1061.883505102247,1061.9003068795428,,,,,,,181,001,2024_Mar_11_1046,SpeechDraft1Carolyn_lessNoise_PlusLocalization,2021.2.3,59.98373804038756,
,,,,,,,,farRight,19.1,4,ch1Sound_localizationTask.wav,19.1,"(1237, 878)","(277,-202)",285,-338,,,,,,,,,,,,,7,3,52,6,,,,,,,,,,,,,,,,,,,,,,,,,,,,,,,,,,,,,,,,1065.0335669480264,None,,,1068.0500276349485,None,1.655026455026455,1.2990254601463675,1068.0500276349485,None,,,,,,,1066.0336958793923,None,1066.2168879928067,1066.233620771207,,,,,,,181,001,2024_Mar_11_1046,SpeechDraft1Carolyn_lessNoise_PlusLocalization,2021.2.3,59.98373804038756,
,,,,,,,,midRight,13.0,3,ch1Sound_localizationTask.wav,13.0,"(1142, 878)","(182, -202)",190,-338,,,,,,,,,,,,,7,4,53,5,,,,,,,,,,,,,,,,,,,,,,,,,,,,,,,,,,,,,,,,1069.3502195551991,None,,,1072.3667565528303,None,1.6132275132275131,0.9830355877056718,1072.3667565528303,None,,,,,,,1070.3503632918,None,1070.533496289514,1070.5501719517633,,,,,,,181,001,2024_Mar_11_1046,SpeechDraft1Carolyn_lessNoise_PlusLocalization,2021.2.3,59.98373804038756,
,,,,,,,,nearRight,6.5,0,ch1Sound_localizationTask.wav,6.5,"(1047, 878)","(87, -202)",95,-338,,,,,,,,,,,,,7,5,54,4,,,,,,,,,,,,,,,,,,,,,,,,,,,,,,,,,,,,,,,,1073.350386917591,None,,,1076.3666779426858,None,1.5391534391534392,0.5659264558926225,1076.3666779426858,None,,,,,,,1074.3501681387424,None,1074.5335570760071,1074.5503184609115,,,,,,,181,001,2024_Mar_11_1046,SpeechDraft1Carolyn_lessNoise_PlusLocalization,2021.2.3,59.98373804038756,
,,,,,,,,farLeft,-19.1,5,ch1Sound_localizationTask.wav,-19.1,"(667, 878)","(-293,-202)",-285,-338,,,,,,,,,,,,,7,6,55,0,,,,,,,,,,,,,,,,,,,,,,,,,,,,,,,,,,,,,,,,1076.9335274389014,None,,,1079.9501291960478,None,1.362962962962963,0.9155263192951679,1079.9501291960478,None,,,,,,,1077.9334822874516,None,1078.1169991251081,1078.1335254311562,,,,,,,181,001,2024_Mar_11_1046,SpeechDraft1Carolyn_lessNoise_PlusLocalization,2021.2.3,59.98373804038756,
,,,,,,,,,,,,,,,,,,,,,,,,,,,,,,,,,,,,,,,,,,,,,,,,,,,,,,,,,,,,,,,,,,,,,,,,,,,,,,,,,,,,,,,,,,,,1080.867112797685,None,c,109.14501609280705,1081.8502875696868,None,181,001,2024_Mar_11_1046,SpeechDraft1Carolyn_lessNoise_PlusLocalization,2021.2.3,59.98373804038756,
