{"meta_data":{"additional_headers":{},"game_name":"Recollect","version":"2.53.01","user_name":"181","organization":"braingamecenter","study":"mpl2_2022_11","session_number":0,"device_id":"74342D95-EE82-45E3-8ADF-48FB3203C5DD"},"data":[{"stage":"Practice","trial":0,"sequence":"6F","letter_input":"F","number_input":"6","is_correct":true,"presentation_start_time":1710174172239.79,"presentation_end_time":1710174175242.96,"response_time":1710174180607.01},{"stage":"Practice","trial":1,"sequence":"G4","letter_input":"G","number_input":"4","is_correct":true,"presentation_start_time":1710174182136.6,"presentation_end_time":1710174185139.68,"response_time":1710174189234.36},{"stage":"Practice","trial":2,"sequence":"3W5","letter_input":"W","number_input":"35","is_correct":true,"presentation_start_time":1710174190767.15,"presentation_end_time":1710174195269.82,"response_time":1710174200514.1},{"stage":"Practice","trial":3,"sequence":"T7L","letter_input":"LT","number_input":"7","is_correct":true,"presentation_start_time":1710174202046.83,"presentation_end_time":1710174206549.47,"response_time":1710174215892.5},{"stage":"Practice","trial":4,"sequence":"9J1","letter_input":"J","number_input":"19","is_correct":true,"presentation_start_time":1710174217425.22,"presentation_end_time":1710174221927.85,"response_time":1710174227771.92},{"stage":"Calibration","trial":0,"sequence":"L4","letter_input":"L","number_input":"4","is_correct":true,"presentation_start_time":1710174257295.62,"presentation_end_time":1710174260298.81,"response_time":1710174264260.25},{"stage":"Calibration","trial":1,"sequence":"7Z","letter_input":"Z","number_input":"7","is_correct":true,"presentation_start_time":1710174265792.95,"presentation_end_time":1710174268796.04,"response_time":1710174272557.54},{"stage":"Calibration","trial":2,"sequence":"P8J","letter_input":"PJ","number_input":"8","is_correct":false,"presentation_start_time":1710174274090.24,"presentation_end_time":1710174278592.69,"response_time":1710174286319.82},{"stage":"Calibration","trial":3,"sequence":"7T4","letter_input":"T","number_input":"47","is_correct":true,"presentation_start_time":1710174287852.52,"presentation_end_time":1710174292355.21,"response_time":1710174296116.62},{"stage":"Calibration","trial":4,"sequence":"V5C2","letter_input":"CV","number_input":"25","is_correct":true,"presentation_start_time":1710174297649.37,"presentation_end_time":1710174303651.45,"response_time":1710174310445.31},{"stage":"Calibration","trial":5,"sequence":"9T4L","letter_input":"LT","number_input":"49","is_correct":true,"presentation_start_time":1710174311978.01,"presentation_end_time":1710174317980.29,"response_time":1710174323840.97},{"stage":"Calibration","trial":6,"sequence":"M5G2E","letter_input":"GMT","number_input":"25","is_correct":false,"presentation_start_time":1710174325373.7,"presentation_end_time":1710174332875.36,"response_time":1710174354081.37},{"stage":"Calibration","trial":7,"sequence":"9Y4R1","letter_input":"TRY","number_input":"149","is_correct":false,"presentation_start_time":1710174355613.97,"presentation_end_time":1710174363115.71,"response_time":1710174378789.88}]}