{"meta_data":{"additional_headers":{},"game_name":"Recollect","version":"2.53.01","user_name":"182","organization":"braingamecenter","study":"mpl2_2022_11","session_number":0,"device_id":"74342D95-EE82-45E3-8ADF-48FB3203C5DD"},"data":[{"stage":"Practice","trial":0,"sequence":"6F","letter_input":"F","number_input":"6","is_correct":true,"presentation_start_time":1710180560647.47,"presentation_end_time":1710180563650.62,"response_time":1710180578476.65},{"stage":"Practice","trial":1,"sequence":"G4","letter_input":"G","number_input":"4","is_correct":true,"presentation_start_time":1710180580007.86,"presentation_end_time":1710180583010.98,"response_time":1710180591904.2},{"stage":"Practice","trial":2,"sequence":"3W5","letter_input":"W","number_input":"35","is_correct":true,"presentation_start_time":1710180593436.83,"presentation_end_time":1710180597939.39,"response_time":1710180608015.57},{"stage":"Practice","trial":3,"sequence":"T7L","letter_input":"TL","number_input":"7","is_correct":false,"presentation_start_time":1710180609548.3,"presentation_end_time":1710180614050.86,"response_time":1710180622444.3},{"stage":"Practice","trial":4,"sequence":"9J1","letter_input":"J","number_input":"19","is_correct":true,"presentation_start_time":1710180625476.49,"presentation_end_time":1710180629979.03,"response_time":1710180637855.99},{"stage":"Calibration","trial":0,"sequence":"4S","letter_input":"S","number_input":"4","is_correct":true,"presentation_start_time":1710180650634.99,"presentation_end_time":1710180653638.1,"response_time":1710180658998.98},{"stage":"Calibration","trial":1,"sequence":"E5","letter_input":"E","number_input":"5","is_correct":true,"presentation_start_time":1710180660531.73,"presentation_end_time":1710180663534.75,"response_time":1710180668346.07},{"stage":"Calibration","trial":2,"sequence":"6W1","letter_input":"W","number_input":"16","is_correct":true,"presentation_start_time":1710180669878.67,"presentation_end_time":1710180674381.38,"response_time":1710180679159.17},{"stage":"Calibration","trial":3,"sequence":"S8F","letter_input":"FS","number_input":"8","is_correct":true,"presentation_start_time":1710180680691.93,"presentation_end_time":1710180685194.43,"response_time":1710180696836.67},{"stage":"Calibration","trial":4,"sequence":"7Y1J","letter_input":"JY","number_input":"17","is_correct":true,"presentation_start_time":1710180698369.45,"presentation_end_time":1710180704371.54,"response_time":1710180708666.31},{"stage":"Calibration","trial":5,"sequence":"R9M5","letter_input":"RN","number_input":"9","is_correct":false,"presentation_start_time":1710180710198.94,"presentation_end_time":1710180716201.17,"response_time":1710180730859.12},{"stage":"Calibration","trial":6,"sequence":"3K1D7","letter_input":"KD","number_input":"137","is_correct":false,"presentation_start_time":1710180732391.79,"presentation_end_time":1710180739893.46,"response_time":1710180753368.5},{"stage":"Calibration","trial":7,"sequence":"P9C5Y","letter_input":"CY","number_input":"95","is_correct":false,"presentation_start_time":1710180754901.19,"presentation_end_time":1710180762402.83,"response_time":1710180774245.07}]}