Audio_Only_Files,Video_Files,Original_Word_List,noiseLevelCode,conditionCodes,noiseLevelFile1,noiseLevelFile2,InstrTextVar,targetSpeakerName,targetSpeakerEccen,targetSpkrChannel,targetSpkrSound,targetVisualDegrees,visStimLoc,visStimLoc2,visStimW,visStimH,practiceTrials.thisRepN,practiceTrials.thisTrialN,practiceTrials.thisN,practiceTrials.thisIndex,trials.thisRepN,trials.thisTrialN,trials.thisN,trials.thisIndex,audLocalLoop.thisRepN,audLocalLoop.thisTrialN,audLocalLoop.thisN,audLocalLoop.thisIndex,visualLocalLoop.thisRepN,visualLocalLoop.thisTrialN,visualLocalLoop.thisN,visualLocalLoop.thisIndex,letsGoAlready.keys,letsGoAlready.rt,letsGoAlready.started,letsGoAlready.stopped,text_2.started,text_2.stopped,text_3.started,text_3.stopped,key_resp_2.keys,key_resp_2.rt,key_resp_2.started,key_resp_2.stopped,text_5.started,text_5.stopped,fixCross.started,fixCross.stopped,fixCross2.started,fixCross2.stopped,answerPrompt.started,answerPrompt.stopped,getAnswer.text,getAnswer.started,getAnswer.stopped,goToNext.keys,goToNext.rt,goToNext.started,goToNext.stopped,stretchBreakTxrt.started,stretchBreakTxrt.stopped,key_resp_3.keys,key_resp_3.rt,key_resp_3.started,key_resp_3.stopped,letsGoLocal.keys,letsGoLocal.rt,letsGoLocal.started,letsGoLocal.stopped,text_4.started,text_4.stopped,prepFixTxt.started,prepFixTxt.stopped,prepFixTxt_2.started,prepFixTxt_2.stopped,respPromptLocal.started,respPromptLocal.stopped,slider.response,slider.rt,slider.started,slider.stopped,letsGoLocal_2.keys,letsGoLocal_2.rt,letsGoLocal_2.started,letsGoLocal_2.stopped,text_7.started,text_7.stopped,prepFixTxt_3.started,prepFixTxt_3.stopped,grating.started,grating.stopped,participant,session,date,expName,psychopyVersion,frameRate,
,,,,,,,,,,,,,,,,,,,,,,,,,,,,,,,,,space,2.234183117747307,123.15463659632951,None,,,,,,,,,,,,,,,,,,,,,,,,,,,,,,,,,,,,,,,,,,,,,,,,,,,,,,,,182,001,2024_Mar_11_1214,SpeechDraft1Carolyn_lessNoise_PlusLocalization,2021.2.3,59.94872637814461,
,,,,,,,,,,,,,,,,,,,,,,,,,,,,,,,,,,,,,123.15463659632951,None,125.52206677570939,None,space,6.236476875841618,125.70449444558471,None,,,,,,,,,,,,,,,,,,,,,,,,,,,,,,,,,,,,,,,,,,,,,,,,182,001,2024_Mar_11_1214,SpeechDraft1Carolyn_lessNoise_PlusLocalization,2021.2.3,59.94872637814461,
ash.wav,ash.mpg,ash,1,A,Pink_Noise_1_1.wav,Pink_Noise_1_2.wav,"This is an example of an

AUDIO trial",,,,,,,,,,0,0,0,0,,,,,,,,,,,,,,,,,,,,,,,,,131.98787085525692,None,132.98812237288803,None,136.2038984624669,None,137.57251094374806,None,ash,137.57251094374806,None,return,19.270593525841832,137.65420952718705,None,,,,,,,,,,,,,,,,,,,,,,,,,,,,,,,,,182,001,2024_Mar_11_1214,SpeechDraft1Carolyn_lessNoise_PlusLocalization,2021.2.3,59.94872637814461,
ash.wav,ash.mpg,ash,1,AV,Pink_Noise_1_1.wav,Pink_Noise_1_2.wav,"This is an example of an

AUDIO + VIDEO  trial",,,,,,,,,,0,1,1,1,,,,,,,,,,,,,,,,,,,,,,,,,156.9706100197509,None,157.97092770505697,None,159.4540648572147,None,160.837755179964,None,"ash
",160.837755179964,None,return,4.283702872693539,160.92109523992985,None,,,,,,,,,,,,,,,,,,,,,,,,,,,,,,,,,182,001,2024_Mar_11_1214,SpeechDraft1Carolyn_lessNoise_PlusLocalization,2021.2.3,59.94872637814461,
,,,,,,,,,,,,,,,,,,,,,,,,,,,,,,,,,,,,,,,,,,,,,,,,,,,,,,,,,,,,165.25397667475045,None,space,14.4551598764956,165.43764291517437,None,,,,,,,,,,,,,,,,,,,,,,,,,,,182,001,2024_Mar_11_1214,SpeechDraft1Carolyn_lessNoise_PlusLocalization,2021.2.3,59.94872637814461,
swayed.wav,swayed.mpg,swayed,3,AV,Pink_Noise_3_1.wav,Pink_Noise_3_2.wav,,,,,,,,,,,,,,,0,0,0,72,,,,,,,,,,,,,,,,,,,,,,,179.95395861938596,None,181.437434614636,None,182.82098911236972,None,suade,182.82098911236972,None,return,5.124186732806265,182.90462982002646,None,,,,,,,,,,,,,,,,,,,,,,,,,,,,,,,,,182,001,2024_Mar_11_1214,SpeechDraft1Carolyn_lessNoise_PlusLocalization,2021.2.3,59.94872637814461,
beach.wav,beach.mpg,beach,3,AV,Pink_Noise_3_1.wav,Pink_Noise_3_2.wav,,,,,,,,,,,,,,,0,1,1,88,,,,,,,,,,,,,,,,,,,,,,,188.05425534117967,None,189.5374607304111,None,190.9211648432538,None,"beach
",190.9211648432538,None,return,7.800268741324544,191.00453452486545,None,,,,,,,,,,,,,,,,,,,,,,,,,,,,,,,,,182,001,2024_Mar_11_1214,SpeechDraft1Carolyn_lessNoise_PlusLocalization,2021.2.3,59.94872637814461,
hit.wav,hit.mpg,hit,4,AV,Pink_Noise_4_1.wav,Pink_Noise_4_2.wav,,,,,,,,,,,,,,,0,2,2,60,,,,,,,,,,,,,,,,,,,,,,,198.837900146842,None,200.33756876643747,None,201.7210841346532,None,hit,201.7210841346532,None,return,34.68044203519821,201.80448164604604,None,,,,,,,,,,,,,,,,,,,,,,,,,,,,,,,,,182,001,2024_Mar_11_1214,SpeechDraft1Carolyn_lessNoise_PlusLocalization,2021.2.3,59.94872637814461,
beard.wav,beard.mpg,beard,6,AV,Pink_Noise_6_1.wav,Pink_Noise_6_2.wav,,,,,,,,,,,,,,,0,3,3,111,,,,,,,,,,,,,,,,,,,,,,,236.5045045921579,None,238.0040257424116,None,239.387715453282,None,"period
",239.387715453282,None,return,7.3015898717567325,239.4712300458923,None,,,,,,,,,,,,,,,,,,,,,,,,,,,,,,,,,182,001,2024_Mar_11_1214,SpeechDraft1Carolyn_lessNoise_PlusLocalization,2021.2.3,59.94872637814461,
cheat.wav,cheat.mpg,cheat,5,A,Pink_Noise_5_1.wav,Pink_Noise_5_2.wav,,,,,,,,,,,,,,,0,4,4,0,,,,,,,,,,,,,,,,,,,,,,,246.80453368462622,None,248.30419230274856,None,249.68798876181245,None,chew,249.68798876181245,None,return,5.561640879139304,249.77118970360607,None,,,,,,,,,,,,,,,,,,,,,,,,,,,,,,,,,182,001,2024_Mar_11_1214,SpeechDraft1Carolyn_lessNoise_PlusLocalization,2021.2.3,59.94872637814461,
chef.wav,chef.mpg,chef,4,AV,Pink_Noise_4_1.wav,Pink_Noise_4_2.wav,,,,,,,,,,,,,,,0,5,5,109,,,,,,,,,,,,,,,,,,,,,,,255.35459496174008,None,256.85397137422115,None,258.23788240738213,None,"chef
",258.23788240738213,None,return,4.483604340814054,258.3212782368064,None,,,,,,,,,,,,,,,,,,,,,,,,,,,,,,,,,182,001,2024_Mar_11_1214,SpeechDraft1Carolyn_lessNoise_PlusLocalization,2021.2.3,59.94872637814461,
bush.wav,bush.mpg,bush,5,A,Pink_Noise_5_1.wav,Pink_Noise_5_2.wav,,,,,,,,,,,,,,,0,6,6,28,,,,,,,,,,,,,,,,,,,,,,,262.83771133515984,None,264.33762113843113,None,265.7212877077982,None,brunch,265.7212877077982,None,return,6.960325947962701,265.8044704608619,None,,,,,,,,,,,,,,,,,,,,,,,,,,,,,,,,,182,001,2024_Mar_11_1214,SpeechDraft1Carolyn_lessNoise_PlusLocalization,2021.2.3,59.94872637814461,
fold.wav,fold.mpg,fold,5,A,Pink_Noise_5_1.wav,Pink_Noise_5_2.wav,,,,,,,,,,,,,,,0,7,7,34,,,,,,,,,,,,,,,,,,,,,,,272.78810550644994,None,274.27195347473025,None,275.6545782042667,None,task,275.6545782042667,None,return,4.994878238067031,275.7379422467202,None,,,,,,,,,,,,,,,,,,,,,,,,,,,,,,,,,182,001,2024_Mar_11_1214,SpeechDraft1Carolyn_lessNoise_PlusLocalization,2021.2.3,59.94872637814461,
egg.wav,egg.mpg,egg,4,AV,Pink_Noise_4_1.wav,Pink_Noise_4_2.wav,,,,,,,,,,,,,,,0,8,8,78,,,,,,,,,,,,,,,,,,,,,,,280.754440841265,None,282.2541545582935,None,283.63798901997507,None,egg,283.63798901997507,None,return,3.8435040190815926,283.72129478119314,None,,,,,,,,,,,,,,,,,,,,,,,,,,,,,,,,,182,001,2024_Mar_11_1214,SpeechDraft1Carolyn_lessNoise_PlusLocalization,2021.2.3,59.94872637814461,
chin.wav,chin.mpg,chin,5,A,Pink_Noise_5_1.wav,Pink_Noise_5_2.wav,,,,,,,,,,,,,,,0,9,9,24,,,,,,,,,,,,,,,,,,,,,,,287.5878178840503,None,289.0875305579975,None,290.4712726417929,None,"chait
",290.4712726417929,None,return,4.834086142480373,290.5547188501805,None,,,,,,,,,,,,,,,,,,,,,,,,,,,,,,,,,182,001,2024_Mar_11_1214,SpeechDraft1Carolyn_lessNoise_PlusLocalization,2021.2.3,59.94872637814461,
toast.wav,toast.mpg,toast,1,A,Pink_Noise_1_1.wav,Pink_Noise_1_2.wav,,,,,,,,,,,,,,,0,10,10,55,,,,,,,,,,,,,,,,,,,,,,,295.4213017448783,None,296.9045293722302,None,298.28781937994063,None,"toast
",298.28781937994063,None,return,4.185465710237622,298.3713468685746,None,,,,,,,,,,,,,,,,,,,,,,,,,,,,,,,,,182,001,2024_Mar_11_1214,SpeechDraft1Carolyn_lessNoise_PlusLocalization,2021.2.3,59.94872637814461,
cloak.wav,cloak.mpg,cloak,1,AV,Pink_Noise_1_1.wav,Pink_Noise_1_2.wav,,,,,,,,,,,,,,,0,11,11,116,,,,,,,,,,,,,,,,,,,,,,,302.5878793699667,None,304.07292019668967,None,305.4714096756652,None,cloak,305.4714096756652,None,return,12.34639076795429,305.55451374780387,None,,,,,,,,,,,,,,,,,,,,,,,,,,,,,,,,,182,001,2024_Mar_11_1214,SpeechDraft1Carolyn_lessNoise_PlusLocalization,2021.2.3,59.94872637814461,
coin.wav,coin.mpg,coin,6,AV,Pink_Noise_6_1.wav,Pink_Noise_6_2.wav,,,,,,,,,,,,,,,0,12,12,108,,,,,,,,,,,,,,,,,,,,,,,317.92126153502613,None,319.42076623719186,None,320.8045065123588,None,quarter,320.8045065123588,None,return,4.828811422921717,320.88799273688346,None,,,,,,,,,,,,,,,,,,,,,,,,,,,,,,,,,182,001,2024_Mar_11_1214,SpeechDraft1Carolyn_lessNoise_PlusLocalization,2021.2.3,59.94872637814461,
gulp.wav,gulp.mpg,gulp,5,A,Pink_Noise_5_1.wav,Pink_Noise_5_2.wav,,,,,,,,,,,,,,,0,13,13,21,,,,,,,,,,,,,,,,,,,,,,,325.7379825245589,None,327.2220412204042,None,328.60470645688474,None,gold,328.60470645688474,None,return,3.780842276290059,328.6879685809836,None,,,,,,,,,,,,,,,,,,,,,,,,,,,,,,,,,182,001,2024_Mar_11_1214,SpeechDraft1Carolyn_lessNoise_PlusLocalization,2021.2.3,59.94872637814461,
blow.wav,blow.mpg,blow,3,AV,Pink_Noise_3_1.wav,Pink_Noise_3_2.wav,,,,,,,,,,,,,,,0,14,14,98,,,,,,,,,,,,,,,,,,,,,,,332.48803318757564,None,333.9879572149366,None,335.37118162214756,None,blow,335.37118162214756,None,return,3.790183439850807,335.4547043321654,None,,,,,,,,,,,,,,,,,,,,,,,,,,,,,,,,,182,001,2024_Mar_11_1214,SpeechDraft1Carolyn_lessNoise_PlusLocalization,2021.2.3,59.94872637814461,
blend.wav,blend.mpg,blend,1,AV,Pink_Noise_1_1.wav,Pink_Noise_1_2.wav,,,,,,,,,,,,,,,0,15,15,76,,,,,,,,,,,,,,,,,,,,,,,339.2713263044134,None,340.77096767444164,None,342.15445454232395,None,nlend,342.15445454232395,None,return,2.2069043051451445,342.2379936845973,None,,,,,,,,,,,,,,,,,,,,,,,,,,,,,,,,,182,001,2024_Mar_11_1214,SpeechDraft1Carolyn_lessNoise_PlusLocalization,2021.2.3,59.94872637814461,
cow.wav,cow.mpg,cow,2,A,Pink_Noise_2_1.wav,Pink_Noise_2_2.wav,,,,,,,,,,,,,,,0,16,16,4,,,,,,,,,,,,,,,,,,,,,,,344.47119280695915,None,345.9710479779169,None,347.3546703932807,None,"cow
",347.3546703932807,None,return,3.1190358689054847,347.43775738961995,None,,,,,,,,,,,,,,,,,,,,,,,,,,,,,,,,,182,001,2024_Mar_11_1214,SpeechDraft1Carolyn_lessNoise_PlusLocalization,2021.2.3,59.94872637814461,
clap.wav,clap.mpg,clap,4,A,Pink_Noise_4_1.wav,Pink_Noise_4_2.wav,,,,,,,,,,,,,,,0,17,17,51,,,,,,,,,,,,,,,,,,,,,,,350.5878717340529,None,352.08766927570105,None,353.47131633013487,None,clan,353.47131633013487,None,return,3.2663678377866745,353.55452940706164,None,,,,,,,,,,,,,,,,,,,,,,,,,,,,,,,,,182,001,2024_Mar_11_1214,SpeechDraft1Carolyn_lessNoise_PlusLocalization,2021.2.3,59.94872637814461,
cruel.wav,cruel.mpg,cruel,2,A,Pink_Noise_2_1.wav,Pink_Noise_2_2.wav,,,,,,,,,,,,,,,0,18,18,29,,,,,,,,,,,,,,,,,,,,,,,356.83791865222156,None,358.32225829456,None,359.7047546096146,None,"cruel
",359.7047546096146,None,return,2.6168929366394877,359.7879078099504,None,,,,,,,,,,,,,,,,,,,,,,,,,,,,,,,,,182,001,2024_Mar_11_1214,SpeechDraft1Carolyn_lessNoise_PlusLocalization,2021.2.3,59.94872637814461,
ham.wav,ham.mpg,ham,4,AV,Pink_Noise_4_1.wav,Pink_Noise_4_2.wav,,,,,,,,,,,,,,,0,19,19,79,,,,,,,,,,,,,,,,,,,,,,,362.4380001295358,None,363.9224760867655,None,365.3046595156193,None,tam,365.3046595156193,None,return,2.7288704002276063,365.3879226669669,None,,,,,,,,,,,,,,,,,,,,,,,,,,,,,,,,,182,001,2024_Mar_11_1214,SpeechDraft1Carolyn_lessNoise_PlusLocalization,2021.2.3,59.94872637814461,
grind.wav,grind.mpg,grind,3,AV,Pink_Noise_3_1.wav,Pink_Noise_3_2.wav,,,,,,,,,,,,,,,0,20,20,89,,,,,,,,,,,,,,,,,,,,,,,368.13784698490053,None,369.6381271071732,None,371.021158576943,None,grade,371.021158576943,None,return,4.524019791744649,371.1048177406192,None,,,,,,,,,,,,,,,,,,,,,,,,,,,,,,,,,182,001,2024_Mar_11_1214,SpeechDraft1Carolyn_lessNoise_PlusLocalization,2021.2.3,59.94872637814461,
cloth.wav,cloth.mpg,cloth,3,A,Pink_Noise_3_1.wav,Pink_Noise_3_2.wav,,,,,,,,,,,,,,,0,21,21,32,,,,,,,,,,,,,,,,,,,,,,,375.6546675078571,None,377.1545197991654,None,378.53802175819874,None,"soft
",378.53802175819874,None,return,2.383479341864586,378.6213219836354,None,,,,,,,,,,,,,,,,,,,,,,,,,,,,,,,,,182,001,2024_Mar_11_1214,SpeechDraft1Carolyn_lessNoise_PlusLocalization,2021.2.3,59.94872637814461,
toy.wav,toy.mpg,toy,4,AV,Pink_Noise_4_1.wav,Pink_Noise_4_2.wav,,,,,,,,,,,,,,,0,22,22,115,,,,,,,,,,,,,,,,,,,,,,,381.0380353014916,None,382.5387968448922,None,383.9213639739901,None,"prasmge
",383.9213639739901,None,return,5.719995016232133,384.004817343317,None,,,,,,,,,,,,,,,,,,,,,,,,,,,,,,,,,182,001,2024_Mar_11_1214,SpeechDraft1Carolyn_lessNoise_PlusLocalization,2021.2.3,59.94872637814461,
sue.wav,sue.mpg,sue,1,AV,Pink_Noise_1_1.wav,Pink_Noise_1_2.wav,,,,,,,,,,,,,,,0,23,23,96,,,,,,,,,,,,,,,,,,,,,,,389.7547453409061,None,391.25424648821354,None,392.6380719486624,None,swim,392.6380719486624,None,return,4.243352320045233,392.72144791390747,None,,,,,,,,,,,,,,,,,,,,,,,,,,,,,,,,,182,001,2024_Mar_11_1214,SpeechDraft1Carolyn_lessNoise_PlusLocalization,2021.2.3,59.94872637814461,
east.wav,east.mpg,east,5,AV,Pink_Noise_5_1.wav,Pink_Noise_5_2.wav,,,,,,,,,,,,,,,0,24,24,69,,,,,,,,,,,,,,,,,,,,,,,396.98799572326243,None,398.48786565382034,None,399.8713590791449,None,beach,399.8713590791449,None,return,3.746068020351231,399.95481139421463,None,,,,,,,,,,,,,,,,,,,,,,,,,,,,,,,,,182,001,2024_Mar_11_1214,SpeechDraft1Carolyn_lessNoise_PlusLocalization,2021.2.3,59.94872637814461,
duet.wav,duet.mpg,duet,1,A,Pink_Noise_1_1.wav,Pink_Noise_1_2.wav,,,,,,,,,,,,,,,0,25,25,27,,,,,,,,,,,,,,,,,,,,,,,403.7215315522626,None,405.22102807089686,None,406.604776263237,None,duet,406.604776263237,None,return,2.3327308893203735,406.68813393451273,None,,,,,,,,,,,,,,,,,,,,,,,,,,,,,,,,,182,001,2024_Mar_11_1214,SpeechDraft1Carolyn_lessNoise_PlusLocalization,2021.2.3,59.94872637814461,
jam.wav,jam.mpg,jam,5,AV,Pink_Noise_5_1.wav,Pink_Noise_5_2.wav,,,,,,,,,,,,,,,0,26,26,84,,,,,,,,,,,,,,,,,,,,,,,409.0380865968764,None,410.5377974053845,None,411.92147941794246,None,jam,411.92147941794246,None,return,3.3600299628451467,412.00476902350783,None,,,,,,,,,,,,,,,,,,,,,,,,,,,,,,,,,182,001,2024_Mar_11_1214,SpeechDraft1Carolyn_lessNoise_PlusLocalization,2021.2.3,59.94872637814461,
fraud.wav,fraud.mpg,fraud,5,AV,Pink_Noise_5_1.wav,Pink_Noise_5_2.wav,,,,,,,,,,,,,,,0,27,27,63,,,,,,,,,,,,,,,,,,,,,,,415.3880448434502,None,416.8878580601886,None,418.27152551244944,None,fry,418.27152551244944,None,return,2.425942744128406,418.35486476682127,None,,,,,,,,,,,,,,,,,,,,,,,,,,,,,,,,,182,001,2024_Mar_11_1214,SpeechDraft1Carolyn_lessNoise_PlusLocalization,2021.2.3,59.94872637814461,
crawl.wav,crawl.mpg,crawl,3,A,Pink_Noise_3_1.wav,Pink_Noise_3_2.wav,,,,,,,,,,,,,,,0,28,28,57,,,,,,,,,,,,,,,,,,,,,,,420.8049114700407,None,422.30444010719657,None,423.68810301925987,None,strong,423.68810301925987,None,return,3.041260818950832,423.771572384052,None,,,,,,,,,,,,,,,,,,,,,,,,,,,,,,,,,182,001,2024_Mar_11_1214,SpeechDraft1Carolyn_lessNoise_PlusLocalization,2021.2.3,59.94872637814461,
curb.wav,curb.mpg,curb,5,A,Pink_Noise_5_1.wav,Pink_Noise_5_2.wav,,,,,,,,,,,,,,,0,29,29,22,,,,,,,,,,,,,,,,,,,,,,,426.83799774292856,None,428.33819034323096,None,429.72130009904504,None,haor,429.72130009904504,None,return,1.888128767721355,429.80469851661474,None,,,,,,,,,,,,,,,,,,,,,,,,,,,,,,,,,182,001,2024_Mar_11_1214,SpeechDraft1Carolyn_lessNoise_PlusLocalization,2021.2.3,59.94872637814461,
boss.wav,boss.mpg,boss,5,A,Pink_Noise_5_1.wav,Pink_Noise_5_2.wav,,,,,,,,,,,,,,,0,30,30,39,,,,,,,,,,,,,,,,,,,,,,,431.7215199638158,None,433.2210410973057,None,434.6046720184386,None,wasp,434.6046720184386,None,return,2.8768059462308884,434.6880409056321,None,,,,,,,,,,,,,,,,,,,,,,,,,,,,,,,,,182,001,2024_Mar_11_1214,SpeechDraft1Carolyn_lessNoise_PlusLocalization,2021.2.3,59.94872637814461,
crew.wav,crew.mpg,crew,2,AV,Pink_Noise_2_1.wav,Pink_Noise_2_2.wav,,,,,,,,,,,,,,,0,31,31,99,,,,,,,,,,,,,,,,,,,,,,,437.5884075462818,None,439.08777235634625,None,440.4716782718897,None,cruel,440.4716782718897,None,return,2.2501137275248766,440.5547427115962,None,,,,,,,,,,,,,,,,,,,,,,,,,,,,,,,,,182,001,2024_Mar_11_1214,SpeechDraft1Carolyn_lessNoise_PlusLocalization,2021.2.3,59.94872637814461,
cold.wav,cold.mpg,cold,6,AV,Pink_Noise_6_1.wav,Pink_Noise_6_2.wav,,,,,,,,,,,,,,,0,32,32,90,,,,,,,,,,,,,,,,,,,,,,,442.82148093916476,None,444.32105607539415,None,445.70468726567924,None,going,445.70468726567924,None,return,2.888840607367456,445.7880252478644,None,,,,,,,,,,,,,,,,,,,,,,,,,,,,,,,,,182,001,2024_Mar_11_1214,SpeechDraft1Carolyn_lessNoise_PlusLocalization,2021.2.3,59.94872637814461,
groom.wav,groom.mpg,groom,4,A,Pink_Noise_4_1.wav,Pink_Noise_4_2.wav,,,,,,,,,,,,,,,0,33,33,19,,,,,,,,,,,,,,,,,,,,,,,448.7049491042271,None,450.20436917990446,None,451.58834170829505,None,"blend
",451.58834170829505,None,return,3.4372855685651302,451.67153246421367,None,,,,,,,,,,,,,,,,,,,,,,,,,,,,,,,,,182,001,2024_Mar_11_1214,SpeechDraft1Carolyn_lessNoise_PlusLocalization,2021.2.3,59.94872637814461,
dope.wav,dope.mpg,dope,5,AV,Pink_Noise_5_1.wav,Pink_Noise_5_2.wav,,,,,,,,,,,,,,,0,34,34,65,,,,,,,,,,,,,,,,,,,,,,,455.13802801724523,None,456.63799387495965,None,458.021475026384,None,nope,458.021475026384,None,return,4.18802354298532,458.1048032315448,None,,,,,,,,,,,,,,,,,,,,,,,,,,,,,,,,,182,001,2024_Mar_11_1214,SpeechDraft1Carolyn_lessNoise_PlusLocalization,2021.2.3,59.94872637814461,
bay.wav,bay.mpg,bay,2,AV,Pink_Noise_2_1.wav,Pink_Noise_2_2.wav,,,,,,,,,,,,,,,0,35,35,61,,,,,,,,,,,,,,,,,,,,,,,462.3214514805004,None,463.82127794250846,None,465.20472826063633,None,bay,465.20472826063633,None,return,3.7088197795674205,465.2879797583446,None,,,,,,,,,,,,,,,,,,,,,,,,,,,,,,,,,182,001,2024_Mar_11_1214,SpeechDraft1Carolyn_lessNoise_PlusLocalization,2021.2.3,59.94872637814461,
gaze.wav,gaze.mpg,gaze,5,A,Pink_Noise_5_1.wav,Pink_Noise_5_2.wav,,,,,,,,,,,,,,,0,36,36,2,,,,,,,,,,,,,,,,,,,,,,,469.02170885074884,None,470.52142483741045,None,471.90464393794537,None,feirce,471.90464393794537,None,return,3.5285929534584284,471.9882215783,None,,,,,,,,,,,,,,,,,,,,,,,,,,,,,,,,,182,001,2024_Mar_11_1214,SpeechDraft1Carolyn_lessNoise_PlusLocalization,2021.2.3,59.94872637814461,
fine.wav,fine.mpg,fine,2,AV,Pink_Noise_2_1.wav,Pink_Noise_2_2.wav,,,,,,,,,,,,,,,0,37,37,81,,,,,,,,,,,,,,,,,,,,,,,475.538308554329,None,477.0378979668021,None,478.421381467022,None,frame,478.421381467022,None,return,2.5320164719596505,478.5048763612285,None,,,,,,,,,,,,,,,,,,,,,,,,,,,,,,,,,182,001,2024_Mar_11_1214,SpeechDraft1Carolyn_lessNoise_PlusLocalization,2021.2.3,59.94872637814461,
fate.wav,fate.mpg,fate,2,AV,Pink_Noise_2_1.wav,Pink_Noise_2_2.wav,,,,,,,,,,,,,,,0,38,38,97,,,,,,,,,,,,,,,,,,,,,,,481.05495203845203,None,482.55435097031295,None,483.93797371629626,None,fate,483.93797371629626,None,return,5.415335210040212,484.0216001775116,None,,,,,,,,,,,,,,,,,,,,,,,,,,,,,,,,,182,001,2024_Mar_11_1214,SpeechDraft1Carolyn_lessNoise_PlusLocalization,2021.2.3,59.94872637814461,
cup.wav,cup.mpg,cup,2,AV,Pink_Noise_2_1.wav,Pink_Noise_2_2.wav,,,,,,,,,,,,,,,0,39,39,118,,,,,,,,,,,,,,,,,,,,,,,489.45489184651524,None,490.9547835830599,None,492.338202919811,None,"cup
",492.338202919811,None,return,4.367364504374564,492.4214444672689,None,,,,,,,,,,,,,,,,,,,,,,,,,,,,,,,,,182,001,2024_Mar_11_1214,SpeechDraft1Carolyn_lessNoise_PlusLocalization,2021.2.3,59.94872637814461,
dense.wav,dense.mpg,dense,5,AV,Pink_Noise_5_1.wav,Pink_Noise_5_2.wav,,,,,,,,,,,,,,,0,40,40,85,,,,,,,,,,,,,,,,,,,,,,,496.82169726956636,None,498.3211259813979,None,499.7048379201442,None,mext,499.7048379201442,None,return,3.2325424822047353,499.7883688258007,None,,,,,,,,,,,,,,,,,,,,,,,,,,,,,,,,,182,001,2024_Mar_11_1214,SpeechDraft1Carolyn_lessNoise_PlusLocalization,2021.2.3,59.94872637814461,
row.wav,row.mpg,row,4,A,Pink_Noise_4_1.wav,Pink_Noise_4_2.wav,,,,,,,,,,,,,,,0,41,41,53,,,,,,,,,,,,,,,,,,,,,,,503.0382398655638,None,504.5378038678318,None,505.92139878869057,None,robe,505.92139878869057,None,return,2.199855695478618,506.00498994719237,None,,,,,,,,,,,,,,,,,,,,,,,,,,,,,,,,,182,001,2024_Mar_11_1214,SpeechDraft1Carolyn_lessNoise_PlusLocalization,2021.2.3,59.94872637814461,
file.wav,file.mpg,file,4,A,Pink_Noise_4_1.wav,Pink_Noise_4_2.wav,,,,,,,,,,,,,,,0,42,42,25,,,,,,,,,,,,,,,,,,,,,,,508.2215834101662,None,509.72127675917,None,511.1049585621804,None,fire,511.1049585621804,None,return,1.8884698953479528,511.1884114528075,None,,,,,,,,,,,,,,,,,,,,,,,,,,,,,,,,,182,001,2024_Mar_11_1214,SpeechDraft1Carolyn_lessNoise_PlusLocalization,2021.2.3,59.94872637814461,
cord.wav,cord.mpg,cord,1,A,Pink_Noise_1_1.wav,Pink_Noise_1_2.wav,,,,,,,,,,,,,,,0,43,43,40,,,,,,,,,,,,,,,,,,,,,,,513.1048358129337,None,514.6212628064677,None,516.0049690455198,None,"court
",516.0049690455198,None,return,3.5007359413430095,516.0880628172308,None,,,,,,,,,,,,,,,,,,,,,,,,,,,,,,,,,182,001,2024_Mar_11_1214,SpeechDraft1Carolyn_lessNoise_PlusLocalization,2021.2.3,59.94872637814461,
cheek.wav,cheek.mpg,cheek,4,A,Pink_Noise_4_1.wav,Pink_Noise_4_2.wav,,,,,,,,,,,,,,,0,44,44,23,,,,,,,,,,,,,,,,,,,,,,,519.6217428613454,None,521.1214148392901,None,522.5049358978868,None,change,522.5049358978868,None,return,2.8408832559362054,522.5880294684321,None,,,,,,,,,,,,,,,,,,,,,,,,,,,,,,,,,182,001,2024_Mar_11_1214,SpeechDraft1Carolyn_lessNoise_PlusLocalization,2021.2.3,59.94872637814461,
grunt.wav,grunt.mpg,grunt,6,A,Pink_Noise_6_1.wav,Pink_Noise_6_2.wav,,,,,,,,,,,,,,,0,45,45,54,,,,,,,,,,,,,,,,,,,,,,,525.454843278043,None,526.954634767957,None,528.3384070005268,None,lunch,528.3384070005268,None,return,6.271231632679701,528.4215748375282,None,,,,,,,,,,,,,,,,,,,,,,,,,,,,,,,,,182,001,2024_Mar_11_1214,SpeechDraft1Carolyn_lessNoise_PlusLocalization,2021.2.3,59.94872637814461,
glad.wav,glad.mpg,glad,6,AV,Pink_Noise_6_1.wav,Pink_Noise_6_2.wav,,,,,,,,,,,,,,,0,46,46,83,,,,,,,,,,,,,,,,,,,,,,,534.7218855796382,None,536.2213833713904,None,537.6047433596104,None,glass,537.6047433596104,None,return,3.9967577634379268,537.6881201481447,None,,,,,,,,,,,,,,,,,,,,,,,,,,,,,,,,,182,001,2024_Mar_11_1214,SpeechDraft1Carolyn_lessNoise_PlusLocalization,2021.2.3,59.94872637814461,
flop.wav,flop.mpg,flop,6,A,Pink_Noise_6_1.wav,Pink_Noise_6_2.wav,,,,,,,,,,,,,,,0,47,47,52,,,,,,,,,,,,,,,,,,,,,,,541.7048304425552,None,543.2046188982204,None,544.588331354782,None,wrote,544.588331354782,None,return,3.1493018083274364,544.6716788969934,None,,,,,,,,,,,,,,,,,,,,,,,,,,,,,,,,,182,001,2024_Mar_11_1214,SpeechDraft1Carolyn_lessNoise_PlusLocalization,2021.2.3,59.94872637814461,
read.wav,read.mpg,read,6,A,Pink_Noise_6_1.wav,Pink_Noise_6_2.wav,,,,,,,,,,,,,,,0,48,48,17,,,,,,,,,,,,,,,,,,,,,,,547.8380037192255,None,549.3377902153879,None,550.7217196738347,None,mear,550.7217196738347,None,return,4.511803591623902,550.8050132468343,None,,,,,,,,,,,,,,,,,,,,,,,,,,,,,,,,,182,001,2024_Mar_11_1214,SpeechDraft1Carolyn_lessNoise_PlusLocalization,2021.2.3,59.94872637814461,
friend.wav,friend.mpg,friend,6,AV,Pink_Noise_6_1.wav,Pink_Noise_6_2.wav,,,,,,,,,,,,,,,0,49,49,74,,,,,,,,,,,,,,,,,,,,,,,555.3381832083687,None,556.8380977855995,None,558.2213674560189,None,gave,558.2213674560189,None,return,1.7241379199549556,558.3047866886482,None,,,,,,,,,,,,,,,,,,,,,,,,,,,,,,,,,182,001,2024_Mar_11_1214,SpeechDraft1Carolyn_lessNoise_PlusLocalization,2021.2.3,59.94872637814461,
duke.wav,duke.mpg,duke,1,AV,Pink_Noise_1_1.wav,Pink_Noise_1_2.wav,,,,,,,,,,,,,,,0,50,50,117,,,,,,,,,,,,,,,,,,,,,,,560.0549708744511,None,561.571303662844,None,562.9548647366464,None,dule,562.9548647366464,None,return,2.0304306810721755,563.0383744779974,None,,,,,,,,,,,,,,,,,,,,,,,,,,,,,,,,,182,001,2024_Mar_11_1214,SpeechDraft1Carolyn_lessNoise_PlusLocalization,2021.2.3,59.94872637814461,
gate.wav,gate.mpg,gate,2,AV,Pink_Noise_2_1.wav,Pink_Noise_2_2.wav,,,,,,,,,,,,,,,0,51,51,105,,,,,,,,,,,,,,,,,,,,,,,565.088282099925,None,566.587988213636,None,567.9716325495392,None,gate,567.9716325495392,None,return,13.261974743567407,568.0548431919888,None,,,,,,,,,,,,,,,,,,,,,,,,,,,,,,,,,182,001,2024_Mar_11_1214,SpeechDraft1Carolyn_lessNoise_PlusLocalization,2021.2.3,59.94872637814461,
grand.wav,grand.mpg,grand,1,AV,Pink_Noise_1_1.wav,Pink_Noise_1_2.wav,,,,,,,,,,,,,,,0,52,52,110,,,,,,,,,,,,,,,,,,,,,,,581.3383349785581,None,582.8547615818679,None,584.2216770006344,None,grand,584.2216770006344,None,return,6.515945726074278,584.3049411177635,None,,,,,,,,,,,,,,,,,,,,,,,,,,,,,,,,,182,001,2024_Mar_11_1214,SpeechDraft1Carolyn_lessNoise_PlusLocalization,2021.2.3,59.94872637814461,
faint.wav,faint.mpg,faint,4,AV,Pink_Noise_4_1.wav,Pink_Noise_4_2.wav,,,,,,,,,,,,,,,0,53,53,95,,,,,,,,,,,,,,,,,,,,,,,590.8383070006967,None,592.337963256985,None,593.7215641979128,None,vet,593.7215641979128,None,return,1.8876185473054647,593.8051826013252,None,,,,,,,,,,,,,,,,,,,,,,,,,,,,,,,,,182,001,2024_Mar_11_1214,SpeechDraft1Carolyn_lessNoise_PlusLocalization,2021.2.3,59.94872637814461,
pledge.wav,pledge.mpg,pledge,6,AV,Pink_Noise_6_1.wav,Pink_Noise_6_2.wav,,,,,,,,,,,,,,,0,54,54,73,,,,,,,,,,,,,,,,,,,,,,,595.7218378614634,None,597.2211673399433,None,598.6050112806261,None,n;ache,598.6050112806261,None,return,6.6124551156535745,598.6883996874094,None,,,,,,,,,,,,,,,,,,,,,,,,,,,,,,,,,182,001,2024_Mar_11_1214,SpeechDraft1Carolyn_lessNoise_PlusLocalization,2021.2.3,59.94872637814461,
crush.wav,crush.mpg,crush,4,AV,Pink_Noise_4_1.wav,Pink_Noise_4_2.wav,,,,,,,,,,,,,,,0,55,55,101,,,,,,,,,,,,,,,,,,,,,,,605.3216681247577,None,606.8217092817649,None,608.2049899846315,None,crush,608.2049899846315,None,return,8.092519352212548,608.2882890347391,None,,,,,,,,,,,,,,,,,,,,,,,,,,,,,,,,,182,001,2024_Mar_11_1214,SpeechDraft1Carolyn_lessNoise_PlusLocalization,2021.2.3,59.94872637814461,
draft.wav,draft.mpg,draft,3,A,Pink_Noise_3_1.wav,Pink_Noise_3_2.wav,,,,,,,,,,,,,,,0,56,56,50,,,,,,,,,,,,,,,,,,,,,,,616.4049793109298,None,617.9046854292974,None,619.2883460698649,None,dry,619.2883460698649,None,return,1.8970894776284695,619.3717603189871,None,,,,,,,,,,,,,,,,,,,,,,,,,,,,,,,,,182,001,2024_Mar_11_1214,SpeechDraft1Carolyn_lessNoise_PlusLocalization,2021.2.3,59.94872637814461,
fade.wav,fade.mpg,fade,6,A,Pink_Noise_6_1.wav,Pink_Noise_6_2.wav,,,,,,,,,,,,,,,0,57,57,3,,,,,,,,,,,,,,,,,,,,,,,621.2886269632727,None,622.7880839966238,None,624.1718682358041,None,"face
",624.1718682358041,None,return,1.8698187470436096,624.2550095198676,None,,,,,,,,,,,,,,,,,,,,,,,,,,,,,,,,,182,001,2024_Mar_11_1214,SpeechDraft1Carolyn_lessNoise_PlusLocalization,2021.2.3,59.94872637814461,
fluff.wav,fluff.mpg,fluff,3,AV,Pink_Noise_3_1.wav,Pink_Noise_3_2.wav,,,,,,,,,,,,,,,0,58,58,62,,,,,,,,,,,,,,,,,,,,,,,626.1551086883992,None,627.6547618722543,None,629.0384615436196,None,fluff,629.0384615436196,None,return,7.763016578741372,629.1218753755093,None,,,,,,,,,,,,,,,,,,,,,,,,,,,,,,,,,182,001,2024_Mar_11_1214,SpeechDraft1Carolyn_lessNoise_PlusLocalization,2021.2.3,59.94872637814461,
eve.wav,eve.mpg,eve,4,AV,Pink_Noise_4_1.wav,Pink_Noise_4_2.wav,,,,,,,,,,,,,,,0,59,59,87,,,,,,,,,,,,,,,,,,,,,,,636.9050266109407,None,638.4213414676487,None,639.7882716516033,None,;eave,639.7882716516033,None,return,2.2132750507444143,639.871609384194,None,,,,,,,,,,,,,,,,,,,,,,,,,,,,,,,,,182,001,2024_Mar_11_1214,SpeechDraft1Carolyn_lessNoise_PlusLocalization,2021.2.3,59.94872637814461,
boost.wav,boost.mpg,boost,5,AV,Pink_Noise_5_1.wav,Pink_Noise_5_2.wav,,,,,,,,,,,,,,,0,60,60,107,,,,,,,,,,,,,,,,,,,,,,,642.1050561359152,None,643.6047001322731,None,644.98840486072,None,nppst,644.98840486072,None,return,3.1332765528932214,645.0716017438099,None,,,,,,,,,,,,,,,,,,,,,,,,,,,,,,,,,182,001,2024_Mar_11_1214,SpeechDraft1Carolyn_lessNoise_PlusLocalization,2021.2.3,59.94872637814461,
rent.wav,rent.mpg,rent,2,A,Pink_Noise_2_1.wav,Pink_Noise_2_2.wav,,,,,,,,,,,,,,,0,61,61,56,,,,,,,,,,,,,,,,,,,,,,,648.2219325583428,None,649.721386323683,None,651.1053206576034,None,remt,651.1053206576034,None,return,1.1924716597422957,651.188429735601,None,,,,,,,,,,,,,,,,,,,,,,,,,,,,,,,,,182,001,2024_Mar_11_1214,SpeechDraft1Carolyn_lessNoise_PlusLocalization,2021.2.3,59.94872637814461,
bail.wav,bail.mpg,bail,4,A,Pink_Noise_4_1.wav,Pink_Noise_4_2.wav,,,,,,,,,,,,,,,0,62,62,41,,,,,,,,,,,,,,,,,,,,,,,652.4051089659333,None,653.9050094224513,None,655.2886083759367,None,near,655.2886083759367,None,return,1.2091534323990345,655.3716718126088,None,,,,,,,,,,,,,,,,,,,,,,,,,,,,,,,,,182,001,2024_Mar_11_1214,SpeechDraft1Carolyn_lessNoise_PlusLocalization,2021.2.3,59.94872637814461,
clam.wav,clam.mpg,clam,1,AV,Pink_Noise_1_1.wav,Pink_Noise_1_2.wav,,,,,,,,,,,,,,,0,63,63,70,,,,,,,,,,,,,,,,,,,,,,,656.6049299482256,None,658.1214232034981,None,659.5050434414297,None,"c;a,",659.5050434414297,None,return,1.312273089773953,659.5885545909405,None,,,,,,,,,,,,,,,,,,,,,,,,,,,,,,,,,182,001,2024_Mar_11_1214,SpeechDraft1Carolyn_lessNoise_PlusLocalization,2021.2.3,59.94872637814461,
please.wav,please.mpg,please,5,AV,Pink_Noise_5_1.wav,Pink_Noise_5_2.wav,,,,,,,,,,,,,,,0,64,64,80,,,,,,,,,,,,,,,,,,,,,,,660.9219313273206,None,662.4217317160219,None,663.8050922686234,None,neasy,663.8050922686234,None,return,2.0204110918566585,663.8883920945227,None,,,,,,,,,,,,,,,,,,,,,,,,,,,,,,,,,182,001,2024_Mar_11_1214,SpeechDraft1Carolyn_lessNoise_PlusLocalization,2021.2.3,59.94872637814461,
brag.wav,brag.mpg,brag,1,A,Pink_Noise_1_1.wav,Pink_Noise_1_2.wav,,,,,,,,,,,,,,,0,65,65,1,,,,,,,,,,,,,,,,,,,,,,,665.9385825265199,None,667.4398398604244,None,668.8216738840565,None,brag,668.8216738840565,None,return,3.6278360057622194,668.9049740433693,None,,,,,,,,,,,,,,,,,,,,,,,,,,,,,,,,,182,001,2024_Mar_11_1214,SpeechDraft1Carolyn_lessNoise_PlusLocalization,2021.2.3,59.94872637814461,
blast.wav,blast.mpg,blast,1,AV,Pink_Noise_1_1.wav,Pink_Noise_1_2.wav,,,,,,,,,,,,,,,0,66,66,77,,,,,,,,,,,,,,,,,,,,,,,672.5551219582558,None,674.0547238923609,None,675.4382767230272,None,blast,675.4382767230272,None,return,4.29900421295315,675.5218909624964,None,,,,,,,,,,,,,,,,,,,,,,,,,,,,,,,,,182,001,2024_Mar_11_1214,SpeechDraft1Carolyn_lessNoise_PlusLocalization,2021.2.3,59.94872637814461,
book.wav,book.mpg,book,3,A,Pink_Noise_3_1.wav,Pink_Noise_3_2.wav,,,,,,,,,,,,,,,0,67,67,43,,,,,,,,,,,,,,,,,,,,,,,679.8384509654716,None,681.3381063612178,None,682.7219157433137,None,booj,682.7219157433137,None,return,2.5437570940703154,682.8050424279645,None,,,,,,,,,,,,,,,,,,,,,,,,,,,,,,,,,182,001,2024_Mar_11_1214,SpeechDraft1Carolyn_lessNoise_PlusLocalization,2021.2.3,59.94872637814461,
fail.wav,fail.mpg,fail,2,A,Pink_Noise_2_1.wav,Pink_Noise_2_2.wav,,,,,,,,,,,,,,,0,68,68,9,,,,,,,,,,,,,,,,,,,,,,,685.3718298580498,None,686.872345559299,None,688.2552197789773,None,fail,688.2552197789773,None,return,4.410498946905136,688.3383502783254,None,,,,,,,,,,,,,,,,,,,,,,,,,,,,,,,,,182,001,2024_Mar_11_1214,SpeechDraft1Carolyn_lessNoise_PlusLocalization,2021.2.3,59.94872637814461,
frame.wav,frame.mpg,frame,6,A,Pink_Noise_6_1.wav,Pink_Noise_6_2.wav,,,,,,,,,,,,,,,0,69,69,35,,,,,,,,,,,,,,,,,,,,,,,692.7717916015536,None,694.2715103244409,None,695.6550752772018,None,throw,695.6550752772018,None,return,3.106269869953394,695.7386557348073,None,,,,,,,,,,,,,,,,,,,,,,,,,,,,,,,,,182,001,2024_Mar_11_1214,SpeechDraft1Carolyn_lessNoise_PlusLocalization,2021.2.3,59.94872637814461,
dock.wav,dock.mpg,dock,6,AV,Pink_Noise_6_1.wav,Pink_Noise_6_2.wav,,,,,,,,,,,,,,,0,70,70,66,,,,,,,,,,,,,,,,,,,,,,,698.8718763757497,None,700.3732065167278,None,701.7551920637488,None,spck,701.7551920637488,None,return,2.198362381197512,701.838529095985,None,,,,,,,,,,,,,,,,,,,,,,,,,,,,,,,,,182,001,2024_Mar_11_1214,SpeechDraft1Carolyn_lessNoise_PlusLocalization,2021.2.3,59.94872637814461,
tomb.wav,tomb.mpg,tomb,3,AV,Pink_Noise_3_1.wav,Pink_Noise_3_2.wav,,,,,,,,,,,,,,,0,71,71,75,,,,,,,,,,,,,,,,,,,,,,,704.055326028727,None,705.5549595868215,None,706.9384458642453,None,twp,706.9384458642453,None,return,1.806999729014933,707.02189359162,None,,,,,,,,,,,,,,,,,,,,,,,,,,,,,,,,,182,001,2024_Mar_11_1214,SpeechDraft1Carolyn_lessNoise_PlusLocalization,2021.2.3,59.94872637814461,
deem.wav,deem.mpg,deem,2,A,Pink_Noise_2_1.wav,Pink_Noise_2_2.wav,,,,,,,,,,,,,,,0,72,72,16,,,,,,,,,,,,,,,,,,,,,,,708.8553007952869,None,710.3717853277922,None,711.7552701896057,None,"dee,",711.7552701896057,None,return,1.5904949428513646,711.8384125418961,None,,,,,,,,,,,,,,,,,,,,,,,,,,,,,,,,,182,001,2024_Mar_11_1214,SpeechDraft1Carolyn_lessNoise_PlusLocalization,2021.2.3,59.94872637814461,
chop.wav,chop.mpg,chop,2,A,Pink_Noise_2_1.wav,Pink_Noise_2_2.wav,,,,,,,,,,,,,,,0,73,73,45,,,,,,,,,,,,,,,,,,,,,,,713.4551080344245,None,714.9548038821667,None,716.3385350489989,None,chapped,716.3385350489989,None,return,9.855033707804978,716.4218473685905,None,,,,,,,,,,,,,,,,,,,,,,,,,,,,,,,,,182,001,2024_Mar_11_1214,SpeechDraft1Carolyn_lessNoise_PlusLocalization,2021.2.3,59.94872637814461,
beige.wav,beige.mpg,beige,2,AV,Pink_Noise_2_1.wav,Pink_Noise_2_2.wav,,,,,,,,,,,,,,,0,74,74,91,,,,,,,,,,,,,,,,,,,,,,,726.3052883464843,None,727.8062066202983,None,729.1884886305779,None,beige,729.1884886305779,None,return,7.14118436537683,729.2716121803969,None,,,,,,,,,,,,,,,,,,,,,,,,,,,,,,,,,182,001,2024_Mar_11_1214,SpeechDraft1Carolyn_lessNoise_PlusLocalization,2021.2.3,59.94872637814461,
coat.wav,coat.mpg,coat,1,AV,Pink_Noise_1_1.wav,Pink_Noise_1_2.wav,,,,,,,,,,,,,,,0,75,75,104,,,,,,,,,,,,,,,,,,,,,,,736.4384134039283,None,737.9548506755382,None,739.32188058272,None,coat,739.32188058272,None,return,6.311764460988343,739.4050413267687,None,,,,,,,,,,,,,,,,,,,,,,,,,,,,,,,,,182,001,2024_Mar_11_1214,SpeechDraft1Carolyn_lessNoise_PlusLocalization,2021.2.3,59.94872637814461,
die.wav,die.mpg,die,4,A,Pink_Noise_4_1.wav,Pink_Noise_4_2.wav,,,,,,,,,,,,,,,0,76,76,26,,,,,,,,,,,,,,,,,,,,,,,745.7386731216684,None,747.2380407573655,None,748.6217129193246,None,"sark
",748.6217129193246,None,return,3.4834907222539186,748.7053101332858,None,,,,,,,,,,,,,,,,,,,,,,,,,,,,,,,,,182,001,2024_Mar_11_1214,SpeechDraft1Carolyn_lessNoise_PlusLocalization,2021.2.3,59.94872637814461,
roast.wav,roast.mpg,roast,4,A,Pink_Noise_4_1.wav,Pink_Noise_4_2.wav,,,,,,,,,,,,,,,0,77,77,6,,,,,,,,,,,,,,,,,,,,,,,752.221746250987,None,753.7215533498675,None,755.1065250495449,None,ghost,755.1065250495449,None,return,10.560187011025846,755.1886114971712,None,,,,,,,,,,,,,,,,,,,,,,,,,,,,,,,,,182,001,2024_Mar_11_1214,SpeechDraft1Carolyn_lessNoise_PlusLocalization,2021.2.3,59.94872637814461,
shut.wav,shut.mpg,shut,3,AV,Pink_Noise_3_1.wav,Pink_Noise_3_2.wav,,,,,,,,,,,,,,,0,78,78,100,,,,,,,,,,,,,,,,,,,,,,,765.7719933055341,None,767.2884899089113,None,768.6718938136473,None,shut,768.6718938136473,None,return,2.7775528794154525,768.7552720969543,None,,,,,,,,,,,,,,,,,,,,,,,,,,,,,,,,,182,001,2024_Mar_11_1214,SpeechDraft1Carolyn_lessNoise_PlusLocalization,2021.2.3,59.94872637814461,
flee.wav,flee.mpg,flee,5,AV,Pink_Noise_5_1.wav,Pink_Noise_5_2.wav,,,,,,,,,,,,,,,0,79,79,68,,,,,,,,,,,,,,,,,,,,,,,771.5555314691737,None,773.056160563603,None,774.4387522907928,None,flee,774.4387522907928,None,return,3.363124992698431,774.5217665331438,None,,,,,,,,,,,,,,,,,,,,,,,,,,,,,,,,,182,001,2024_Mar_11_1214,SpeechDraft1Carolyn_lessNoise_PlusLocalization,2021.2.3,59.94872637814461,
brash.wav,brash.mpg,brash,1,A,Pink_Noise_1_1.wav,Pink_Noise_1_2.wav,,,,,,,,,,,,,,,0,80,80,46,,,,,,,,,,,,,,,,,,,,,,,777.9054405912757,None,779.4048105664551,None,780.7887419229373,None,brush,780.7887419229373,None,return,3.820962881669402,780.8718399619684,None,,,,,,,,,,,,,,,,,,,,,,,,,,,,,,,,,182,001,2024_Mar_11_1214,SpeechDraft1Carolyn_lessNoise_PlusLocalization,2021.2.3,59.94872637814461,
grail.wav,grail.mpg,grail,3,A,Pink_Noise_3_1.wav,Pink_Noise_3_2.wav,,,,,,,,,,,,,,,0,81,81,42,,,,,,,,,,,,,,,,,,,,,,,784.7219040496275,None,786.221385743469,None,787.6053663045168,None,grand,787.6053663045168,None,return,1.908202612772584,787.6886051632464,None,,,,,,,,,,,,,,,,,,,,,,,,,,,,,,,,,182,001,2024_Mar_11_1214,SpeechDraft1Carolyn_lessNoise_PlusLocalization,2021.2.3,59.94872637814461,
hug.wav,hug.mpg,hug,6,A,Pink_Noise_6_1.wav,Pink_Noise_6_2.wav,,,,,,,,,,,,,,,0,82,82,14,,,,,,,,,,,,,,,,,,,,,,,789.6219481565058,None,791.1381611013785,None,792.5220014164224,None,white,792.5220014164224,None,return,2.3433973398059607,792.6053925277665,None,,,,,,,,,,,,,,,,,,,,,,,,,,,,,,,,,182,001,2024_Mar_11_1214,SpeechDraft1Carolyn_lessNoise_PlusLocalization,2021.2.3,59.94872637814461,
tart.wav,tart.mpg,tart,6,A,Pink_Noise_6_1.wav,Pink_Noise_6_2.wav,,,,,,,,,,,,,,,0,83,83,36,,,,,,,,,,,,,,,,,,,,,,,794.9719950789586,None,796.4882964985445,None,797.8721836348996,None,hair,797.8721836348996,None,return,3.8094677478075027,797.9553204253316,None,,,,,,,,,,,,,,,,,,,,,,,,,,,,,,,,,182,001,2024_Mar_11_1214,SpeechDraft1Carolyn_lessNoise_PlusLocalization,2021.2.3,59.94872637814461,
fur.wav,fur.mpg,fur,4,AV,Pink_Noise_4_1.wav,Pink_Noise_4_2.wav,,,,,,,,,,,,,,,0,84,84,119,,,,,,,,,,,,,,,,,,,,,,,801.7887558378279,None,803.3048060443252,None,804.688700357452,None,"fir
",804.688700357452,None,return,1.3528255596756935,804.7720049349591,None,,,,,,,,,,,,,,,,,,,,,,,,,,,,,,,,,182,001,2024_Mar_11_1214,SpeechDraft1Carolyn_lessNoise_PlusLocalization,2021.2.3,59.94872637814461,
edge.wav,edge.mpg,edge,6,AV,Pink_Noise_6_1.wav,Pink_Noise_6_2.wav,,,,,,,,,,,,,,,0,85,85,112,,,,,,,,,,,,,,,,,,,,,,,806.1553723709658,None,807.6572549557313,None,809.0386234549806,None,"edge
",809.0386234549806,None,return,7.219004523009062,809.1218085866421,None,,,,,,,,,,,,,,,,,,,,,,,,,,,,,,,,,182,001,2024_Mar_11_1214,SpeechDraft1Carolyn_lessNoise_PlusLocalization,2021.2.3,59.94872637814461,
fast.wav,fast.mpg,fast,6,AV,Pink_Noise_6_1.wav,Pink_Noise_6_2.wav,,,,,,,,,,,,,,,0,86,86,86,,,,,,,,,,,,,,,,,,,,,,,816.3720803465694,None,817.8883824395016,None,819.2719436911866,None,hast,819.2719436911866,None,return,2.5376174468547106,819.3551860451698,None,,,,,,,,,,,,,,,,,,,,,,,,,,,,,,,,,182,001,2024_Mar_11_1214,SpeechDraft1Carolyn_lessNoise_PlusLocalization,2021.2.3,59.94872637814461,
gush.wav,gush.mpg,gush,5,AV,Pink_Noise_5_1.wav,Pink_Noise_5_2.wav,,,,,,,,,,,,,,,0,87,87,71,,,,,,,,,,,,,,,,,,,,,,,821.921912221238,None,823.4215503623709,None,824.8051725262776,None,gush,824.8051725262776,None,return,3.644055774435401,824.8887507487088,None,,,,,,,,,,,,,,,,,,,,,,,,,,,,,,,,,182,001,2024_Mar_11_1214,SpeechDraft1Carolyn_lessNoise_PlusLocalization,2021.2.3,59.94872637814461,
frog.wav,frog.mpg,frog,1,A,Pink_Noise_1_1.wav,Pink_Noise_1_2.wav,,,,,,,,,,,,,,,0,88,88,58,,,,,,,,,,,,,,,,,,,,,,,828.5553234340623,None,830.0719994492829,None,831.4553244756535,None,frog,831.4553244756535,None,return,3.71441884431988,831.5384521512315,None,,,,,,,,,,,,,,,,,,,,,,,,,,,,,,,,,182,001,2024_Mar_11_1214,SpeechDraft1Carolyn_lessNoise_PlusLocalization,2021.2.3,59.94872637814461,
eye.wav,eye.mpg,eye,2,A,Pink_Noise_2_1.wav,Pink_Noise_2_2.wav,,,,,,,,,,,,,,,0,89,89,8,,,,,,,,,,,,,,,,,,,,,,,835.2718417132273,None,836.7727118758485,None,838.1554141389206,None,eye,838.1554141389206,None,return,0.8780763326212764,838.2387536540627,None,,,,,,,,,,,,,,,,,,,,,,,,,,,,,,,,,182,001,2024_Mar_11_1214,SpeechDraft1Carolyn_lessNoise_PlusLocalization,2021.2.3,59.94872637814461,
bond.wav,bond.mpg,bond,1,AV,Pink_Noise_1_1.wav,Pink_Noise_1_2.wav,,,,,,,,,,,,,,,0,90,90,92,,,,,,,,,,,,,,,,,,,,,,,839.1388056473807,None,840.6397525519133,None,842.0221350733191,None,band,842.0221350733191,None,return,6.699397064745426,842.1054485654458,None,,,,,,,,,,,,,,,,,,,,,,,,,,,,,,,,,182,001,2024_Mar_11_1214,SpeechDraft1Carolyn_lessNoise_PlusLocalization,2021.2.3,59.94872637814461,
broke.wav,broke.mpg,broke,2,A,Pink_Noise_2_1.wav,Pink_Noise_2_2.wav,,,,,,,,,,,,,,,0,91,91,44,,,,,,,,,,,,,,,,,,,,,,,848.822039950639,None,850.3381583299488,None,851.7218938153237,None,broke,851.7218938153237,None,return,1.99137700535357,851.8054214995354,None,,,,,,,,,,,,,,,,,,,,,,,,,,,,,,,,,182,001,2024_Mar_11_1214,SpeechDraft1Carolyn_lessNoise_PlusLocalization,2021.2.3,59.94872637814461,
thrown.wav,thrown.mpg,thrown,1,A,Pink_Noise_1_1.wav,Pink_Noise_1_2.wav,,,,,,,,,,,,,,,0,92,92,49,,,,,,,,,,,,,,,,,,,,,,,853.8220334732905,None,855.3217985052615,None,856.7052843738347,None,throw,856.7052843738347,None,return,1.2399121820926666,856.7889846069738,None,,,,,,,,,,,,,,,,,,,,,,,,,,,,,,,,,182,001,2024_Mar_11_1214,SpeechDraft1Carolyn_lessNoise_PlusLocalization,2021.2.3,59.94872637814461,
glide.wav,glide.mpg,glide,2,AV,Pink_Noise_2_1.wav,Pink_Noise_2_2.wav,,,,,,,,,,,,,,,0,93,93,93,,,,,,,,,,,,,,,,,,,,,,,858.0554338926449,None,859.5550014870241,None,860.9387205168605,None,glide,860.9387205168605,None,return,1.7909673964604735,861.0218998705968,None,,,,,,,,,,,,,,,,,,,,,,,,,,,,,,,,,182,001,2024_Mar_11_1214,SpeechDraft1Carolyn_lessNoise_PlusLocalization,2021.2.3,59.94872637814461,
chip.wav,chip.mpg,chip,6,A,Pink_Noise_6_1.wav,Pink_Noise_6_2.wav,,,,,,,,,,,,,,,0,94,94,5,,,,,,,,,,,,,,,,,,,,,,,862.8388354238123,None,864.3568524513394,None,865.7387793883681,None,jump,865.7387793883681,None,return,2.910925766453147,865.8218747843057,None,,,,,,,,,,,,,,,,,,,,,,,,,,,,,,,,,182,001,2024_Mar_11_1214,SpeechDraft1Carolyn_lessNoise_PlusLocalization,2021.2.3,59.94872637814461,
cell.wav,cell.mpg,cell,3,A,Pink_Noise_3_1.wav,Pink_Noise_3_2.wav,,,,,,,,,,,,,,,0,95,95,38,,,,,,,,,,,,,,,,,,,,,,,868.7555192802101,None,870.2717983564362,None,871.65550450515,None,sell,871.65550450515,None,return,2.1460907934233546,871.7387673240155,None,,,,,,,,,,,,,,,,,,,,,,,,,,,,,,,,,182,001,2024_Mar_11_1214,SpeechDraft1Carolyn_lessNoise_PlusLocalization,2021.2.3,59.94872637814461,
beer.wav,beer.mpg,beer,1,A,Pink_Noise_1_1.wav,Pink_Noise_1_2.wav,,,,,,,,,,,,,,,0,96,96,10,,,,,,,,,,,,,,,,,,,,,,,873.9052788484842,None,875.4053615108132,None,876.7888272190467,None,beer,876.7888272190467,None,return,1.0127788865938783,876.8720715409145,None,,,,,,,,,,,,,,,,,,,,,,,,,,,,,,,,,182,001,2024_Mar_11_1214,SpeechDraft1Carolyn_lessNoise_PlusLocalization,2021.2.3,59.94872637814461,
eel.wav,eel.mpg,eel,3,AV,Pink_Noise_3_1.wav,Pink_Noise_3_2.wav,,,,,,,,,,,,,,,0,97,97,106,,,,,,,,,,,,,,,,,,,,,,,877.9054541178048,None,879.4052008409053,None,880.7888383055106,None,"feel
",880.7888383055106,None,return,1.0527919819578528,880.8720189034939,None,,,,,,,,,,,,,,,,,,,,,,,,,,,,,,,,,182,001,2024_Mar_11_1214,SpeechDraft1Carolyn_lessNoise_PlusLocalization,2021.2.3,59.94872637814461,
wet.wav,wet.mpg,wet,6,A,Pink_Noise_6_1.wav,Pink_Noise_6_2.wav,,,,,,,,,,,,,,,0,98,98,13,,,,,,,,,,,,,,,,,,,,,,,881.9554897518829,None,883.471847997047,None,884.8556023417041,None,next,884.8556023417041,None,return,1.2099132053554058,884.9388901758939,None,,,,,,,,,,,,,,,,,,,,,,,,,,,,,,,,,182,001,2024_Mar_11_1214,SpeechDraft1Carolyn_lessNoise_PlusLocalization,2021.2.3,59.94872637814461,
chat.wav,chat.mpg,chat,2,AV,Pink_Noise_2_1.wav,Pink_Noise_2_2.wav,,,,,,,,,,,,,,,0,99,99,67,,,,,,,,,,,,,,,,,,,,,,,886.1718851104379,None,887.6736881053075,None,889.0554529894143,None,chant,889.0554529894143,None,return,8.62586750742048,889.1389168137684,None,,,,,,,,,,,,,,,,,,,,,,,,,,,,,,,,,182,001,2024_Mar_11_1214,SpeechDraft1Carolyn_lessNoise_PlusLocalization,2021.2.3,59.94872637814461,
crank.wav,crank.mpg,crank,3,AV,Pink_Noise_3_1.wav,Pink_Noise_3_2.wav,,,,,,,,,,,,,,,0,100,100,103,,,,,,,,,,,,,,,,,,,,,,,897.7886354615912,None,899.3054384607822,None,900.6887634489685,None,quick,900.6887634489685,None,return,6.512870814651251,900.771997846663,None,,,,,,,,,,,,,,,,,,,,,,,,,,,,,,,,,182,001,2024_Mar_11_1214,SpeechDraft1Carolyn_lessNoise_PlusLocalization,2021.2.3,59.94872637814461,
blush.wav,blush.mpg,blush,1,A,Pink_Noise_1_1.wav,Pink_Noise_1_2.wav,,,,,,,,,,,,,,,0,101,101,47,,,,,,,,,,,,,,,,,,,,,,,907.3052971540019,None,908.8386251563206,None,910.2219332000241,None,blush,910.2219332000241,None,return,2.483283668756485,910.3055536514148,None,,,,,,,,,,,,,,,,,,,,,,,,,,,,,,,,,182,001,2024_Mar_11_1214,SpeechDraft1Carolyn_lessNoise_PlusLocalization,2021.2.3,59.94872637814461,
booth.wav,booth.mpg,booth,3,A,Pink_Noise_3_1.wav,Pink_Noise_3_2.wav,,,,,,,,,,,,,,,0,102,102,31,,,,,,,,,,,,,,,,,,,,,,,912.8055922538042,None,914.3218493247405,None,915.705604233779,None,bppt,915.705604233779,None,return,2.1438996074721217,915.7889277497306,None,,,,,,,,,,,,,,,,,,,,,,,,,,,,,,,,,182,001,2024_Mar_11_1214,SpeechDraft1Carolyn_lessNoise_PlusLocalization,2021.2.3,59.94872637814461,
hike.wav,hike.mpg,hike,4,AV,Pink_Noise_4_1.wav,Pink_Noise_4_2.wav,,,,,,,,,,,,,,,0,103,103,114,,,,,,,,,,,,,,,,,,,,,,,917.9555651238188,None,919.4718472734094,None,920.8554742056876,None,occe,920.8554742056876,None,return,2.2579684341326356,920.9388298569247,None,,,,,,,,,,,,,,,,,,,,,,,,,,,,,,,,,182,001,2024_Mar_11_1214,SpeechDraft1Carolyn_lessNoise_PlusLocalization,2021.2.3,59.94872637814461,
blunt.wav,blunt.mpg,blunt,5,A,Pink_Noise_5_1.wav,Pink_Noise_5_2.wav,,,,,,,,,,,,,,,0,104,104,37,,,,,,,,,,,,,,,,,,,,,,,923.2222701627761,None,924.7550039673224,None,926.1387736331671,None,nlush,926.1387736331671,None,return,3.19854190479964,926.222339335829,None,,,,,,,,,,,,,,,,,,,,,,,,,,,,,,,,,182,001,2024_Mar_11_1214,SpeechDraft1Carolyn_lessNoise_PlusLocalization,2021.2.3,59.94872637814461,
cent.wav,cent.mpg,cent,4,A,Pink_Noise_4_1.wav,Pink_Noise_4_2.wav,,,,,,,,,,,,,,,0,105,105,33,,,,,,,,,,,,,,,,,,,,,,,929.4389225775376,None,930.9550950517878,None,932.3387976009399,None,"said
",932.3387976009399,None,return,3.702664108015597,932.422129641287,None,,,,,,,,,,,,,,,,,,,,,,,,,,,,,,,,,182,001,2024_Mar_11_1214,SpeechDraft1Carolyn_lessNoise_PlusLocalization,2021.2.3,59.94872637814461,
fetch.wav,fetch.mpg,fetch,2,AV,Pink_Noise_2_1.wav,Pink_Noise_2_2.wav,,,,,,,,,,,,,,,0,106,106,64,,,,,,,,,,,,,,,,,,,,,,,936.155509932898,None,937.70504038129,None,939.0889416867867,None,"fetch
",939.0889416867867,None,return,2.368669666349888,939.1721494486555,None,,,,,,,,,,,,,,,,,,,,,,,,,,,,,,,,,182,001,2024_Mar_11_1214,SpeechDraft1Carolyn_lessNoise_PlusLocalization,2021.2.3,59.94872637814461,
clog.wav,clog.mpg,clog,3,A,Pink_Noise_3_1.wav,Pink_Noise_3_2.wav,,,,,,,,,,,,,,,0,107,107,11,,,,,,,,,,,,,,,,,,,,,,,941.5719961645082,None,943.0887264488265,None,944.4722133353353,None,"claw
",944.4722133353353,None,return,1.80127464979887,944.555563820526,None,,,,,,,,,,,,,,,,,,,,,,,,,,,,,,,,,182,001,2024_Mar_11_1214,SpeechDraft1Carolyn_lessNoise_PlusLocalization,2021.2.3,59.94872637814461,
bring.wav,bring.mpg,bring,6,A,Pink_Noise_6_1.wav,Pink_Noise_6_2.wav,,,,,,,,,,,,,,,0,108,108,48,,,,,,,,,,,,,,,,,,,,,,,946.3888456458226,None,947.905301659368,None,949.2888951329514,None,haor,949.2888951329514,None,return,4.656617161817849,949.3723291587085,None,,,,,,,,,,,,,,,,,,,,,,,,,,,,,,,,,182,001,2024_Mar_11_1214,SpeechDraft1Carolyn_lessNoise_PlusLocalization,2021.2.3,59.94872637814461,
coy.wav,coy.mpg,coy,5,AV,Pink_Noise_5_1.wav,Pink_Noise_5_2.wav,,,,,,,,,,,,,,,0,109,109,82,,,,,,,,,,,,,,,,,,,,,,,954.0555223952979,None,955.571781732142,None,956.9554191986099,None,cpy,956.9554191986099,None,return,5.461822832003236,957.0389939406887,None,,,,,,,,,,,,,,,,,,,,,,,,,,,,,,,,,182,001,2024_Mar_11_1214,SpeechDraft1Carolyn_lessNoise_PlusLocalization,2021.2.3,59.94872637814461,
round.wav,round.mpg,round,2,A,Pink_Noise_2_1.wav,Pink_Noise_2_2.wav,,,,,,,,,,,,,,,0,110,110,7,,,,,,,,,,,,,,,,,,,,,,,962.5220394041389,None,964.0383899342269,None,965.4222163027152,None,"rant
",965.4222163027152,None,return,2.0035180682316422,965.5052983695641,None,,,,,,,,,,,,,,,,,,,,,,,,,,,,,,,,,182,001,2024_Mar_11_1214,SpeechDraft1Carolyn_lessNoise_PlusLocalization,2021.2.3,59.94872637814461,
gift.wav,gift.mpg,gift,2,A,Pink_Noise_2_1.wav,Pink_Noise_2_2.wav,,,,,,,,,,,,,,,0,111,111,30,,,,,,,,,,,,,,,,,,,,,,,967.5387816587463,None,969.0552075933665,None,970.4389266716316,None,goft,970.4389266716316,None,return,1.9469343703240156,970.522117421031,None,,,,,,,,,,,,,,,,,,,,,,,,,,,,,,,,,182,001,2024_Mar_11_1214,SpeechDraft1Carolyn_lessNoise_PlusLocalization,2021.2.3,59.94872637814461,
flood.wav,flood.mpg,flood,3,AV,Pink_Noise_3_1.wav,Pink_Noise_3_2.wav,,,,,,,,,,,,,,,0,112,112,102,,,,,,,,,,,,,,,,,,,,,,,972.4887967724353,None,974.0053429519758,None,975.3888687659055,None,flood,975.3888687659055,None,return,1.9327225619927049,975.472191256471,None,,,,,,,,,,,,,,,,,,,,,,,,,,,,,,,,,182,001,2024_Mar_11_1214,SpeechDraft1Carolyn_lessNoise_PlusLocalization,2021.2.3,59.94872637814461,
earn.wav,earn.mpg,earn,1,AV,Pink_Noise_1_1.wav,Pink_Noise_1_2.wav,,,,,,,,,,,,,,,0,113,113,113,,,,,,,,,,,,,,,,,,,,,,,977.4221071479842,None,978.9717123629525,None,980.355728241615,None,"earn
",980.355728241615,None,return,1.7020967463031411,980.4387172693387,None,,,,,,,,,,,,,,,,,,,,,,,,,,,,,,,,,182,001,2024_Mar_11_1214,SpeechDraft1Carolyn_lessNoise_PlusLocalization,2021.2.3,59.94872637814461,
layer.wav,layer.mpg,layer,4,A,Pink_Noise_4_1.wav,Pink_Noise_4_2.wav,,,,,,,,,,,,,,,0,114,114,59,,,,,,,,,,,,,,,,,,,,,,,982.1723590232432,None,983.688419691287,None,985.0723195075989,None,later,985.0723195075989,None,return,3.313409373164177,985.1554980892688,None,,,,,,,,,,,,,,,,,,,,,,,,,,,,,,,,,182,001,2024_Mar_11_1214,SpeechDraft1Carolyn_lessNoise_PlusLocalization,2021.2.3,59.94872637814461,
clot.wav,clot.mpg,clot,1,A,Pink_Noise_1_1.wav,Pink_Noise_1_2.wav,,,,,,,,,,,,,,,0,115,115,12,,,,,,,,,,,,,,,,,,,,,,,988.4887173119932,None,990.0053248303011,None,991.3889382369816,None,clapped,991.3889382369816,None,return,6.060700393281877,991.4720904538408,None,,,,,,,,,,,,,,,,,,,,,,,,,,,,,,,,,182,001,2024_Mar_11_1214,SpeechDraft1Carolyn_lessNoise_PlusLocalization,2021.2.3,59.94872637814461,
sun.wav,sun.mpg,sun,3,A,Pink_Noise_3_1.wav,Pink_Noise_3_2.wav,,,,,,,,,,,,,,,0,116,116,18,,,,,,,,,,,,,,,,,,,,,,,997.5555679295212,None,999.0730349617079,None,1000.4556939378381,None,say,1000.4556939378381,None,return,1.5378715163096786,1000.5389470476657,None,,,,,,,,,,,,,,,,,,,,,,,,,,,,,,,,,182,001,2024_Mar_11_1214,SpeechDraft1Carolyn_lessNoise_PlusLocalization,2021.2.3,59.94872637814461,
buzz.wav,buzz.mpg,buzz,5,A,Pink_Noise_5_1.wav,Pink_Noise_5_2.wav,,,,,,,,,,,,,,,0,117,117,15,,,,,,,,,,,,,,,,,,,,,,,1002.1054395223036,None,1003.6219527488574,None,1005.0057529909536,None,bows,1005.0057529909536,None,return,2.5639664884656668,1005.0888883639127,None,,,,,,,,,,,,,,,,,,,,,,,,,,,,,,,,,182,001,2024_Mar_11_1214,SpeechDraft1Carolyn_lessNoise_PlusLocalization,2021.2.3,59.94872637814461,
bold.wav,bold.mpg,bold,6,AV,Pink_Noise_6_1.wav,Pink_Noise_6_2.wav,,,,,,,,,,,,,,,0,118,118,94,,,,,,,,,,,,,,,,,,,,,,,1007.672380185686,None,1009.1886319965124,None,1010.5722217038274,None,front,1010.5722217038274,None,return,7.941188621334732,1010.6555853812024,None,,,,,,,,,,,,,,,,,,,,,,,,,,,,,,,,,182,001,2024_Mar_11_1214,SpeechDraft1Carolyn_lessNoise_PlusLocalization,2021.2.3,59.94872637814461,
croak.wav,croak.mpg,croak,3,A,Pink_Noise_3_1.wav,Pink_Noise_3_2.wav,,,,,,,,,,,,,,,0,119,119,20,,,,,,,,,,,,,,,,,,,,,,,1018.6222133953124,None,1020.138481897302,None,1021.5220759138465,None,croak,1021.5220759138465,None,return,2.3589153941720724,1021.6058906186372,None,,,,,,,,,,,,,,,,,,,,,,,,,,,,,,,,,182,001,2024_Mar_11_1214,SpeechDraft1Carolyn_lessNoise_PlusLocalization,2021.2.3,59.94872637814461,
,,,,,,,,,,,,,,,,,,,,,,,,,,,,,,,,,,,,,,,,,,,,,,,,,,,,,,,,,,,,,,,,,,space,10.907867559231818,1024.088932977058,None,,,,,,,,,,,,,,,,,,,,,,,182,001,2024_Mar_11_1214,SpeechDraft1Carolyn_lessNoise_PlusLocalization,2021.2.3,59.94872637814461,
,,,,,,,,midLeft,-13.0,2,ch1Sound_localizationTask.wav,-13.0,"(762, 878)","(-198,-202)",-190,-338,,,,,,,,,0,0,0,1,,,,,,,,,,,,,,,,,,,,,,,,,,,,,,,,,,,,,,,,,,1024.088932977058,None,1035.0385760394856,None,1036.1386014148593,None,1037.07219926361,None,1.2037037037037037,2.3874418921768665,1037.07219926361,None,,,,,,,,,,,182,001,2024_Mar_11_1214,SpeechDraft1Carolyn_lessNoise_PlusLocalization,2021.2.3,59.94872637814461,
,,,,,,,,center,0.0,6,ch1Sound_localizationTask.wav,0.0,"(952, 878)","(-8,-202)",0,-338,,,,,,,,,0,1,1,3,,,,,,,,,,,,,,,,,,,,,,,,,,,,,,,,,,,,,,,,,,,,1039.4724040133879,None,1040.5721784112975,None,1041.505684217438,None,1.511111111111111,0.7683105058968067,1041.505684217438,None,,,,,,,,,,,182,001,2024_Mar_11_1214,SpeechDraft1Carolyn_lessNoise_PlusLocalization,2021.2.3,59.94872637814461,
,,,,,,,,midLeft,-13.0,2,ch1Sound_localizationTask.wav,-13.0,"(762, 878)","(-198,-202)",-190,-338,,,,,,,,,0,2,2,1,,,,,,,,,,,,,,,,,,,,,,,,,,,,,,,,,,,,,,,,,,,,1042.2888065204024,None,1043.3886335752904,None,1044.322175473906,None,1.2513227513227514,1.4504323592409492,1044.322175473906,None,,,,,,,,,,,182,001,2024_Mar_11_1214,SpeechDraft1Carolyn_lessNoise_PlusLocalization,2021.2.3,59.94872637814461,
,,,,,,,,midRight,13.0,3,ch1Sound_localizationTask.wav,13.0,"(1142, 878)","(182, -202)",190,-338,,,,,,,,,0,3,3,5,,,,,,,,,,,,,,,,,,,,,,,,,,,,,,,,,,,,,,,,,,,,1045.7890898380429,None,1046.8885288061574,None,1047.8220042055473,None,1.664021164021164,0.8994243275374174,1047.8220042055473,None,,,,,,,,,,,182,001,2024_Mar_11_1214,SpeechDraft1Carolyn_lessNoise_PlusLocalization,2021.2.3,59.94872637814461,
,,,,,,,,nearLeft,-6.5,1,ch1Sound_localizationTask.wav,-6.5,"(857, 878)","(-103,-202)",-95,-338,,,,,,,,,0,4,4,2,,,,,,,,,,,,,,,,,,,,,,,,,,,,,,,,,,,,,,,,,,,,1048.722318675369,None,1049.8221054924652,None,1050.7552682161331,None,1.3793650793650793,0.7502412842586637,1050.7552682161331,None,,,,,,,,,,,182,001,2024_Mar_11_1214,SpeechDraft1Carolyn_lessNoise_PlusLocalization,2021.2.3,59.94872637814461,
,,,,,,,,center,0.0,6,ch1Sound_localizationTask.wav,0.0,"(952, 878)","(-8,-202)",0,-338,,,,,,,,,0,5,5,3,,,,,,,,,,,,,,,,,,,,,,,,,,,,,,,,,,,,,,,,,,,,1051.5072518680245,None,1052.6221633907408,None,1053.5388883939013,None,1.5042328042328044,0.8509725723415613,1053.5388883939013,None,,,,,,,,,,,182,001,2024_Mar_11_1214,SpeechDraft1Carolyn_lessNoise_PlusLocalization,2021.2.3,59.94872637814461,
,,,,,,,,midRight,13.0,3,ch1Sound_localizationTask.wav,13.0,"(1142, 878)","(182, -202)",190,-338,,,,,,,,,0,6,6,5,,,,,,,,,,,,,,,,,,,,,,,,,,,,,,,,,,,,,,,,,,,,1054.405858123675,None,1055.5054301116616,None,1056.4386798292398,None,1.6148148148148147,1.0163724981248379,1056.4386798292398,None,,,,,,,,,,,182,001,2024_Mar_11_1214,SpeechDraft1Carolyn_lessNoise_PlusLocalization,2021.2.3,59.94872637814461,
,,,,,,,,farLeft,-19.1,5,ch1Sound_localizationTask.wav,-19.1,"(667, 878)","(-293,-202)",-285,-338,,,,,,,,,1,0,7,0,,,,,,,,,,,,,,,,,,,,,,,,,,,,,,,,,,,,,,,,,,,,1057.4560470534489,None,1058.5551809212193,None,1059.488792588003,None,1.2137566137566138,0.8339936463162303,1059.488792588003,None,,,,,,,,,,,182,001,2024_Mar_11_1214,SpeechDraft1Carolyn_lessNoise_PlusLocalization,2021.2.3,59.94872637814461,
,,,,,,,,nearRight,6.5,0,ch1Sound_localizationTask.wav,6.5,"(1047, 878)","(87, -202)",95,-338,,,,,,,,,1,1,8,4,,,,,,,,,,,,,,,,,,,,,,,,,,,,,,,,,,,,,,,,,,,,1060.338755844161,None,1061.438579021953,None,1062.3718078462407,None,1.5365079365079364,0.7158037330955267,1062.3718078462407,None,,,,,,,,,,,182,001,2024_Mar_11_1214,SpeechDraft1Carolyn_lessNoise_PlusLocalization,2021.2.3,59.94872637814461,
,,,,,,,,farRight,19.1,4,ch1Sound_localizationTask.wav,19.1,"(1237, 878)","(277,-202)",285,-338,,,,,,,,,1,2,9,6,,,,,,,,,,,,,,,,,,,,,,,,,,,,,,,,,,,,,,,,,,,,1063.0899431854486,None,1064.1885958677158,None,1065.122090314515,None,1.7576719576719577,0.818186623044312,1065.122090314515,None,,,,,,,,,,,182,001,2024_Mar_11_1214,SpeechDraft1Carolyn_lessNoise_PlusLocalization,2021.2.3,59.94872637814461,
,,,,,,,,farLeft,-19.1,5,ch1Sound_localizationTask.wav,-19.1,"(667, 878)","(-293,-202)",-285,-338,,,,,,,,,1,3,10,0,,,,,,,,,,,,,,,,,,,,,,,,,,,,,,,,,,,,,,,,,,,,1065.9556349338964,None,1067.055715750903,None,1067.9885963499546,None,1.1227513227513226,0.8511183997616172,1067.9885963499546,None,,,,,,,,,,,182,001,2024_Mar_11_1214,SpeechDraft1Carolyn_lessNoise_PlusLocalization,2021.2.3,59.94872637814461,
,,,,,,,,farLeft,-19.1,5,ch1Sound_localizationTask.wav,-19.1,"(667, 878)","(-293,-202)",-285,-338,,,,,,,,,1,4,11,0,,,,,,,,,,,,,,,,,,,,,,,,,,,,,,,,,,,,,,,,,,,,1068.8558883126825,None,1069.9552651448175,None,1070.8886203216389,None,1.1835978835978835,0.8663342334330082,1070.8886203216389,None,,,,,,,,,,,182,001,2024_Mar_11_1214,SpeechDraft1Carolyn_lessNoise_PlusLocalization,2021.2.3,59.94872637814461,
,,,,,,,,nearLeft,-6.5,1,ch1Sound_localizationTask.wav,-6.5,"(857, 878)","(-103,-202)",-95,-338,,,,,,,,,1,5,12,2,,,,,,,,,,,,,,,,,,,,,,,,,,,,,,,,,,,,,,,,,,,,1071.772350732237,None,1072.8722731452435,None,1073.8053869726136,None,1.3037037037037038,0.7662732936441898,1073.8053869726136,None,,,,,,,,,,,182,001,2024_Mar_11_1214,SpeechDraft1Carolyn_lessNoise_PlusLocalization,2021.2.3,59.94872637814461,
,,,,,,,,nearRight,6.5,0,ch1Sound_localizationTask.wav,6.5,"(1047, 878)","(87, -202)",95,-338,,,,,,,,,1,6,13,4,,,,,,,,,,,,,,,,,,,,,,,,,,,,,,,,,,,,,,,,,,,,1074.572850077413,None,1075.67202966474,None,1076.6052924152464,None,1.541798941798942,1.0340206492692232,1076.6052924152464,None,,,,,,,,,,,182,001,2024_Mar_11_1214,SpeechDraft1Carolyn_lessNoise_PlusLocalization,2021.2.3,59.94872637814461,
,,,,,,,,nearRight,6.5,0,ch1Sound_localizationTask.wav,6.5,"(1047, 878)","(87, -202)",95,-338,,,,,,,,,2,0,14,4,,,,,,,,,,,,,,,,,,,,,,,,,,,,,,,,,,,,,,,,,,,,1077.6557254279032,None,1078.7552247596905,None,1079.6890888996422,None,1.5751322751322752,0.9670105129480362,1079.6890888996422,None,,,,,,,,,,,182,001,2024_Mar_11_1214,SpeechDraft1Carolyn_lessNoise_PlusLocalization,2021.2.3,59.94872637814461,
,,,,,,,,nearRight,6.5,0,ch1Sound_localizationTask.wav,6.5,"(1047, 878)","(87, -202)",95,-338,,,,,,,,,2,1,15,4,,,,,,,,,,,,,,,,,,,,,,,,,,,,,,,,,,,,,,,,,,,,1080.6723652314395,None,1081.7719330824912,None,1082.7052990552038,None,1.637037037037037,0.9846895700320601,1082.7052990552038,None,,,,,,,,,,,182,001,2024_Mar_11_1214,SpeechDraft1Carolyn_lessNoise_PlusLocalization,2021.2.3,59.94872637814461,
,,,,,,,,center,0.0,6,ch1Sound_localizationTask.wav,0.0,"(952, 878)","(-8,-202)",0,-338,,,,,,,,,2,2,16,3,,,,,,,,,,,,,,,,,,,,,,,,,,,,,,,,,,,,,,,,,,,,1083.7057112744078,None,1084.8054404212162,None,1085.7386921914294,None,1.4883597883597883,0.6003791587427258,1085.7386921914294,None,,,,,,,,,,,182,001,2024_Mar_11_1214,SpeechDraft1Carolyn_lessNoise_PlusLocalization,2021.2.3,59.94872637814461,
,,,,,,,,midLeft,-13.0,2,ch1Sound_localizationTask.wav,-13.0,"(762, 878)","(-198,-202)",-190,-338,,,,,,,,,2,3,17,1,,,,,,,,,,,,,,,,,,,,,,,,,,,,,,,,,,,,,,,,,,,,1086.3556302972138,None,1087.4555282248184,None,1088.3888217685744,None,1.2248677248677249,0.7518894821405411,1088.3888217685744,None,,,,,,,,,,,182,001,2024_Mar_11_1214,SpeechDraft1Carolyn_lessNoise_PlusLocalization,2021.2.3,59.94872637814461,
,,,,,,,,midRight,13.0,3,ch1Sound_localizationTask.wav,13.0,"(1142, 878)","(182, -202)",190,-338,,,,,,,,,2,4,18,5,,,,,,,,,,,,,,,,,,,,,,,,,,,,,,,,,,,,,,,,,,,,1089.1558829247952,None,1090.2552235675976,None,1091.1887703817338,None,1.6132275132275131,0.7515954403206706,1091.1887703817338,None,,,,,,,,,,,182,001,2024_Mar_11_1214,SpeechDraft1Carolyn_lessNoise_PlusLocalization,2021.2.3,59.94872637814461,
,,,,,,,,nearLeft,-6.5,1,ch1Sound_localizationTask.wav,-6.5,"(857, 878)","(-103,-202)",-95,-338,,,,,,,,,2,5,19,2,,,,,,,,,,,,,,,,,,,,,,,,,,,,,,,,,,,,,,,,,,,,1091.9556982237846,None,1093.0555211352184,None,1093.9887510119006,None,1.3142857142857143,0.650725775398314,1093.9887510119006,None,,,,,,,,,,,182,001,2024_Mar_11_1214,SpeechDraft1Carolyn_lessNoise_PlusLocalization,2021.2.3,59.94872637814461,
,,,,,,,,center,0.0,6,ch1Sound_localizationTask.wav,0.0,"(952, 878)","(-8,-202)",0,-338,,,,,,,,,2,6,20,3,,,,,,,,,,,,,,,,,,,,,,,,,,,,,,,,,,,,,,,,,,,,1094.655969882384,None,1095.7554269609973,None,1096.688779398799,None,1.6296296296296298,0.7507632207125425,1096.688779398799,None,,,,,,,,,,,182,001,2024_Mar_11_1214,SpeechDraft1Carolyn_lessNoise_PlusLocalization,2021.2.3,59.94872637814461,
,,,,,,,,nearRight,6.5,0,ch1Sound_localizationTask.wav,6.5,"(1047, 878)","(87, -202)",95,-338,,,,,,,,,3,0,21,4,,,,,,,,,,,,,,,,,,,,,,,,,,,,,,,,,,,,,,,,,,,,1097.4559925114736,None,1098.555527021177,None,1099.4888175008819,None,1.5804232804232803,0.6499987887218595,1099.4888175008819,None,,,,,,,,,,,182,001,2024_Mar_11_1214,SpeechDraft1Carolyn_lessNoise_PlusLocalization,2021.2.3,59.94872637814461,
,,,,,,,,midRight,13.0,3,ch1Sound_localizationTask.wav,13.0,"(1142, 878)","(182, -202)",190,-338,,,,,,,,,3,1,22,5,,,,,,,,,,,,,,,,,,,,,,,,,,,,,,,,,,,,,,,,,,,,1100.1556652951986,None,1101.2553094131872,None,1102.1887085502967,None,1.6708994708994709,0.7689464576542377,1102.1887085502967,None,,,,,,,,,,,182,001,2024_Mar_11_1214,SpeechDraft1Carolyn_lessNoise_PlusLocalization,2021.2.3,59.94872637814461,
,,,,,,,,farRight,19.1,4,ch1Sound_localizationTask.wav,19.1,"(1237, 878)","(277,-202)",285,-338,,,,,,,,,3,2,23,6,,,,,,,,,,,,,,,,,,,,,,,,,,,,,,,,,,,,,,,,,,,,1102.9723778059706,None,1104.0722695766017,None,1105.0052823927253,None,1.7037037037037037,0.683495725505054,1105.0052823927253,None,,,,,,,,,,,182,001,2024_Mar_11_1214,SpeechDraft1Carolyn_lessNoise_PlusLocalization,2021.2.3,59.94872637814461,
,,,,,,,,farRight,19.1,4,ch1Sound_localizationTask.wav,19.1,"(1237, 878)","(277,-202)",285,-338,,,,,,,,,3,3,24,6,,,,,,,,,,,,,,,,,,,,,,,,,,,,,,,,,,,,,,,,,,,,1105.7059889202937,None,1106.8053905982524,None,1107.7386947041377,None,1.8021164021164022,2.100078882649541,1107.7386947041377,None,,,,,,,,,,,182,001,2024_Mar_11_1214,SpeechDraft1Carolyn_lessNoise_PlusLocalization,2021.2.3,59.94872637814461,
,,,,,,,,farRight,19.1,4,ch1Sound_localizationTask.wav,19.1,"(1237, 878)","(277,-202)",285,-338,,,,,,,,,3,4,25,6,,,,,,,,,,,,,,,,,,,,,,,,,,,,,,,,,,,,,,,,,,,,1109.855863290839,None,1110.9557137796655,None,1111.8890111334622,None,1.7698412698412698,0.7829183712601662,1111.8890111334622,None,,,,,,,,,,,182,001,2024_Mar_11_1214,SpeechDraft1Carolyn_lessNoise_PlusLocalization,2021.2.3,59.94872637814461,
,,,,,,,,farLeft,-19.1,5,ch1Sound_localizationTask.wav,-19.1,"(667, 878)","(-293,-202)",-285,-338,,,,,,,,,3,5,26,0,,,,,,,,,,,,,,,,,,,,,,,,,,,,,,,,,,,,,,,,,,,,1112.6730807125568,None,1113.7720698341727,None,1114.705372016877,None,1.3222222222222222,0.6854549814015627,1114.705372016877,None,,,,,,,,,,,182,001,2024_Mar_11_1214,SpeechDraft1Carolyn_lessNoise_PlusLocalization,2021.2.3,59.94872637814461,
,,,,,,,,farLeft,-19.1,5,ch1Sound_localizationTask.wav,-19.1,"(667, 878)","(-293,-202)",-285,-338,,,,,,,,,3,6,27,0,,,,,,,,,,,,,,,,,,,,,,,,,,,,,,,,,,,,,,,,,,,,1115.4058001087978,None,1116.5056601027027,None,1117.4387524025515,None,1.2,0.9329024283215404,1117.4387524025515,None,,,,,,,,,,,182,001,2024_Mar_11_1214,SpeechDraft1Carolyn_lessNoise_PlusLocalization,2021.2.3,59.94872637814461,
,,,,,,,,midLeft,-13.0,2,ch1Sound_localizationTask.wav,-13.0,"(762, 878)","(-198,-202)",-190,-338,,,,,,,,,4,0,28,1,,,,,,,,,,,,,,,,,,,,,,,,,,,,,,,,,,,,,,,,,,,,1118.3732192302123,None,1119.4723284114152,None,1120.4054289087653,None,1.2492063492063492,0.6492412816733122,1120.4054289087653,None,,,,,,,,,,,182,001,2024_Mar_11_1214,SpeechDraft1Carolyn_lessNoise_PlusLocalization,2021.2.3,59.94872637814461,
,,,,,,,,center,0.0,6,ch1Sound_localizationTask.wav,0.0,"(952, 878)","(-8,-202)",0,-338,,,,,,,,,4,1,29,3,,,,,,,,,,,,,,,,,,,,,,,,,,,,,,,,,,,,,,,,,,,,1121.0562012735754,None,1122.155412884429,None,1123.0887496583164,None,1.4973544973544972,0.766635786741972,1123.0887496583164,None,,,,,,,,,,,182,001,2024_Mar_11_1214,SpeechDraft1Carolyn_lessNoise_PlusLocalization,2021.2.3,59.94872637814461,
,,,,,,,,nearRight,6.5,0,ch1Sound_localizationTask.wav,6.5,"(1047, 878)","(87, -202)",95,-338,,,,,,,,,4,2,30,4,,,,,,,,,,,,,,,,,,,,,,,,,,,,,,,,,,,,,,,,,,,,1123.8563121343032,None,1124.9556029774249,None,1125.8887345707044,None,1.6751322751322753,1.200984101742506,1125.8887345707044,None,,,,,,,,,,,182,001,2024_Mar_11_1214,SpeechDraft1Carolyn_lessNoise_PlusLocalization,2021.2.3,59.94872637814461,
,,,,,,,,farRight,19.1,4,ch1Sound_localizationTask.wav,19.1,"(1237, 878)","(277,-202)",285,-338,,,,,,,,,4,3,31,6,,,,,,,,,,,,,,,,,,,,,,,,,,,,,,,,,,,,,,,,,,,,1127.1056636115536,None,1128.2053568847477,None,1129.1388382315636,None,1.5994708994708995,0.5006021289154887,1129.1388382315636,None,,,,,,,,,,,182,001,2024_Mar_11_1214,SpeechDraft1Carolyn_lessNoise_PlusLocalization,2021.2.3,59.94872637814461,
,,,,,,,,midLeft,-13.0,2,ch1Sound_localizationTask.wav,-13.0,"(762, 878)","(-198,-202)",-190,-338,,,,,,,,,4,4,32,1,,,,,,,,,,,,,,,,,,,,,,,,,,,,,,,,,,,,,,,,,,,,1129.655664156191,None,1130.7553208386526,None,1131.6887666732073,None,1.3777777777777778,0.2848501047119498,1131.6887666732073,None,,,,,,,,,,,182,001,2024_Mar_11_1214,SpeechDraft1Carolyn_lessNoise_PlusLocalization,2021.2.3,59.94872637814461,
,,,,,,,,farRight,19.1,4,ch1Sound_localizationTask.wav,19.1,"(1237, 878)","(277,-202)",285,-338,,,,,,,,,4,5,33,6,,,,,,,,,,,,,,,,,,,,,,,,,,,,,,,,,,,,,,,,,,,,1131.9894967116416,None,1133.088967221789,None,1134.022067940794,None,1.6084656084656084,0.33559541404247284,1134.022067940794,None,,,,,,,,,,,182,001,2024_Mar_11_1214,SpeechDraft1Carolyn_lessNoise_PlusLocalization,2021.2.3,59.94872637814461,
,,,,,,,,nearLeft,-6.5,1,ch1Sound_localizationTask.wav,-6.5,"(857, 878)","(-103,-202)",-95,-338,,,,,,,,,4,6,34,2,,,,,,,,,,,,,,,,,,,,,,,,,,,,,,,,,,,,,,,,,,,,1134.3724247403443,None,1135.4721369240433,None,1136.4054918922484,None,1.2883597883597884,1.1020927652716637,1136.4054918922484,None,,,,,,,,,,,182,001,2024_Mar_11_1214,SpeechDraft1Carolyn_lessNoise_PlusLocalization,2021.2.3,59.94872637814461,
,,,,,,,,farRight,19.1,4,ch1Sound_localizationTask.wav,19.1,"(1237, 878)","(277,-202)",285,-338,,,,,,,,,5,0,35,6,,,,,,,,,,,,,,,,,,,,,,,,,,,,,,,,,,,,,,,,,,,,1137.5224672434852,None,1138.6221559289843,None,1139.5554033908993,None,1.6105820105820106,0.3187935212627053,1139.5554033908993,None,,,,,,,,,,,182,001,2024_Mar_11_1214,SpeechDraft1Carolyn_lessNoise_PlusLocalization,2021.2.3,59.94872637814461,
,,,,,,,,farLeft,-19.1,5,ch1Sound_localizationTask.wav,-19.1,"(667, 878)","(-293,-202)",-285,-338,,,,,,,,,5,1,36,0,,,,,,,,,,,,,,,,,,,,,,,,,,,,,,,,,,,,,,,,,,,,1139.889076391235,None,1140.9887560438365,None,1141.922183942981,None,1.2656084656084656,0.7843174515292048,1141.922183942981,None,,,,,,,,,,,182,001,2024_Mar_11_1214,SpeechDraft1Carolyn_lessNoise_PlusLocalization,2021.2.3,59.94872637814461,
,,,,,,,,farLeft,-19.1,5,ch1Sound_localizationTask.wav,-19.1,"(667, 878)","(-293,-202)",-285,-338,,,,,,,,,5,2,37,0,,,,,,,,,,,,,,,,,,,,,,,,,,,,,,,,,,,,,,,,,,,,1142.7224524011835,None,1143.8222268931568,None,1144.755362204276,None,1.2624338624338625,0.7510490380227566,1144.755362204276,None,,,,,,,,,,,182,001,2024_Mar_11_1214,SpeechDraft1Carolyn_lessNoise_PlusLocalization,2021.2.3,59.94872637814461,
,,,,,,,,farRight,19.1,4,ch1Sound_localizationTask.wav,19.1,"(1237, 878)","(277,-202)",285,-338,,,,,,,,,5,3,38,6,,,,,,,,,,,,,,,,,,,,,,,,,,,,,,,,,,,,,,,,,,,,1145.5222519822419,None,1146.6222088038921,None,1147.5554614840075,None,1.601058201058201,0.5498093264177442,1147.5554614840075,None,,,,,,,,,,,182,001,2024_Mar_11_1214,SpeechDraft1Carolyn_lessNoise_PlusLocalization,2021.2.3,59.94872637814461,
,,,,,,,,nearLeft,-6.5,1,ch1Sound_localizationTask.wav,-6.5,"(857, 878)","(-103,-202)",-95,-338,,,,,,,,,5,4,39,2,,,,,,,,,,,,,,,,,,,,,,,,,,,,,,,,,,,,,,,,,,,,1148.1226416612044,None,1149.2221163474023,None,1150.1553994584829,None,1.228042328042328,1.5828157179057598,1150.1553994584829,None,,,,,,,,,,,182,001,2024_Mar_11_1214,SpeechDraft1Carolyn_lessNoise_PlusLocalization,2021.2.3,59.94872637814461,
,,,,,,,,midRight,13.0,3,ch1Sound_localizationTask.wav,13.0,"(1142, 878)","(182, -202)",190,-338,,,,,,,,,5,5,40,5,,,,,,,,,,,,,,,,,,,,,,,,,,,,,,,,,,,,,,,,,,,,1151.7396619208157,None,1152.8387986645103,None,1153.7719988692552,None,1.638095238095238,0.800300570204854,1153.7719988692552,None,,,,,,,,,,,182,001,2024_Mar_11_1214,SpeechDraft1Carolyn_lessNoise_PlusLocalization,2021.2.3,59.94872637814461,
,,,,,,,,nearRight,6.5,0,ch1Sound_localizationTask.wav,6.5,"(1047, 878)","(87, -202)",95,-338,,,,,,,,,5,6,41,4,,,,,,,,,,,,,,,,,,,,,,,,,,,,,,,,,,,,,,,,,,,,1154.5893599027768,None,1155.6887180563062,None,1156.6221847869456,None,1.6915343915343914,0.950322113931179,1156.6221847869456,None,,,,,,,,,,,182,001,2024_Mar_11_1214,SpeechDraft1Carolyn_lessNoise_PlusLocalization,2021.2.3,59.94872637814461,
,,,,,,,,midRight,13.0,3,ch1Sound_localizationTask.wav,13.0,"(1142, 878)","(182, -202)",190,-338,,,,,,,,,6,0,42,5,,,,,,,,,,,,,,,,,,,,,,,,,,,,,,,,,,,,,,,,,,,,1157.5732791973278,None,1158.6722688507289,None,1159.605398941785,None,1.7105820105820106,1.8335579605773091,1159.605398941785,None,,,,,,,,,,,182,001,2024_Mar_11_1214,SpeechDraft1Carolyn_lessNoise_PlusLocalization,2021.2.3,59.94872637814461,
,,,,,,,,midLeft,-13.0,2,ch1Sound_localizationTask.wav,-13.0,"(762, 878)","(-198,-202)",-190,-338,,,,,,,,,6,1,43,1,,,,,,,,,,,,,,,,,,,,,,,,,,,,,,,,,,,,,,,,,,,,1161.4557547112927,None,1162.5553876962513,None,1163.4890972562134,None,1.2428571428571429,0.8151948042213917,1163.4890972562134,None,,,,,,,,,,,182,001,2024_Mar_11_1214,SpeechDraft1Carolyn_lessNoise_PlusLocalization,2021.2.3,59.94872637814461,
,,,,,,,,center,0.0,6,ch1Sound_localizationTask.wav,0.0,"(952, 878)","(-8,-202)",0,-338,,,,,,,,,6,2,44,3,,,,,,,,,,,,,,,,,,,,,,,,,,,,,,,,,,,,,,,,,,,,1164.3061632234603,None,1165.4055181676522,None,1166.3387262504548,None,1.5767195767195767,0.5650901878252625,1166.3387262504548,None,,,,,,,,,,,182,001,2024_Mar_11_1214,SpeechDraft1Carolyn_lessNoise_PlusLocalization,2021.2.3,59.94872637814461,
,,,,,,,,nearRight,6.5,0,ch1Sound_localizationTask.wav,6.5,"(1047, 878)","(87, -202)",95,-338,,,,,,,,,6,3,45,4,,,,,,,,,,,,,,,,,,,,,,,,,,,,,,,,,,,,,,,,,,,,1166.90600709524,None,1168.005627296865,None,1168.9388548927382,None,1.6174603174603175,0.9355976451188326,1168.9388548927382,None,,,,,,,,,,,182,001,2024_Mar_11_1214,SpeechDraft1Carolyn_lessNoise_PlusLocalization,2021.2.3,59.94872637814461,
,,,,,,,,midLeft,-13.0,2,ch1Sound_localizationTask.wav,-13.0,"(762, 878)","(-198,-202)",-190,-338,,,,,,,,,6,4,46,1,,,,,,,,,,,,,,,,,,,,,,,,,,,,,,,,,,,,,,,,,,,,1169.8889845870435,None,1170.9889131626114,None,1171.922268524766,None,1.2677248677248678,0.8018976580351591,1171.922268524766,None,,,,,,,,,,,182,001,2024_Mar_11_1214,SpeechDraft1Carolyn_lessNoise_PlusLocalization,2021.2.3,59.94872637814461,
,,,,,,,,nearLeft,-6.5,1,ch1Sound_localizationTask.wav,-6.5,"(857, 878)","(-103,-202)",-95,-338,,,,,,,,,6,5,47,2,,,,,,,,,,,,,,,,,,,,,,,,,,,,,,,,,,,,,,,,,,,,1172.7392177572474,None,1173.8389270808548,None,1174.7723241783679,None,1.2439153439153439,0.5672369729727507,1174.7723241783679,None,,,,,,,,,,,182,001,2024_Mar_11_1214,SpeechDraft1Carolyn_lessNoise_PlusLocalization,2021.2.3,59.94872637814461,
,,,,,,,,midLeft,-13.0,2,ch1Sound_localizationTask.wav,-13.0,"(762, 878)","(-198,-202)",-190,-338,,,,,,,,,6,6,48,1,,,,,,,,,,,,,,,,,,,,,,,,,,,,,,,,,,,,,,,,,,,,1175.3556984132156,None,1176.455571374856,None,1177.3885755008087,None,1.1867724867724867,0.5498898616060615,1177.3885755008087,None,,,,,,,,,,,182,001,2024_Mar_11_1214,SpeechDraft1Carolyn_lessNoise_PlusLocalization,2021.2.3,59.94872637814461,
,,,,,,,,center,0.0,6,ch1Sound_localizationTask.wav,0.0,"(952, 878)","(-8,-202)",0,-338,,,,,,,,,7,0,49,3,,,,,,,,,,,,,,,,,,,,,,,,,,,,,,,,,,,,,,,,,,,,1177.9408842865378,None,1179.0554061736912,None,1179.9720410136506,None,1.438095238095238,0.533056559972465,1179.9720410136506,None,,,,,,,,,,,182,001,2024_Mar_11_1214,SpeechDraft1Carolyn_lessNoise_PlusLocalization,2021.2.3,59.94872637814461,
,,,,,,,,farLeft,-19.1,5,ch1Sound_localizationTask.wav,-19.1,"(667, 878)","(-293,-202)",-285,-338,,,,,,,,,7,1,50,0,,,,,,,,,,,,,,,,,,,,,,,,,,,,,,,,,,,,,,,,,,,,1180.506222942844,None,1181.6055564507842,None,1182.5390399033204,None,1.171957671957672,0.7833657432347536,1182.5390399033204,None,,,,,,,,,,,182,001,2024_Mar_11_1214,SpeechDraft1Carolyn_lessNoise_PlusLocalization,2021.2.3,59.94872637814461,
,,,,,,,,midRight,13.0,3,ch1Sound_localizationTask.wav,13.0,"(1142, 878)","(182, -202)",190,-338,,,,,,,,,7,2,51,5,,,,,,,,,,,,,,,,,,,,,,,,,,,,,,,,,,,,,,,,,,,,1183.323117739521,None,1184.4223615815863,None,1185.3554787039757,None,1.657142857142857,0.7661329880356789,1185.3554787039757,None,,,,,,,,,,,182,001,2024_Mar_11_1214,SpeechDraft1Carolyn_lessNoise_PlusLocalization,2021.2.3,59.94872637814461,
,,,,,,,,nearLeft,-6.5,1,ch1Sound_localizationTask.wav,-6.5,"(857, 878)","(-103,-202)",-95,-338,,,,,,,,,7,3,52,2,,,,,,,,,,,,,,,,,,,,,,,,,,,,,,,,,,,,,,,,,,,,1186.1230808272958,None,1187.2223253482953,None,1188.155560925603,None,1.3047619047619048,0.9174608699977398,1188.155560925603,None,,,,,,,,,,,182,001,2024_Mar_11_1214,SpeechDraft1Carolyn_lessNoise_PlusLocalization,2021.2.3,59.94872637814461,
,,,,,,,,nearLeft,-6.5,1,ch1Sound_localizationTask.wav,-6.5,"(857, 878)","(-103,-202)",-95,-338,,,,,,,,,7,4,53,2,,,,,,,,,,,,,,,,,,,,,,,,,,,,,,,,,,,,,,,,,,,,1189.0893227038905,None,1190.189003416337,None,1191.1222489383072,None,1.4867724867724867,0.8492740849032998,1191.1222489383072,None,,,,,,,,,,,182,001,2024_Mar_11_1214,SpeechDraft1Carolyn_lessNoise_PlusLocalization,2021.2.3,59.94872637814461,
,,,,,,,,midRight,13.0,3,ch1Sound_localizationTask.wav,13.0,"(1142, 878)","(182, -202)",190,-338,,,,,,,,,7,5,54,5,,,,,,,,,,,,,,,,,,,,,,,,,,,,,,,,,,,,,,,,,,,,1191.972535685636,None,1193.0722306966782,None,1194.00573379267,None,1.7365079365079366,0.8170313443988562,1194.00573379267,None,,,,,,,,,,,182,001,2024_Mar_11_1214,SpeechDraft1Carolyn_lessNoise_PlusLocalization,2021.2.3,59.94872637814461,
,,,,,,,,center,0.0,6,ch1Sound_localizationTask.wav,0.0,"(952, 878)","(-8,-202)",0,-338,,,,,,,,,7,6,55,3,,,,,,,,,,,,,,,,,,,,,,,,,,,,,,,,,,,,,,,,,,,,1194.8229479072616,None,1195.9221843946725,None,1196.8556115375832,None,1.3328042328042329,1.515235378406942,1196.8556115375832,None,,,,,,,,,,,182,001,2024_Mar_11_1214,SpeechDraft1Carolyn_lessNoise_PlusLocalization,2021.2.3,59.94872637814461,
,,,,,,,,,,,,,,,,,,,,,,,,,,,,,,,,,,,,,,,,,,,,,,,,,,,,,,,,,,,,,,,,,,,,,,,,,,,,,,,,,,space,5.005036204122007,1198.4558339463547,None,,,,,,,182,001,2024_Mar_11_1214,SpeechDraft1Carolyn_lessNoise_PlusLocalization,2021.2.3,59.94872637814461,
,,,,,,,,center,0.0,6,ch1Sound_localizationTask.wav,0.0,"(952, 878)","(-8,-202)",0,-338,,,,,,,,,,,,,0,0,0,3,,,,,,,,,,,,,,,,,,,,,,,,,,,,,,,,,,,,,,,,1203.5054855244234,None,,,1206.5224193669856,None,1.428042328042328,1.6378284208476543,1206.5224193669856,None,,,,,1198.4558339463547,None,1204.5057519068941,None,1204.6891538267955,1204.705745334737,182,001,2024_Mar_11_1214,SpeechDraft1Carolyn_lessNoise_PlusLocalization,2021.2.3,59.94872637814461,
,,,,,,,,farLeft,-19.1,5,ch1Sound_localizationTask.wav,-19.1,"(667, 878)","(-293,-202)",-285,-338,,,,,,,,,,,,,0,1,1,0,,,,,,,,,,,,,,,,,,,,,,,,,,,,,,,,,,,,,,,,1208.1729466794059,None,,,1211.1888859989122,None,1.3253968253968254,0.682380142621696,1211.1888859989122,None,,,,,,,1209.1725213397294,None,1209.3558649895713,1209.3725015707314,182,001,2024_Mar_11_1214,SpeechDraft1Carolyn_lessNoise_PlusLocalization,2021.2.3,59.94872637814461,
,,,,,,,,midRight,13.0,3,ch1Sound_localizationTask.wav,13.0,"(1142, 878)","(182, -202)",190,-338,,,,,,,,,,,,,0,2,2,5,,,,,,,,,,,,,,,,,,,,,,,,,,,,,,,,,,,,,,,,1211.8724200865254,None,,,1214.8890906199813,None,1.560846560846561,1.1001959452405572,1214.8890906199813,None,,,,,,,1212.872414960526,None,1213.0558780822903,1213.0728633459657,182,001,2024_Mar_11_1214,SpeechDraft1Carolyn_lessNoise_PlusLocalization,2021.2.3,59.94872637814461,
,,,,,,,,nearLeft,-6.5,1,ch1Sound_localizationTask.wav,-6.5,"(857, 878)","(-103,-202)",-95,-338,,,,,,,,,,,,,0,3,3,2,,,,,,,,,,,,,,,,,,,,,,,,,,,,,,,,,,,,,,,,1216.0058734202757,None,,,1219.0222967071459,None,1.435978835978836,0.7489089732989669,1219.0222967071459,None,,,,,,,1217.005910044536,None,1217.1891974275932,1217.2060120077804,182,001,2024_Mar_11_1214,SpeechDraft1Carolyn_lessNoise_PlusLocalization,2021.2.3,59.94872637814461,
,,,,,,,,farRight,19.1,4,ch1Sound_localizationTask.wav,19.1,"(1237, 878)","(277,-202)",285,-338,,,,,,,,,,,,,0,4,4,6,,,,,,,,,,,,,,,,,,,,,,,,,,,,,,,,,,,,,,,,1219.7725416552275,None,,,1222.788944429718,None,1.6529100529100529,0.6652947999536991,1222.788944429718,None,,,,,,,1220.7723111594096,None,1220.9560229294002,1220.9723742483184,182,001,2024_Mar_11_1214,SpeechDraft1Carolyn_lessNoise_PlusLocalization,2021.2.3,59.94872637814461,
,,,,,,,,nearRight,6.5,0,ch1Sound_localizationTask.wav,6.5,"(1047, 878)","(87, -202)",95,-338,,,,,,,,,,,,,0,5,5,4,,,,,,,,,,,,,,,,,,,,,,,,,,,,,,,,,,,,,,,,1223.4558732947335,None,,,1226.4720865003765,None,1.5433862433862435,0.8489676602184772,1226.4720865003765,None,,,,,,,1224.4559823311865,None,1224.6393845295534,1224.6557927494869,182,001,2024_Mar_11_1214,SpeechDraft1Carolyn_lessNoise_PlusLocalization,2021.2.3,59.94872637814461,
,,,,,,,,farLeft,-19.1,5,ch1Sound_localizationTask.wav,-19.1,"(667, 878)","(-293,-202)",-285,-338,,,,,,,,,,,,,0,6,6,0,,,,,,,,,,,,,,,,,,,,,,,,,,,,,,,,,,,,,,,,1227.3226804556325,None,,,1230.33891173359,None,1.3497354497354497,0.9655686458572745,1230.33891173359,None,,,,,,,1228.3227061852813,None,1228.5056820753962,1228.522701679729,182,001,2024_Mar_11_1214,SpeechDraft1Carolyn_lessNoise_PlusLocalization,2021.2.3,59.94872637814461,
,,,,,,,,center,0.0,6,ch1Sound_localizationTask.wav,0.0,"(952, 878)","(-8,-202)",0,-338,,,,,,,,,,,,,1,0,7,3,,,,,,,,,,,,,,,,,,,,,,,,,,,,,,,,,,,,,,,,1231.3072586888447,None,,,1234.3386788042262,None,1.5195767195767196,0.5857511274516582,1234.3386788042262,None,,,,,,,1232.3225749079138,None,1232.505840273574,1232.5223552864045,182,001,2024_Mar_11_1214,SpeechDraft1Carolyn_lessNoise_PlusLocalization,2021.2.3,59.94872637814461,
,,,,,,,,farRight,19.1,4,ch1Sound_localizationTask.wav,19.1,"(1237, 878)","(277,-202)",285,-338,,,,,,,,,,,,,1,1,8,6,,,,,,,,,,,,,,,,,,,,,,,,,,,,,,,,,,,,,,,,1234.9411286851391,None,,,1237.9723160332069,None,1.6343915343915345,0.6827772781252861,1237.9723160332069,None,,,,,,,1235.9558968218043,None,1236.1393711129203,1236.155873480253,182,001,2024_Mar_11_1214,SpeechDraft1Carolyn_lessNoise_PlusLocalization,2021.2.3,59.94872637814461,
,,,,,,,,center,0.0,6,ch1Sound_localizationTask.wav,0.0,"(952, 878)","(-8,-202)",0,-338,,,,,,,,,,,,,1,2,9,3,,,,,,,,,,,,,,,,,,,,,,,,,,,,,,,,,,,,,,,,1238.6563785830513,None,,,1241.6722854012623,None,1.5153439153439154,1.166807939298451,1241.6722854012623,None,,,,,,,1239.6559341503307,None,1239.8391826599836,1239.8559432514012,182,001,2024_Mar_11_1214,SpeechDraft1Carolyn_lessNoise_PlusLocalization,2021.2.3,59.94872637814461,
,,,,,,,,midRight,13.0,3,ch1Sound_localizationTask.wav,13.0,"(1142, 878)","(182, -202)",190,-338,,,,,,,,,,,,,1,3,10,5,,,,,,,,,,,,,,,,,,,,,,,,,,,,,,,,,,,,,,,,1242.855919255875,None,,,1245.8722517574206,None,1.5957671957671957,0.6842907881364226,1245.8722517574206,None,,,,,,,1243.8559949155897,None,1244.0390649037436,1244.0558527372777,182,001,2024_Mar_11_1214,SpeechDraft1Carolyn_lessNoise_PlusLocalization,2021.2.3,59.94872637814461,
,,,,,,,,center,0.0,6,ch1Sound_localizationTask.wav,0.0,"(952, 878)","(-8,-202)",0,-338,,,,,,,,,,,,,1,4,11,3,,,,,,,,,,,,,,,,,,,,,,,,,,,,,,,,,,,,,,,,1246.572590966709,None,,,1249.588858040981,None,1.5,0.9161883974447846,1249.588858040981,None,,,,,,,1247.5725349625573,None,1247.7558723418042,1247.772332439199,182,001,2024_Mar_11_1214,SpeechDraft1Carolyn_lessNoise_PlusLocalization,2021.2.3,59.94872637814461,
,,,,,,,,center,0.0,6,ch1Sound_localizationTask.wav,0.0,"(952, 878)","(-8,-202)",0,-338,,,,,,,,,,,,,1,5,12,3,,,,,,,,,,,,,,,,,,,,,,,,,,,,,,,,,,,,,,,,1250.5063712596893,None,,,1253.5223764395341,None,1.4968253968253968,0.13330140057951212,1253.5223764395341,None,,,,,,,1251.5058807274327,None,1251.689293242991,1251.705986181274,182,001,2024_Mar_11_1214,SpeechDraft1Carolyn_lessNoise_PlusLocalization,2021.2.3,59.94872637814461,
,,,,,,,,farLeft,-19.1,5,ch1Sound_localizationTask.wav,-19.1,"(667, 878)","(-293,-202)",-285,-338,,,,,,,,,,,,,1,6,13,0,,,,,,,,,,,,,,,,,,,,,,,,,,,,,,,,,,,,,,,,1253.6560808401555,None,,,1256.6724642664194,None,1.378835978835979,0.4001307161524892,1256.6724642664194,None,,,,,,,1254.6559193246067,None,1254.8392582507804,1254.855819114484,182,001,2024_Mar_11_1214,SpeechDraft1Carolyn_lessNoise_PlusLocalization,2021.2.3,59.94872637814461,
,,,,,,,,farLeft,-19.1,5,ch1Sound_localizationTask.wav,-19.1,"(667, 878)","(-293,-202)",-285,-338,,,,,,,,,,,,,2,0,14,0,,,,,,,,,,,,,,,,,,,,,,,,,,,,,,,,,,,,,,,,1257.0894377427176,None,,,1260.105767316185,None,1.3777777777777778,0.06651660241186619,1260.105767316185,None,,,,,,,1258.089246510528,None,1258.2723421724513,1258.289306060411,182,001,2024_Mar_11_1214,SpeechDraft1Carolyn_lessNoise_PlusLocalization,2021.2.3,59.94872637814461,
,,,,,,,,farRight,19.1,4,ch1Sound_localizationTask.wav,19.1,"(1237, 878)","(277,-202)",285,-338,,,,,,,,,,,,,2,1,15,6,,,,,,,,,,,,,,,,,,,,,,,,,,,,,,,,,,,,,,,,1260.1726164892316,None,,,1263.1891849562526,None,1.619047619047619,0.799770156852901,1263.1891849562526,None,,,,,,,1261.172443893738,None,1261.355944399722,1261.3724506739527,182,001,2024_Mar_11_1214,SpeechDraft1Carolyn_lessNoise_PlusLocalization,2021.2.3,59.94872637814461,
,,,,,,,,nearLeft,-6.5,1,ch1Sound_localizationTask.wav,-6.5,"(857, 878)","(-103,-202)",-95,-338,,,,,,,,,,,,,2,2,16,2,,,,,,,,,,,,,,,,,,,,,,,,,,,,,,,,,,,,,,,,1264.0059028435498,None,,,1267.022294527851,None,1.46984126984127,0.8832183107733727,1267.022294527851,None,,,,,,,1265.0063182292506,None,1265.1890640482306,1265.2057054452598,182,001,2024_Mar_11_1214,SpeechDraft1Carolyn_lessNoise_PlusLocalization,2021.2.3,59.94872637814461,
,,,,,,,,midRight,13.0,3,ch1Sound_localizationTask.wav,13.0,"(1142, 878)","(182, -202)",190,-338,,,,,,,,,,,,,2,3,17,5,,,,,,,,,,,,,,,,,,,,,,,,,,,,,,,,,,,,,,,,1267.9074082300067,None,,,1270.9390034070238,None,1.5915343915343916,0.29977404512465,1270.9390034070238,None,,,,,,,1268.9224039707333,None,1269.1060066185892,1269.1226574536413,182,001,2024_Mar_11_1214,SpeechDraft1Carolyn_lessNoise_PlusLocalization,2021.2.3,59.94872637814461,
,,,,,,,,midLeft,-13.0,2,ch1Sound_localizationTask.wav,-13.0,"(762, 878)","(-198,-202)",-190,-338,,,,,,,,,,,,,2,4,18,1,,,,,,,,,,,,,,,,,,,,,,,,,,,,,,,,,,,,,,,,1271.239227084443,None,,,1274.2558470694348,None,1.4015873015873015,0.09990934934467077,1274.2558470694348,None,,,,,,,1272.239393291995,None,1272.422589533031,1272.4392067138106,182,001,2024_Mar_11_1214,SpeechDraft1Carolyn_lessNoise_PlusLocalization,2021.2.3,59.94872637814461,
,,,,,,,,nearRight,6.5,0,ch1Sound_localizationTask.wav,6.5,"(1047, 878)","(87, -202)",95,-338,,,,,,,,,,,,,2,5,19,4,,,,,,,,,,,,,,,,,,,,,,,,,,,,,,,,,,,,,,,,1274.3565967269242,None,,,1277.3724173894152,None,1.537037037037037,0.082912877202034,1277.3724173894152,None,,,,,,,1275.3561097411439,None,1275.539115334861,1275.5561000937596,182,001,2024_Mar_11_1214,SpeechDraft1Carolyn_lessNoise_PlusLocalization,2021.2.3,59.94872637814461,
,,,,,,,,farLeft,-19.1,5,ch1Sound_localizationTask.wav,-19.1,"(667, 878)","(-293,-202)",-285,-338,,,,,,,,,,,,,2,6,20,0,,,,,,,,,,,,,,,,,,,,,,,,,,,,,,,,,,,,,,,,1277.456090389751,None,,,1280.472296308726,None,1.3873015873015873,0.3003436205908656,1280.472296308726,None,,,,,,,1278.456008114852,None,1278.6391601841897,1278.6560090575367,182,001,2024_Mar_11_1214,SpeechDraft1Carolyn_lessNoise_PlusLocalization,2021.2.3,59.94872637814461,
,,,,,,,,nearLeft,-6.5,1,ch1Sound_localizationTask.wav,-6.5,"(857, 878)","(-103,-202)",-95,-338,,,,,,,,,,,,,3,0,21,2,,,,,,,,,,,,,,,,,,,,,,,,,,,,,,,,,,,,,,,,1280.7892568148673,None,,,1283.805751811713,None,1.447089947089947,0.14885873533785343,1283.805751811713,None,,,,,,,1281.7891739858314,None,1281.972584394738,1281.989454288967,182,001,2024_Mar_11_1214,SpeechDraft1Carolyn_lessNoise_PlusLocalization,2021.2.3,59.94872637814461,
,,,,,,,,farLeft,-19.1,5,ch1Sound_localizationTask.wav,-19.1,"(667, 878)","(-293,-202)",-285,-338,,,,,,,,,,,,,3,1,22,0,,,,,,,,,,,,,,,,,,,,,,,,,,,,,,,,,,,,,,,,1283.9559311727062,None,,,1286.9723674925044,None,1.3645502645502645,0.24962068907916546,1286.9723674925044,None,,,,,,,1284.9559900769964,None,1285.1394447414204,1285.1557998917997,182,001,2024_Mar_11_1214,SpeechDraft1Carolyn_lessNoise_PlusLocalization,2021.2.3,59.94872637814461,
,,,,,,,,nearRight,6.5,0,ch1Sound_localizationTask.wav,6.5,"(1047, 878)","(87, -202)",95,-338,,,,,,,,,,,,,3,2,23,4,,,,,,,,,,,,,,,,,,,,,,,,,,,,,,,,,,,,,,,,1287.2230993313715,None,,,1290.238914059475,None,1.5402116402116404,0.29993778094649315,1290.238914059475,None,,,,,,,1288.2226019091904,None,1288.4058800125495,1288.4226524829865,182,001,2024_Mar_11_1214,SpeechDraft1Carolyn_lessNoise_PlusLocalization,2021.2.3,59.94872637814461,
,,,,,,,,midRight,13.0,3,ch1Sound_localizationTask.wav,13.0,"(1142, 878)","(182, -202)",190,-338,,,,,,,,,,,,,3,3,24,5,,,,,,,,,,,,,,,,,,,,,,,,,,,,,,,,,,,,,,,,1290.5397571949288,None,,,1293.5557152265683,None,1.5915343915343916,0.21592312026768923,1293.5557152265683,None,,,,,,,1291.5392781458795,None,1291.7225240161642,1291.7391354851425,182,001,2024_Mar_11_1214,SpeechDraft1Carolyn_lessNoise_PlusLocalization,2021.2.3,59.94872637814461,
,,,,,,,,center,0.0,6,ch1Sound_localizationTask.wav,0.0,"(952, 878)","(-8,-202)",0,-338,,,,,,,,,,,,,3,4,25,3,,,,,,,,,,,,,,,,,,,,,,,,,,,,,,,,,,,,,,,,1293.7724816706032,None,,,1296.7892114268616,None,1.4936507936507937,0.24948109593242407,1296.7892114268616,None,,,,,,,1294.7725505074486,None,1294.9560469705611,1294.9726012423635,182,001,2024_Mar_11_1214,SpeechDraft1Carolyn_lessNoise_PlusLocalization,2021.2.3,59.94872637814461,
,,,,,,,,nearLeft,-6.5,1,ch1Sound_localizationTask.wav,-6.5,"(857, 878)","(-103,-202)",-95,-338,,,,,,,,,,,,,3,5,26,2,,,,,,,,,,,,,,,,,,,,,,,,,,,,,,,,,,,,,,,,1297.0399547731504,None,,,1300.055630355142,None,1.4312169312169312,0.31540671177208424,1300.055630355142,None,,,,,,,1298.039492001757,None,1298.2227514022961,1298.2394409654662,182,001,2024_Mar_11_1214,SpeechDraft1Carolyn_lessNoise_PlusLocalization,2021.2.3,59.94872637814461,
,,,,,,,,nearRight,6.5,0,ch1Sound_localizationTask.wav,6.5,"(1047, 878)","(87, -202)",95,-338,,,,,,,,,,,,,3,6,27,4,,,,,,,,,,,,,,,,,,,,,,,,,,,,,,,,,,,,,,,,1300.3728358447552,None,,,1303.3893221365288,None,1.544973544973545,0.23251425474882126,1303.3893221365288,None,,,,,,,1301.3725903341547,None,1301.556081071496,1301.5726899364963,182,001,2024_Mar_11_1214,SpeechDraft1Carolyn_lessNoise_PlusLocalization,2021.2.3,59.94872637814461,
,,,,,,,,farLeft,-19.1,5,ch1Sound_localizationTask.wav,-19.1,"(667, 878)","(-293,-202)",-285,-338,,,,,,,,,,,,,4,0,28,0,,,,,,,,,,,,,,,,,,,,,,,,,,,,,,,,,,,,,,,,1303.6229354115203,None,,,1306.6390908975154,None,1.4253968253968254,0.11586460843682289,1306.6390908975154,None,,,,,,,1304.622816555202,None,1304.805755645968,1304.8224904462695,182,001,2024_Mar_11_1214,SpeechDraft1Carolyn_lessNoise_PlusLocalization,2021.2.3,59.94872637814461,
,,,,,,,,farLeft,-19.1,5,ch1Sound_localizationTask.wav,-19.1,"(667, 878)","(-293,-202)",-285,-338,,,,,,,,,,,,,4,1,29,0,,,,,,,,,,,,,,,,,,,,,,,,,,,,,,,,,,,,,,,,1306.7562944125384,None,,,1309.7723444132134,None,1.3962962962962964,0.38588976860046387,1309.7723444132134,None,,,,,,,1307.7560816640034,None,1307.9395778402686,1307.9558870010078,182,001,2024_Mar_11_1214,SpeechDraft1Carolyn_lessNoise_PlusLocalization,2021.2.3,59.94872637814461,
,,,,,,,,midLeft,-13.0,2,ch1Sound_localizationTask.wav,-13.0,"(762, 878)","(-198,-202)",-190,-338,,,,,,,,,,,,,4,2,30,1,,,,,,,,,,,,,,,,,,,,,,,,,,,,,,,,,,,,,,,,1310.1726709837094,None,,,1313.1890167826787,None,1.4433862433862434,0.13235800061374903,1313.1890167826787,None,,,,,,,1311.1728305630386,None,1311.3560047652572,1311.3725713426247,182,001,2024_Mar_11_1214,SpeechDraft1Carolyn_lessNoise_PlusLocalization,2021.2.3,59.94872637814461,
,,,,,,,,midRight,13.0,3,ch1Sound_localizationTask.wav,13.0,"(1142, 878)","(182, -202)",190,-338,,,,,,,,,,,,,4,3,31,5,,,,,,,,,,,,,,,,,,,,,,,,,,,,,,,,,,,,,,,,1313.3228670721874,None,,,1316.3389806514606,None,1.5497354497354499,0.10000545810908079,1316.3389806514606,None,,,,,,,1314.3225538572297,None,1314.5060250954702,1314.5226302640513,182,001,2024_Mar_11_1214,SpeechDraft1Carolyn_lessNoise_PlusLocalization,2021.2.3,59.94872637814461,
,,,,,,,,nearRight,6.5,0,ch1Sound_localizationTask.wav,6.5,"(1047, 878)","(87, -202)",95,-338,,,,,,,,,,,,,4,4,32,4,,,,,,,,,,,,,,,,,,,,,,,,,,,,,,,,,,,,,,,,1316.4400393655524,None,,,1319.455781430006,None,1.5544973544973546,0.16669436637312174,1319.455781430006,None,,,,,,,1317.4392710858956,None,1317.6226881416515,1317.6395119978115,182,001,2024_Mar_11_1214,SpeechDraft1Carolyn_lessNoise_PlusLocalization,2021.2.3,59.94872637814461,
,,,,,,,,midLeft,-13.0,2,ch1Sound_localizationTask.wav,-13.0,"(762, 878)","(-198,-202)",-190,-338,,,,,,,,,,,,,4,5,33,1,,,,,,,,,,,,,,,,,,,,,,,,,,,,,,,,,,,,,,,,1319.6233725408092,None,,,1322.6391258947551,None,1.4608465608465608,0.03237681929022074,1322.6391258947551,None,,,,,,,1320.6227182364091,None,1320.8060105340555,1320.8226089356467,182,001,2024_Mar_11_1214,SpeechDraft1Carolyn_lessNoise_PlusLocalization,2021.2.3,59.94872637814461,
,,,,,,,,center,0.0,6,ch1Sound_localizationTask.wav,0.0,"(952, 878)","(-8,-202)",0,-338,,,,,,,,,,,,,4,6,34,3,,,,,,,,,,,,,,,,,,,,,,,,,,,,,,,,,,,,,,,,1322.672767214477,None,,,1325.689174988307,None,1.5015873015873016,0.048746428452432156,1325.689174988307,None,,,,,,,1323.6726675024256,None,1323.855990522541,1323.8725789329037,182,001,2024_Mar_11_1214,SpeechDraft1Carolyn_lessNoise_PlusLocalization,2021.2.3,59.94872637814461,
,,,,,,,,farRight,19.1,4,ch1Sound_localizationTask.wav,19.1,"(1237, 878)","(277,-202)",285,-338,,,,,,,,,,,,,5,0,35,6,,,,,,,,,,,,,,,,,,,,,,,,,,,,,,,,,,,,,,,,1325.7395450277254,None,,,1328.7556817885488,None,1.5846560846560847,0.5162160461768508,1328.7556817885488,None,,,,,,,1326.7392209488899,None,1326.9225238831714,1326.93922743015,182,001,2024_Mar_11_1214,SpeechDraft1Carolyn_lessNoise_PlusLocalization,2021.2.3,59.94872637814461,
,,,,,,,,farRight,19.1,4,ch1Sound_localizationTask.wav,19.1,"(1237, 878)","(277,-202)",285,-338,,,,,,,,,,,,,5,1,36,6,,,,,,,,,,,,,,,,,,,,,,,,,,,,,,,,,,,,,,,,1329.2726591527462,None,,,1332.289128549397,None,1.6047619047619048,0.48332222644239664,1332.289128549397,None,,,,,,,1330.2727520540357,None,1330.4562183627859,1330.472735450603,182,001,2024_Mar_11_1214,SpeechDraft1Carolyn_lessNoise_PlusLocalization,2021.2.3,59.94872637814461,
,,,,,,,,nearLeft,-6.5,1,ch1Sound_localizationTask.wav,-6.5,"(857, 878)","(-103,-202)",-95,-338,,,,,,,,,,,,,5,2,37,2,,,,,,,,,,,,,,,,,,,,,,,,,,,,,,,,,,,,,,,,1332.773308669217,None,,,1335.7889218963683,None,1.4322751322751324,0.7997042816132307,1335.7889218963683,None,,,,,,,1333.7725661844015,None,1333.9559859512374,1333.972718491219,182,001,2024_Mar_11_1214,SpeechDraft1Carolyn_lessNoise_PlusLocalization,2021.2.3,59.94872637814461,
,,,,,,,,farRight,19.1,4,ch1Sound_localizationTask.wav,19.1,"(1237, 878)","(277,-202)",285,-338,,,,,,,,,,,,,5,3,38,6,,,,,,,,,,,,,,,,,,,,,,,,,,,,,,,,,,,,,,,,1336.6060618171468,None,,,1339.6223380332813,None,1.6142857142857143,0.9664501706138253,1339.6223380332813,None,,,,,,,1337.6059191590175,None,1337.7891621477902,1337.8059603832662,182,001,2024_Mar_11_1214,SpeechDraft1Carolyn_lessNoise_PlusLocalization,2021.2.3,59.94872637814461,
,,,,,,,,nearLeft,-6.5,1,ch1Sound_localizationTask.wav,-6.5,"(857, 878)","(-103,-202)",-95,-338,,,,,,,,,,,,,5,4,39,2,,,,,,,,,,,,,,,,,,,,,,,,,,,,,,,,,,,,,,,,1340.5898329745978,None,,,1343.6057357275859,None,1.3857142857142857,1.0660411166027188,1343.6057357275859,None,,,,,,,1341.5893205637112,None,1341.772641598247,1341.7894428344443,182,001,2024_Mar_11_1214,SpeechDraft1Carolyn_lessNoise_PlusLocalization,2021.2.3,59.94872637814461,
,,,,,,,,midLeft,-13.0,2,ch1Sound_localizationTask.wav,-13.0,"(762, 878)","(-198,-202)",-190,-338,,,,,,,,,,,,,5,5,40,1,,,,,,,,,,,,,,,,,,,,,,,,,,,,,,,,,,,,,,,,1344.6738353157416,None,,,1347.7060388149694,None,1.4296296296296296,0.5689743356779218,1347.7060388149694,None,,,,,,,1345.6894886782393,None,1345.8726588552818,1345.8895218698308,182,001,2024_Mar_11_1214,SpeechDraft1Carolyn_lessNoise_PlusLocalization,2021.2.3,59.94872637814461,
,,,,,,,,midLeft,-13.0,2,ch1Sound_localizationTask.wav,-13.0,"(762, 878)","(-198,-202)",-190,-338,,,,,,,,,,,,,5,6,41,1,,,,,,,,,,,,,,,,,,,,,,,,,,,,,,,,,,,,,,,,1348.2894837604836,None,,,1351.3058728650212,None,1.3973544973544973,0.665775733999908,1351.3058728650212,None,,,,,,,1349.2892573690042,None,1349.4725669017062,1349.4895102139562,182,001,2024_Mar_11_1214,SpeechDraft1Carolyn_lessNoise_PlusLocalization,2021.2.3,59.94872637814461,
,,,,,,,,farRight,19.1,4,ch1Sound_localizationTask.wav,19.1,"(1237, 878)","(277,-202)",285,-338,,,,,,,,,,,,,6,0,42,6,,,,,,,,,,,,,,,,,,,,,,,,,,,,,,,,,,,,,,,,1351.9728127159178,None,,,1354.9893277725205,None,1.5894179894179894,0.6835217298939824,1354.9893277725205,None,,,,,,,1352.9728020429611,None,1353.1559155732393,1353.1726108435541,182,001,2024_Mar_11_1214,SpeechDraft1Carolyn_lessNoise_PlusLocalization,2021.2.3,59.94872637814461,
,,,,,,,,midRight,13.0,3,ch1Sound_localizationTask.wav,13.0,"(1142, 878)","(182, -202)",190,-338,,,,,,,,,,,,,6,1,43,5,,,,,,,,,,,,,,,,,,,,,,,,,,,,,,,,,,,,,,,,1355.689232182689,None,,,1358.7060472974554,None,1.6026455026455027,0.5660991836339235,1358.7060472974554,None,,,,,,,1356.689405841753,None,1356.8728261459619,1356.889468125999,182,001,2024_Mar_11_1214,SpeechDraft1Carolyn_lessNoise_PlusLocalization,2021.2.3,59.94872637814461,
,,,,,,,,nearRight,6.5,0,ch1Sound_localizationTask.wav,6.5,"(1047, 878)","(87, -202)",95,-338,,,,,,,,,,,,,6,2,44,4,,,,,,,,,,,,,,,,,,,,,,,,,,,,,,,,,,,,,,,,1359.2727829813957,None,,,1362.2889670906588,None,1.5349206349206348,0.8999013900756836,1362.2889670906588,None,,,,,,,1360.2725992910564,None,1360.4558961763978,1360.4728353014216,182,001,2024_Mar_11_1214,SpeechDraft1Carolyn_lessNoise_PlusLocalization,2021.2.3,59.94872637814461,
,,,,,,,,nearRight,6.5,0,ch1Sound_localizationTask.wav,6.5,"(1047, 878)","(87, -202)",95,-338,,,,,,,,,,,,,6,3,45,4,,,,,,,,,,,,,,,,,,,,,,,,,,,,,,,,,,,,,,,,1363.205983969383,None,,,1366.2225307952613,None,1.5915343915343916,0.6315890764817595,1366.2225307952613,None,,,,,,,1364.20603333693,None,1364.3894167914987,1364.4058870393783,182,001,2024_Mar_11_1214,SpeechDraft1Carolyn_lessNoise_PlusLocalization,2021.2.3,59.94872637814461,
,,,,,,,,nearRight,6.5,0,ch1Sound_localizationTask.wav,6.5,"(1047, 878)","(87, -202)",95,-338,,,,,,,,,,,,,6,4,46,4,,,,,,,,,,,,,,,,,,,,,,,,,,,,,,,,,,,,,,,,1366.856104700826,None,,,1369.8725944021717,None,1.5507936507936508,0.7987767811864614,1369.8725944021717,None,,,,,,,1367.8559055570513,None,1368.0395261896774,1368.0558775868267,182,001,2024_Mar_11_1214,SpeechDraft1Carolyn_lessNoise_PlusLocalization,2021.2.3,59.94872637814461,
,,,,,,,,nearLeft,-6.5,1,ch1Sound_localizationTask.wav,-6.5,"(857, 878)","(-103,-202)",-95,-338,,,,,,,,,,,,,6,5,47,2,,,,,,,,,,,,,,,,,,,,,,,,,,,,,,,,,,,,,,,,1370.6726097017527,None,,,1373.6890767393634,None,1.4703703703703703,0.6503210095688701,1373.6890767393634,None,,,,,,,1371.6727163847536,None,1371.855974859558,1371.8726683733985,182,001,2024_Mar_11_1214,SpeechDraft1Carolyn_lessNoise_PlusLocalization,2021.2.3,59.94872637814461,
,,,,,,,,midLeft,-13.0,2,ch1Sound_localizationTask.wav,-13.0,"(762, 878)","(-198,-202)",-190,-338,,,,,,,,,,,,,6,6,48,1,,,,,,,,,,,,,,,,,,,,,,,,,,,,,,,,,,,,,,,,1374.3561313385144,None,,,1377.372619394213,None,1.4216931216931217,0.7996683018282056,1377.372619394213,None,,,,,,,1375.356218593195,None,1375.5392976654693,1375.5559364287183,182,001,2024_Mar_11_1214,SpeechDraft1Carolyn_lessNoise_PlusLocalization,2021.2.3,59.94872637814461,
,,,,,,,,midRight,13.0,3,ch1Sound_localizationTask.wav,13.0,"(1142, 878)","(182, -202)",190,-338,,,,,,,,,,,,,7,0,49,5,,,,,,,,,,,,,,,,,,,,,,,,,,,,,,,,,,,,,,,,1378.1732402201742,None,,,1381.1892421990633,None,1.5396825396825395,0.782273868098855,1381.1892421990633,None,,,,,,,1379.172713138163,None,1379.3559167543426,1379.3726691193879,182,001,2024_Mar_11_1214,SpeechDraft1Carolyn_lessNoise_PlusLocalization,2021.2.3,59.94872637814461,
,,,,,,,,nearLeft,-6.5,1,ch1Sound_localizationTask.wav,-6.5,"(857, 878)","(-103,-202)",-95,-338,,,,,,,,,,,,,7,1,50,2,,,,,,,,,,,,,,,,,,,,,,,,,,,,,,,,,,,,,,,,1381.9726383127272,None,,,1384.9894575159997,None,1.4063492063492062,1.098958713002503,1384.9894575159997,None,,,,,,,1382.9725120114163,None,1383.156276119873,1383.1727434769273,182,001,2024_Mar_11_1214,SpeechDraft1Carolyn_lessNoise_PlusLocalization,2021.2.3,59.94872637814461,
,,,,,,,,midRight,13.0,3,ch1Sound_localizationTask.wav,13.0,"(1142, 878)","(182, -202)",190,-338,,,,,,,,,,,,,7,2,51,5,,,,,,,,,,,,,,,,,,,,,,,,,,,,,,,,,,,,,,,,1386.0904503818601,None,,,1389.1059614783153,None,1.561904761904762,0.5828973790630698,1389.1059614783153,None,,,,,,,1387.0894237319008,None,1387.2728990148753,1387.2891498720273,182,001,2024_Mar_11_1214,SpeechDraft1Carolyn_lessNoise_PlusLocalization,2021.2.3,59.94872637814461,
,,,,,,,,midLeft,-13.0,2,ch1Sound_localizationTask.wav,-13.0,"(762, 878)","(-198,-202)",-190,-338,,,,,,,,,,,,,7,3,52,1,,,,,,,,,,,,,,,,,,,,,,,,,,,,,,,,,,,,,,,,1389.706097937189,None,,,1392.7222865000367,None,1.3925925925925926,0.5009400621056557,1392.7222865000367,None,,,,,,,1390.7063593119383,None,1390.8894254751503,1390.9062093384564,182,001,2024_Mar_11_1214,SpeechDraft1Carolyn_lessNoise_PlusLocalization,2021.2.3,59.94872637814461,
,,,,,,,,center,0.0,6,ch1Sound_localizationTask.wav,0.0,"(952, 878)","(-8,-202)",0,-338,,,,,,,,,,,,,7,4,53,3,,,,,,,,,,,,,,,,,,,,,,,,,,,,,,,,,,,,,,,,1393.2397040361539,None,,,1396.2558773718774,None,1.4862433862433861,0.9666167441755533,1396.2558773718774,None,,,,,,,1394.239481012337,None,1394.4228450916708,1394.4396429760382,182,001,2024_Mar_11_1214,SpeechDraft1Carolyn_lessNoise_PlusLocalization,2021.2.3,59.94872637814461,
,,,,,,,,midLeft,-13.0,2,ch1Sound_localizationTask.wav,-13.0,"(762, 878)","(-198,-202)",-190,-338,,,,,,,,,,,,,7,5,54,1,,,,,,,,,,,,,,,,,,,,,,,,,,,,,,,,,,,,,,,,1397.222974468954,None,,,1400.2389974305406,None,1.3846560846560847,0.9175715697929263,1400.2389974305406,None,,,,,,,1398.222778700292,None,1398.4059390155599,1398.4226713730022,182,001,2024_Mar_11_1214,SpeechDraft1Carolyn_lessNoise_PlusLocalization,2021.2.3,59.94872637814461,
,,,,,,,,farRight,19.1,4,ch1Sound_localizationTask.wav,19.1,"(1237, 878)","(277,-202)",285,-338,,,,,,,,,,,,,7,6,55,6,,,,,,,,,,,,,,,,,,,,,,,,,,,,,,,,,,,,,,,,1401.1727540167049,None,,,1404.1890902379528,None,1.3952380952380952,0.28270893916487694,1404.1890902379528,None,,,,,,,1402.1726531712338,None,1402.356170695275,1402.3725356673822,182,001,2024_Mar_11_1214,SpeechDraft1Carolyn_lessNoise_PlusLocalization,2021.2.3,59.94872637814461,
