{"meta_data":{"additional_headers":{},"game_name":"Recollect","version":"2.53.01","user_name":"182","organization":"braingamecenter","study":"mpl2_2022_11","session_number":0,"device_id":"74342D95-EE82-45E3-8ADF-48FB3203C5DD"},"data":[{"trial":0,"action":1,"button_pressed":5,"time_out":false,"dwell_time":98.053955078125,"response_time":1710180376759.57},{"trial":0,"action":1,"button_pressed":3,"time_out":false,"dwell_time":64.39892578125,"response_time":1710180377109.1},{"trial":0,"action":9,"button_pressed":-1,"time_out":false,"dwell_time":58.368896484375,"response_time":1710180377519.37},{"trial":1,"action":1,"button_pressed":7,"time_out":false,"dwell_time":63.661865234375,"response_time":1710180387122.67},{"trial":1,"action":1,"button_pressed":3,"time_out":false,"dwell_time":63.8349609375,"response_time":1710180387538.43},{"trial":1,"action":1,"button_pressed":2,"time_out":false,"dwell_time":79.468994140625,"response_time":1710180387905},{"trial":1,"action":9,"button_pressed":-1,"time_out":false,"dwell_time":16.4609375,"response_time":1710180389371.39},{"trial":2,"action":1,"button_pressed":2,"time_out":false,"dwell_time":81.704833984375,"response_time":1710180401235.04},{"trial":2,"action":1,"button_pressed":4,"time_out":false,"dwell_time":61.051025390625,"response_time":1710180401583.43},{"trial":2,"action":1,"button_pressed":10,"time_out":false,"dwell_time":80.56103515625,"response_time":1710180401933.81},{"trial":2,"action":1,"button_pressed":5,"time_out":false,"dwell_time":64.47900390625,"response_time":1710180402384.25},{"trial":2,"action":9,"button_pressed":-1,"time_out":false,"dwell_time":47.530029296875,"response_time":1710180402834.38},{"trial":3,"action":1,"button_pressed":4,"time_out":false,"dwell_time":98.156005859375,"response_time":1710180417179.67},{"trial":3,"action":1,"button_pressed":10,"time_out":false,"dwell_time":97.864990234375,"response_time":1710180417579.52},{"trial":3,"action":1,"button_pressed":11,"time_out":false,"dwell_time":81.253173828125,"response_time":1710180418095.97},{"trial":3,"action":1,"button_pressed":5,"time_out":false,"dwell_time":98.010986328125,"response_time":1710180419395.65},{"trial":3,"action":1,"button_pressed":3,"time_out":false,"dwell_time":81.2041015625,"response_time":1710180420045.31},{"trial":3,"action":1,"button_pressed":10,"time_out":false,"dwell_time":97.787841796875,"response_time":1710180420745.04},{"trial":3,"action":9,"button_pressed":-1,"time_out":false,"dwell_time":81.27392578125,"response_time":1710180421845.26},{"trial":4,"action":1,"button_pressed":5,"time_out":false,"dwell_time":63.427001953125,"response_time":1710180436939.46},{"trial":4,"action":1,"button_pressed":6,"time_out":false,"dwell_time":80.294921875,"response_time":1710180438355.4},{"trial":4,"action":1,"button_pressed":9,"time_out":false,"dwell_time":81.362060546875,"response_time":1710180438706.25},{"trial":4,"action":1,"button_pressed":8,"time_out":false,"dwell_time":62.6728515625,"response_time":1710180439171.68},{"trial":4,"action":1,"button_pressed":7,"time_out":false,"dwell_time":81.026123046875,"response_time":1710180439722.22},{"trial":4,"action":9,"button_pressed":-1,"time_out":false,"dwell_time":48.943115234375,"response_time":1710180440522.85},{"trial":5,"action":1,"button_pressed":8,"time_out":false,"dwell_time":64.033935546875,"response_time":1710180450202.63},{"trial":5,"action":1,"button_pressed":11,"time_out":false,"dwell_time":63.505126953125,"response_time":1710180450668},{"trial":5,"action":1,"button_pressed":5,"time_out":false,"dwell_time":47.068115234375,"response_time":1710180451201.84},{"trial":5,"action":9,"button_pressed":-1,"time_out":false,"dwell_time":64.408935546875,"response_time":1710180451602.27},{"trial":6,"action":1,"button_pressed":0,"time_out":false,"dwell_time":63.865966796875,"response_time":1710180463447.46},{"trial":6,"action":1,"button_pressed":10,"time_out":false,"dwell_time":63.06298828125,"response_time":1710180463880.47},{"trial":6,"action":1,"button_pressed":2,"time_out":false,"dwell_time":63.780029296875,"response_time":1710180464313.67},{"trial":6,"action":1,"button_pressed":6,"time_out":false,"dwell_time":80.85986328125,"response_time":1710180464830.85},{"trial":6,"action":9,"button_pressed":-1,"time_out":false,"dwell_time":98.38818359375,"response_time":1710180465331.13},{"trial":7,"action":1,"button_pressed":7,"time_out":false,"dwell_time":80.3310546875,"response_time":1710180480242.65},{"trial":7,"action":1,"button_pressed":4,"time_out":false,"dwell_time":97.11181640625,"response_time":1710180480824.93},{"trial":7,"action":1,"button_pressed":11,"time_out":false,"dwell_time":63.529052734375,"response_time":1710180481341.34},{"trial":7,"action":1,"button_pressed":3,"time_out":false,"dwell_time":80.5048828125,"response_time":1710180481858.9},{"trial":7,"action":1,"button_pressed":10,"time_out":false,"dwell_time":62.623046875,"response_time":1710180482191.16},{"trial":7,"action":9,"button_pressed":-1,"time_out":false,"dwell_time":81.1650390625,"response_time":1710180482742.27},{"trial":8,"action":1,"button_pressed":4,"time_out":false,"dwell_time":114.931884765625,"response_time":1710180499869.93},{"trial":8,"action":1,"button_pressed":11,"time_out":false,"dwell_time":31.56103515625,"response_time":1710180500769.64},{"trial":8,"action":1,"button_pressed":7,"time_out":false,"dwell_time":97.630126953125,"response_time":1710180501402.36},{"trial":8,"action":1,"button_pressed":3,"time_out":false,"dwell_time":63.575927734375,"response_time":1710180502235.32},{"trial":8,"action":1,"button_pressed":2,"time_out":false,"dwell_time":97.093994140625,"response_time":1710180502951.14},{"trial":8,"action":1,"button_pressed":10,"time_out":false,"dwell_time":80.241943359375,"response_time":1710180503485.07},{"trial":8,"action":1,"button_pressed":6,"time_out":false,"dwell_time":63.47509765625,"response_time":1710180504018.08},{"trial":8,"action":1,"button_pressed":9,"time_out":false,"dwell_time":48.2861328125,"response_time":1710180508300.48},{"trial":8,"action":9,"button_pressed":-1,"time_out":false,"dwell_time":98.719970703125,"response_time":1710180510499.93},{"trial":9,"action":1,"button_pressed":1,"time_out":false,"dwell_time":114.9208984375,"response_time":1710180528077.2},{"trial":9,"action":1,"button_pressed":9,"time_out":false,"dwell_time":63.856201171875,"response_time":1710180530926.18},{"trial":9,"action":1,"button_pressed":5,"time_out":false,"dwell_time":79.6708984375,"response_time":1710180531658.41},{"trial":9,"action":1,"button_pressed":7,"time_out":false,"dwell_time":47.39990234375,"response_time":1710180532342.71},{"trial":9,"action":1,"button_pressed":6,"time_out":false,"dwell_time":80.242919921875,"response_time":1710180533257.96},{"trial":9,"action":1,"button_pressed":2,"time_out":false,"dwell_time":97.763916015625,"response_time":1710180533925.1},{"trial":9,"action":9,"button_pressed":-1,"time_out":false,"dwell_time":32.39404296875,"response_time":1710180535125.68}]}