{"meta_data":{"additional_headers":{},"game_name":"Recollect","version":"2.53.01","user_name":"183","organization":"braingamecenter","study":"mpl2_2022_11","session_number":0,"device_id":"74342D95-EE82-45E3-8ADF-48FB3203C5DD"},"data":[{"trial":0,"action":1,"button_pressed":11,"time_out":false,"dwell_time":64.184814453125,"response_time":1710197206834.65},{"trial":0,"action":1,"button_pressed":8,"time_out":false,"dwell_time":46.64990234375,"response_time":1710197207501.25},{"trial":0,"action":9,"button_pressed":-1,"time_out":false,"dwell_time":73.322021484375,"response_time":1710197208227.8},{"trial":1,"action":1,"button_pressed":9,"time_out":false,"dwell_time":47.861083984375,"response_time":1710197217965.68},{"trial":1,"action":1,"button_pressed":1,"time_out":false,"dwell_time":64.0458984375,"response_time":1710197219113.71},{"trial":1,"action":1,"button_pressed":3,"time_out":false,"dwell_time":62.949951171875,"response_time":1710197219496.87},{"trial":1,"action":9,"button_pressed":-1,"time_out":false,"dwell_time":63.85009765625,"response_time":1710197220130.58},{"trial":2,"action":1,"button_pressed":6,"time_out":false,"dwell_time":46.93701171875,"response_time":1710197232293.25},{"trial":2,"action":1,"button_pressed":8,"time_out":false,"dwell_time":46.81396484375,"response_time":1710197232909.7},{"trial":2,"action":1,"button_pressed":11,"time_out":false,"dwell_time":63.302978515625,"response_time":1710197233559.52},{"trial":2,"action":1,"button_pressed":7,"time_out":false,"dwell_time":63.580078125,"response_time":1710197234059.35},{"trial":2,"action":9,"button_pressed":-1,"time_out":false,"dwell_time":98.81494140625,"response_time":1710197235026.58},{"trial":3,"action":1,"button_pressed":11,"time_out":false,"dwell_time":81.216064453125,"response_time":1710197249787.85},{"trial":3,"action":1,"button_pressed":1,"time_out":false,"dwell_time":64.0380859375,"response_time":1710197250353.61},{"trial":3,"action":1,"button_pressed":9,"time_out":false,"dwell_time":97.15283203125,"response_time":1710197250903.46},{"trial":3,"action":1,"button_pressed":7,"time_out":false,"dwell_time":46.698974609375,"response_time":1710197251370.19},{"trial":3,"action":1,"button_pressed":4,"time_out":false,"dwell_time":46.6669921875,"response_time":1710197251936.59},{"trial":3,"action":9,"button_pressed":-1,"time_out":false,"dwell_time":81.14794921875,"response_time":1710197252636.43},{"trial":4,"action":1,"button_pressed":5,"time_out":false,"dwell_time":63.911865234375,"response_time":1710197269747.16},{"trial":4,"action":1,"button_pressed":10,"time_out":false,"dwell_time":63.486083984375,"response_time":1710197270847.29},{"trial":4,"action":1,"button_pressed":7,"time_out":false,"dwell_time":63.416015625,"response_time":1710197272212.86},{"trial":4,"action":1,"button_pressed":4,"time_out":false,"dwell_time":80.083984375,"response_time":1710197272913.44},{"trial":4,"action":1,"button_pressed":0,"time_out":false,"dwell_time":63.74609375,"response_time":1710197273346.45},{"trial":4,"action":1,"button_pressed":8,"time_out":false,"dwell_time":47.35400390625,"response_time":1710197273813.47},{"trial":4,"action":9,"button_pressed":-1,"time_out":false,"dwell_time":98.365966796875,"response_time":1710197278478.57},{"trial":5,"action":1,"button_pressed":4,"time_out":false,"dwell_time":80.77001953125,"response_time":1710197298154.49},{"trial":5,"action":1,"button_pressed":2,"time_out":false,"dwell_time":64.4541015625,"response_time":1710197298521.51},{"trial":5,"action":1,"button_pressed":6,"time_out":false,"dwell_time":64.339111328125,"response_time":1710197298971.36},{"trial":5,"action":1,"button_pressed":8,"time_out":false,"dwell_time":81.220947265625,"response_time":1710197299404.73},{"trial":5,"action":1,"button_pressed":1,"time_out":false,"dwell_time":46.59521484375,"response_time":1710197299904.11},{"trial":5,"action":1,"button_pressed":9,"time_out":false,"dwell_time":63.5439453125,"response_time":1710197300370.19},{"trial":5,"action":1,"button_pressed":0,"time_out":false,"dwell_time":63.76708984375,"response_time":1710197300903.35},{"trial":5,"action":9,"button_pressed":-1,"time_out":false,"dwell_time":81.670166015625,"response_time":1710197303786.86},{"trial":6,"action":1,"button_pressed":7,"time_out":false,"dwell_time":63.362060546875,"response_time":1710197326561.69},{"trial":6,"action":1,"button_pressed":5,"time_out":false,"dwell_time":80.4931640625,"response_time":1710197327161.36},{"trial":6,"action":1,"button_pressed":3,"time_out":false,"dwell_time":63.784912109375,"response_time":1710197327661.2},{"trial":6,"action":1,"button_pressed":4,"time_out":false,"dwell_time":63.468017578125,"response_time":1710197328244.71},{"trial":6,"action":1,"button_pressed":1,"time_out":false,"dwell_time":46.821044921875,"response_time":1710197328794.59},{"trial":6,"action":1,"button_pressed":10,"time_out":false,"dwell_time":63.506103515625,"response_time":1710197329260.68},{"trial":6,"action":1,"button_pressed":2,"time_out":false,"dwell_time":63.507080078125,"response_time":1710197329794.55},{"trial":6,"action":9,"button_pressed":-1,"time_out":false,"dwell_time":81.391845703125,"response_time":1710197330527.89},{"trial":7,"action":1,"button_pressed":0,"time_out":false,"dwell_time":64.026123046875,"response_time":1710197354469.43},{"trial":7,"action":1,"button_pressed":8,"time_out":false,"dwell_time":63.6650390625,"response_time":1710197354868.98},{"trial":7,"action":1,"button_pressed":6,"time_out":false,"dwell_time":81.256103515625,"response_time":1710197355253.3},{"trial":7,"action":1,"button_pressed":5,"time_out":false,"dwell_time":78.995849609375,"response_time":1710197355717.44},{"trial":7,"action":1,"button_pressed":9,"time_out":false,"dwell_time":46.63916015625,"response_time":1710197356235.68},{"trial":7,"action":1,"button_pressed":4,"time_out":false,"dwell_time":63.087890625,"response_time":1710197360750.87},{"trial":7,"action":1,"button_pressed":2,"time_out":false,"dwell_time":63.827880859375,"response_time":1710197361100.92},{"trial":7,"action":1,"button_pressed":7,"time_out":false,"dwell_time":63.512939453125,"response_time":1710197361550.29},{"trial":7,"action":9,"button_pressed":-1,"time_out":false,"dwell_time":48.114990234375,"response_time":1710197362267.95},{"trial":8,"action":1,"button_pressed":4,"time_out":false,"dwell_time":98.236083984375,"response_time":1710197380111.85},{"trial":8,"action":1,"button_pressed":11,"time_out":false,"dwell_time":64.490966796875,"response_time":1710197380661.26},{"trial":8,"action":1,"button_pressed":3,"time_out":false,"dwell_time":47.552978515625,"response_time":1710197381078.29},{"trial":8,"action":1,"button_pressed":2,"time_out":false,"dwell_time":63.72314453125,"response_time":1710197381510.98},{"trial":8,"action":1,"button_pressed":6,"time_out":false,"dwell_time":63.007080078125,"response_time":1710197381877.09},{"trial":8,"action":1,"button_pressed":10,"time_out":false,"dwell_time":63.958984375,"response_time":1710197382227.76},{"trial":8,"action":9,"button_pressed":-1,"time_out":false,"dwell_time":63.742919921875,"response_time":1710197382960.19},{"trial":9,"action":1,"button_pressed":3,"time_out":false,"dwell_time":97.77294921875,"response_time":1710197402370.77},{"trial":9,"action":1,"button_pressed":7,"time_out":false,"dwell_time":62.7578125,"response_time":1710197402736.52},{"trial":9,"action":1,"button_pressed":4,"time_out":false,"dwell_time":62.953857421875,"response_time":1710197403286.35},{"trial":9,"action":1,"button_pressed":10,"time_out":false,"dwell_time":63.406005859375,"response_time":1710197403652.97},{"trial":9,"action":1,"button_pressed":2,"time_out":false,"dwell_time":63.72802734375,"response_time":1710197404036.1},{"trial":9,"action":1,"button_pressed":9,"time_out":false,"dwell_time":63.533935546875,"response_time":1710197404403.43},{"trial":9,"action":9,"button_pressed":-1,"time_out":false,"dwell_time":64.14404296875,"response_time":1710197405036.29},{"trial":10,"action":1,"button_pressed":0,"time_out":false,"dwell_time":97.10888671875,"response_time":1710197424412.82},{"trial":10,"action":1,"button_pressed":3,"time_out":false,"dwell_time":97.62890625,"response_time":1710197424846.71},{"trial":10,"action":1,"button_pressed":10,"time_out":false,"dwell_time":62.777099609375,"response_time":1710197425245.7},{"trial":10,"action":1,"button_pressed":5,"time_out":false,"dwell_time":81.123046875,"response_time":1710197425696.28},{"trial":10,"action":1,"button_pressed":4,"time_out":false,"dwell_time":63.62890625,"response_time":1710197426062.92},{"trial":10,"action":1,"button_pressed":1,"time_out":false,"dwell_time":80.9931640625,"response_time":1710197426446.08},{"trial":10,"action":1,"button_pressed":2,"time_out":false,"dwell_time":47.373046875,"response_time":1710197426863.04},{"trial":10,"action":9,"button_pressed":-1,"time_out":false,"dwell_time":47.013916015625,"response_time":1710197427329.4},{"trial":11,"action":1,"button_pressed":2,"time_out":false,"dwell_time":66.0859375,"response_time":1710197447189.58},{"trial":11,"action":1,"button_pressed":6,"time_out":false,"dwell_time":46.6611328125,"response_time":1710197447622.11},{"trial":11,"action":1,"button_pressed":9,"time_out":false,"dwell_time":47.382080078125,"response_time":1710197447855.55},{"trial":11,"action":1,"button_pressed":0,"time_out":false,"dwell_time":47.66796875,"response_time":1710197448206.24},{"trial":11,"action":1,"button_pressed":3,"time_out":false,"dwell_time":47.493896484375,"response_time":1710197448456.03},{"trial":11,"action":1,"button_pressed":10,"time_out":false,"dwell_time":64.392822265625,"response_time":1710197449205.45},{"trial":11,"action":1,"button_pressed":7,"time_out":false,"dwell_time":47.758056640625,"response_time":1710197449605.09},{"trial":11,"action":9,"button_pressed":-1,"time_out":false,"dwell_time":64.359130859375,"response_time":1710197452521.32},{"trial":12,"action":1,"button_pressed":3,"time_out":false,"dwell_time":48.23193359375,"response_time":1710197474997.37},{"trial":12,"action":1,"button_pressed":1,"time_out":false,"dwell_time":46.524169921875,"response_time":1710197475263.15},{"trial":12,"action":1,"button_pressed":8,"time_out":false,"dwell_time":63.18701171875,"response_time":1710197476796.07},{"trial":12,"action":1,"button_pressed":5,"time_out":false,"dwell_time":47.468017578125,"response_time":1710197477295.76},{"trial":12,"action":1,"button_pressed":7,"time_out":false,"dwell_time":80.39990234375,"response_time":1710197477812.55},{"trial":12,"action":1,"button_pressed":10,"time_out":false,"dwell_time":63.7138671875,"response_time":1710197479795.37},{"trial":12,"action":1,"button_pressed":0,"time_out":false,"dwell_time":63.571044921875,"response_time":1710197480310.95},{"trial":12,"action":9,"button_pressed":-1,"time_out":false,"dwell_time":47.99609375,"response_time":1710197480961.57},{"trial":13,"action":1,"button_pressed":11,"time_out":false,"dwell_time":81.073974609375,"response_time":1710197503637.49},{"trial":13,"action":1,"button_pressed":3,"time_out":false,"dwell_time":63.7529296875,"response_time":1710197504003.13},{"trial":13,"action":1,"button_pressed":9,"time_out":false,"dwell_time":63.7861328125,"response_time":1710197504420.53},{"trial":13,"action":1,"button_pressed":7,"time_out":false,"dwell_time":79.8662109375,"response_time":1710197504836.16},{"trial":13,"action":1,"button_pressed":2,"time_out":false,"dwell_time":66.658935546875,"response_time":1710197507169.53},{"trial":13,"action":1,"button_pressed":4,"time_out":false,"dwell_time":63.60205078125,"response_time":1710197507535.96},{"trial":13,"action":1,"button_pressed":10,"time_out":false,"dwell_time":46.507080078125,"response_time":1710197507969},{"trial":13,"action":1,"button_pressed":1,"time_out":false,"dwell_time":47.388916015625,"response_time":1710197508602.05},{"trial":13,"action":9,"button_pressed":-1,"time_out":false,"dwell_time":30.50390625,"response_time":1710197509318.92}]}