{"meta_data":{"additional_headers":{},"game_name":"Recollect","version":"2.53.01","user_name":"183","organization":"braingamecenter","study":"mpl2_2022_11","session_number":0,"device_id":"74342D95-EE82-45E3-8ADF-48FB3203C5DD"},"data":[{"stage":"Practice","trial":0,"sequence":"6F","letter_input":"F","number_input":"6","is_correct":true,"presentation_start_time":1710197555501.32,"presentation_end_time":1710197558504.34,"response_time":1710197566416.09},{"stage":"Practice","trial":1,"sequence":"G4","letter_input":"G","number_input":"4","is_correct":true,"presentation_start_time":1710197567947.09,"presentation_end_time":1710197570950.24,"response_time":1710197575544.8},{"stage":"Practice","trial":2,"sequence":"3W5","letter_input":"W","number_input":"35","is_correct":true,"presentation_start_time":1710197577077.37,"presentation_end_time":1710197581580.04,"response_time":1710197586740.98},{"stage":"Practice","trial":3,"sequence":"T7L","letter_input":"LT","number_input":"3","is_correct":false,"presentation_start_time":1710197588273.77,"presentation_end_time":1710197592776.21,"response_time":1710197603485.47},{"stage":"Practice","trial":4,"sequence":"9J1","letter_input":"J","number_input":"19","is_correct":true,"presentation_start_time":1710197606517.72,"presentation_end_time":1710197611020.32,"response_time":1710197615164.95},{"stage":"Calibration","trial":0,"sequence":"7R","letter_input":"R","number_input":"7","is_correct":true,"presentation_start_time":1710197632075.88,"presentation_end_time":1710197635079.06,"response_time":1710197638274.05},{"stage":"Calibration","trial":1,"sequence":"M9","letter_input":"M","number_input":"9","is_correct":true,"presentation_start_time":1710197639806.74,"presentation_end_time":1710197642809.71,"response_time":1710197647021.12},{"stage":"Calibration","trial":2,"sequence":"8L1","letter_input":"L","number_input":"18","is_correct":true,"presentation_start_time":1710197648553.92,"presentation_end_time":1710197653056.47,"response_time":1710197657900.86},{"stage":"Calibration","trial":3,"sequence":"P4H","letter_input":"HP","number_input":"9","is_correct":false,"presentation_start_time":1710197659433.55,"presentation_end_time":1710197663936.09,"response_time":1710197668580.73},{"stage":"Calibration","trial":4,"sequence":"9S6A","letter_input":"AS","number_input":"69","is_correct":true,"presentation_start_time":1710197670113.32,"presentation_end_time":1710197676115.5,"response_time":1710197680810.04},{"stage":"Calibration","trial":5,"sequence":"R5P1","letter_input":"RP","number_input":"15","is_correct":false,"presentation_start_time":1710197682342.68,"presentation_end_time":1710197688344.64,"response_time":1710197693872.32},{"stage":"Calibration","trial":6,"sequence":"3N8C6","letter_input":"NP","number_input":"368","is_correct":false,"presentation_start_time":1710197695405.02,"presentation_end_time":1710197702906.49,"response_time":1710197707184.57},{"stage":"Calibration","trial":7,"sequence":"V7P1J","letter_input":"JPV","number_input":"17","is_correct":true,"presentation_start_time":1710197708717.32,"presentation_end_time":1710197716218.9,"response_time":1710197730510.29},{"stage":"Calibration","trial":8,"sequence":"4B2S8H","letter_input":"AHP","number_input":"248","is_correct":false,"presentation_start_time":1710197732043.12,"presentation_end_time":1710197741044.06,"response_time":1710197750153.72},{"stage":"Calibration","trial":9,"sequence":"L5V1N9","letter_input":"HJP","number_input":"159","is_correct":false,"presentation_start_time":1710197751686.47,"presentation_end_time":1710197760687.62,"response_time":1710197770280.44}]}