{"meta_data":{"additional_headers":{},"game_name":"Recollect","version":"2.53.01","user_name":"184","organization":"braingamecenter","study":"mpl2_2022_11","session_number":0,"device_id":"74342D95-EE82-45E3-8ADF-48FB3203C5DD"},"data":[{"stage":"Practice","trial":0,"sequence":"6F","letter_input":"F","number_input":"6","is_correct":true,"presentation_start_time":1710280603382.12,"presentation_end_time":1710280606384.96,"response_time":1710280612847.56},{"stage":"Practice","trial":1,"sequence":"G4","letter_input":"G","number_input":"4","is_correct":true,"presentation_start_time":1710280614378.71,"presentation_end_time":1710280617381.92,"response_time":1710280621759.89},{"stage":"Practice","trial":2,"sequence":"3W5","letter_input":"W","number_input":"35","is_correct":true,"presentation_start_time":1710280623292.47,"presentation_end_time":1710280627795.13,"response_time":1710280633622.72},{"stage":"Practice","trial":3,"sequence":"T7L","letter_input":"LT","number_input":"7","is_correct":true,"presentation_start_time":1710280635155.53,"presentation_end_time":1710280639658.09,"response_time":1710280646935.13},{"stage":"Practice","trial":4,"sequence":"9J1","letter_input":"J","number_input":"19","is_correct":true,"presentation_start_time":1710280648467.9,"presentation_end_time":1710280652970.58,"response_time":1710280658048.24},{"stage":"Calibration","trial":0,"sequence":"Z2","letter_input":"Z","number_input":"2","is_correct":true,"presentation_start_time":1710280669777.79,"presentation_end_time":1710280672780.87,"response_time":1710280676825.7},{"stage":"Calibration","trial":1,"sequence":"6G","letter_input":"G","number_input":"6","is_correct":true,"presentation_start_time":1710280678358.5,"presentation_end_time":1710280681361.56,"response_time":1710280685506.28},{"stage":"Calibration","trial":2,"sequence":"Z9N","letter_input":"NZ","number_input":"9","is_correct":true,"presentation_start_time":1710280687039.04,"presentation_end_time":1710280691541.66,"response_time":1710280697335.92},{"stage":"Calibration","trial":3,"sequence":"7E4","letter_input":"E","number_input":"47","is_correct":true,"presentation_start_time":1710280698868.58,"presentation_end_time":1710280703371.33,"response_time":1710280709065.55},{"stage":"Calibration","trial":4,"sequence":"L3A1","letter_input":"AL","number_input":"13","is_correct":true,"presentation_start_time":1710280710598.27,"presentation_end_time":1710280716600.37,"response_time":1710280724010.77},{"stage":"Calibration","trial":5,"sequence":"8F2C","letter_input":"CF","number_input":"28","is_correct":true,"presentation_start_time":1710280725543.36,"presentation_end_time":1710280731545.66,"response_time":1710280738456.22},{"stage":"Calibration","trial":6,"sequence":"K3T1Q","letter_input":"KTQ","number_input":"123","is_correct":false,"presentation_start_time":1710280739988.98,"presentation_end_time":1710280747490.73,"response_time":1710280762798.5},{"stage":"Calibration","trial":7,"sequence":"9P6E4","letter_input":"EP","number_input":"469","is_correct":true,"presentation_start_time":1710280764331.19,"presentation_end_time":1710280771832.93,"response_time":1710280790156.47},{"stage":"Calibration","trial":8,"sequence":"R2K8T5","letter_input":"KRT","number_input":"258","is_correct":true,"presentation_start_time":1710280791689.17,"presentation_end_time":1710280800690.45,"response_time":1710280824512.32},{"stage":"Calibration","trial":9,"sequence":"9C6S3P","letter_input":"PST","number_input":"369","is_correct":false,"presentation_start_time":1710280826045.05,"presentation_end_time":1710280835046.42,"response_time":1710280866232.52},{"stage":"Calibration","trial":10,"sequence":"Z8T4Q2D","letter_input":"TQZ","number_input":"248","is_correct":false,"presentation_start_time":1710280867765.15,"presentation_end_time":1710280878266.16,"response_time":1710280895123.26},{"stage":"Calibration","trial":11,"sequence":"7V5P1L9","letter_input":"LPV","number_input":"1579","is_correct":true,"presentation_start_time":1710280896656.08,"presentation_end_time":1710280907156.89,"response_time":1710280928146.2},{"stage":"Calibration","trial":12,"sequence":"B4R2M8T6","letter_input":"BCMR","number_input":"2468","is_correct":false,"presentation_start_time":1710280929679.04,"presentation_end_time":1710280941679.36,"response_time":1710280968900.01},{"stage":"Calibration","trial":13,"sequence":"7P1E9Y3L","letter_input":"LPY","number_input":"1379","is_correct":false,"presentation_start_time":1710280970432.8,"presentation_end_time":1710280982433.03,"response_time":1710281013835.71}]}