{"meta_data":{"additional_headers":{},"game_name":"Recollect","version":"2.53.01","user_name":"184","organization":"braingamecenter","study":"mpl2_2022_11","session_number":0,"device_id":"74342D95-EE82-45E3-8ADF-48FB3203C5DD"},"data":[{"trial":0,"action":1,"button_pressed":0,"time_out":false,"dwell_time":63.998046875,"response_time":1710280217673.21},{"trial":0,"action":1,"button_pressed":6,"time_out":false,"dwell_time":48.2021484375,"response_time":1710280218190.08},{"trial":0,"action":9,"button_pressed":-1,"time_out":false,"dwell_time":26.10693359375,"response_time":1710280218915.34},{"trial":1,"action":1,"button_pressed":9,"time_out":false,"dwell_time":63.052978515625,"response_time":1710280228352.51},{"trial":1,"action":1,"button_pressed":1,"time_out":false,"dwell_time":63.949951171875,"response_time":1710280228886.4},{"trial":1,"action":1,"button_pressed":3,"time_out":false,"dwell_time":96.964111328125,"response_time":1710280229369.39},{"trial":1,"action":9,"button_pressed":-1,"time_out":false,"dwell_time":64.197021484375,"response_time":1710280229836.22},{"trial":2,"action":1,"button_pressed":8,"time_out":false,"dwell_time":47.485107421875,"response_time":1710280241615.41},{"trial":2,"action":1,"button_pressed":1,"time_out":false,"dwell_time":46.738037109375,"response_time":1710280242098.43},{"trial":2,"action":1,"button_pressed":3,"time_out":false,"dwell_time":64.556884765625,"response_time":1710280242548.6},{"trial":2,"action":1,"button_pressed":11,"time_out":false,"dwell_time":47.55078125,"response_time":1710280242999.24},{"trial":2,"action":9,"button_pressed":-1,"time_out":false,"dwell_time":31.5830078125,"response_time":1710280243715.09},{"trial":3,"action":1,"button_pressed":3,"time_out":false,"dwell_time":80.712890625,"response_time":1710280258176.43},{"trial":3,"action":1,"button_pressed":8,"time_out":false,"dwell_time":80.1328125,"response_time":1710280258643.55},{"trial":3,"action":1,"button_pressed":4,"time_out":false,"dwell_time":63.751953125,"response_time":1710280259042.62},{"trial":3,"action":1,"button_pressed":10,"time_out":false,"dwell_time":80.260009765625,"response_time":1710280259459.82},{"trial":3,"action":1,"button_pressed":11,"time_out":false,"dwell_time":47.325927734375,"response_time":1710280259910.25},{"trial":3,"action":9,"button_pressed":-1,"time_out":false,"dwell_time":48.296875,"response_time":1710280260544.02},{"trial":4,"action":1,"button_pressed":6,"time_out":false,"dwell_time":64.552978515625,"response_time":1710280277454.44},{"trial":4,"action":1,"button_pressed":5,"time_out":false,"dwell_time":47.60107421875,"response_time":1710280277903.81},{"trial":4,"action":1,"button_pressed":0,"time_out":false,"dwell_time":47.51904296875,"response_time":1710280278370.29},{"trial":4,"action":1,"button_pressed":11,"time_out":false,"dwell_time":47.453125,"response_time":1710280278737.58},{"trial":4,"action":1,"button_pressed":8,"time_out":false,"dwell_time":46.238037109375,"response_time":1710280279236.64},{"trial":4,"action":1,"button_pressed":4,"time_out":false,"dwell_time":48.34423828125,"response_time":1710280279703.91},{"trial":4,"action":9,"button_pressed":-1,"time_out":false,"dwell_time":16.427001953125,"response_time":1710280280219.56},{"trial":5,"action":1,"button_pressed":0,"time_out":false,"dwell_time":47.93115234375,"response_time":1710280299897.78},{"trial":5,"action":1,"button_pressed":10,"time_out":false,"dwell_time":64.26806640625,"response_time":1710280300330.23},{"trial":5,"action":1,"button_pressed":5,"time_out":false,"dwell_time":80.52001953125,"response_time":1710280302045.75},{"trial":5,"action":1,"button_pressed":6,"time_out":false,"dwell_time":64.173095703125,"response_time":1710280302562.85},{"trial":5,"action":1,"button_pressed":8,"time_out":false,"dwell_time":96.76611328125,"response_time":1710280303462.6},{"trial":5,"action":1,"button_pressed":2,"time_out":false,"dwell_time":63.841064453125,"response_time":1710280304128.41},{"trial":5,"action":1,"button_pressed":9,"time_out":false,"dwell_time":48.098876953125,"response_time":1710280304479.39},{"trial":5,"action":9,"button_pressed":-1,"time_out":false,"dwell_time":30.787841796875,"response_time":1710280305378.94},{"trial":6,"action":1,"button_pressed":9,"time_out":false,"dwell_time":48.36181640625,"response_time":1710280326256.09},{"trial":6,"action":1,"button_pressed":7,"time_out":false,"dwell_time":63.48095703125,"response_time":1710280326971.74},{"trial":6,"action":1,"button_pressed":4,"time_out":false,"dwell_time":47.708984375,"response_time":1710280327471.52},{"trial":6,"action":1,"button_pressed":1,"time_out":false,"dwell_time":64.447021484375,"response_time":1710280328004.84},{"trial":6,"action":1,"button_pressed":11,"time_out":false,"dwell_time":79.315185546875,"response_time":1710280328420.68},{"trial":6,"action":1,"button_pressed":6,"time_out":false,"dwell_time":48.094970703125,"response_time":1710280328755.12},{"trial":6,"action":1,"button_pressed":8,"time_out":false,"dwell_time":30.096923828125,"response_time":1710280329237.58},{"trial":6,"action":9,"button_pressed":-1,"time_out":false,"dwell_time":64.39013671875,"response_time":1710280329904.81},{"trial":7,"action":1,"button_pressed":5,"time_out":false,"dwell_time":98.301025390625,"response_time":1710280351913.49},{"trial":7,"action":1,"button_pressed":6,"time_out":false,"dwell_time":46.666015625,"response_time":1710280354063.1},{"trial":7,"action":1,"button_pressed":11,"time_out":false,"dwell_time":47.73486328125,"response_time":1710280354297.21},{"trial":7,"action":1,"button_pressed":1,"time_out":false,"dwell_time":14.320068359375,"response_time":1710280354629.62},{"trial":7,"action":1,"button_pressed":4,"time_out":false,"dwell_time":64.42578125,"response_time":1710280356595.7},{"trial":7,"action":1,"button_pressed":10,"time_out":false,"dwell_time":46.703857421875,"response_time":1710280356845.61},{"trial":7,"action":1,"button_pressed":7,"time_out":false,"dwell_time":30.68701171875,"response_time":1710280357195.3},{"trial":7,"action":1,"button_pressed":0,"time_out":false,"dwell_time":13.234130859375,"response_time":1710280357594.96},{"trial":7,"action":9,"button_pressed":-1,"time_out":false,"dwell_time":48.918212890625,"response_time":1710280358979.29},{"trial":8,"action":1,"button_pressed":6,"time_out":false,"dwell_time":46.972900390625,"response_time":1710280383320.63},{"trial":8,"action":1,"button_pressed":7,"time_out":false,"dwell_time":63.98095703125,"response_time":1710280383586.97},{"trial":8,"action":1,"button_pressed":8,"time_out":false,"dwell_time":64.423828125,"response_time":1710280384053.83},{"trial":8,"action":1,"button_pressed":10,"time_out":false,"dwell_time":63.924072265625,"response_time":1710280384320.01},{"trial":8,"action":1,"button_pressed":1,"time_out":false,"dwell_time":63.56689453125,"response_time":1710280384686.9},{"trial":8,"action":1,"button_pressed":11,"time_out":false,"dwell_time":47.73193359375,"response_time":1710280385086.79},{"trial":8,"action":1,"button_pressed":4,"time_out":false,"dwell_time":31.666015625,"response_time":1710280385637.14},{"trial":8,"action":1,"button_pressed":5,"time_out":false,"dwell_time":30.0068359375,"response_time":1710280385969.54},{"trial":8,"action":1,"button_pressed":5,"time_out":false,"dwell_time":46.760009765625,"response_time":1710280387469.04},{"trial":8,"action":1,"button_pressed":4,"time_out":false,"dwell_time":46.9541015625,"response_time":1710280387902.41},{"trial":8,"action":1,"button_pressed":4,"time_out":false,"dwell_time":64.549072265625,"response_time":1710280389218.95},{"trial":8,"action":1,"button_pressed":5,"time_out":false,"dwell_time":47.64892578125,"response_time":1710280389586.11},{"trial":8,"action":0,"button_pressed":-1,"time_out":false,"dwell_time":114.781005859375,"response_time":1710280392834.66},{"trial":8,"action":1,"button_pressed":6,"time_out":false,"dwell_time":80.074951171875,"response_time":1710280393333.65},{"trial":8,"action":1,"button_pressed":7,"time_out":false,"dwell_time":46.98779296875,"response_time":1710280393567.57},{"trial":8,"action":1,"button_pressed":8,"time_out":false,"dwell_time":79.841064453125,"response_time":1710280394016.54},{"trial":8,"action":1,"button_pressed":10,"time_out":false,"dwell_time":62.927001953125,"response_time":1710280394333.4},{"trial":8,"action":1,"button_pressed":1,"time_out":false,"dwell_time":46.77783203125,"response_time":1710280394716.79},{"trial":8,"action":1,"button_pressed":11,"time_out":false,"dwell_time":29.683837890625,"response_time":1710280395132.65},{"trial":8,"action":1,"button_pressed":4,"time_out":false,"dwell_time":63.620849609375,"response_time":1710280396682.44},{"trial":8,"action":1,"button_pressed":5,"time_out":false,"dwell_time":47.416015625,"response_time":1710280397066.89},{"trial":8,"action":9,"button_pressed":-1,"time_out":false,"dwell_time":48.23388671875,"response_time":1710280398432.83},{"trial":9,"action":1,"button_pressed":4,"time_out":false,"dwell_time":13.81005859375,"response_time":1710280422941.39},{"trial":9,"action":1,"button_pressed":2,"time_out":false,"dwell_time":80.412109375,"response_time":1710280423374.66},{"trial":9,"action":1,"button_pressed":7,"time_out":false,"dwell_time":47.373779296875,"response_time":1710280423991.02},{"trial":9,"action":1,"button_pressed":9,"time_out":false,"dwell_time":62.892822265625,"response_time":1710280424440.46},{"trial":9,"action":1,"button_pressed":1,"time_out":false,"dwell_time":80.3759765625,"response_time":1710280425057.59},{"trial":9,"action":1,"button_pressed":3,"time_out":false,"dwell_time":80.232177734375,"response_time":1710280426639.72},{"trial":9,"action":1,"button_pressed":5,"time_out":false,"dwell_time":46.671142578125,"response_time":1710280427139.84},{"trial":9,"action":1,"button_pressed":11,"time_out":false,"dwell_time":13.254150390625,"response_time":1710280427772.94},{"trial":9,"action":9,"button_pressed":-1,"time_out":false,"dwell_time":81.945068359375,"response_time":1710280430406.37},{"trial":10,"action":1,"button_pressed":1,"time_out":false,"dwell_time":80.7939453125,"response_time":1710280450566.51},{"trial":10,"action":1,"button_pressed":9,"time_out":false,"dwell_time":96.68701171875,"response_time":1710280451032.02},{"trial":10,"action":1,"button_pressed":7,"time_out":false,"dwell_time":64.453125,"response_time":1710280451549.3},{"trial":10,"action":1,"button_pressed":2,"time_out":false,"dwell_time":80.7138671875,"response_time":1710280452282.48},{"trial":10,"action":1,"button_pressed":5,"time_out":false,"dwell_time":130.862060546875,"response_time":1710280452765.2},{"trial":10,"action":1,"button_pressed":11,"time_out":false,"dwell_time":80.966064453125,"response_time":1710280453265.42},{"trial":10,"action":1,"button_pressed":3,"time_out":false,"dwell_time":64.070068359375,"response_time":1710280453815.55},{"trial":10,"action":9,"button_pressed":-1,"time_out":false,"dwell_time":16.345947265625,"response_time":1710280454514.39},{"trial":11,"action":1,"button_pressed":9,"time_out":false,"dwell_time":79.570068359375,"response_time":1710280476873.94},{"trial":11,"action":1,"button_pressed":7,"time_out":false,"dwell_time":63.5849609375,"response_time":1710280477240.94},{"trial":11,"action":1,"button_pressed":4,"time_out":false,"dwell_time":64.343994140625,"response_time":1710280477724.08},{"trial":11,"action":1,"button_pressed":10,"time_out":false,"dwell_time":81.09619140625,"response_time":1710280478124.28},{"trial":11,"action":1,"button_pressed":3,"time_out":false,"dwell_time":81.341064453125,"response_time":1710280478574.03},{"trial":11,"action":1,"button_pressed":8,"time_out":false,"dwell_time":63.590087890625,"response_time":1710280479540.23},{"trial":11,"action":1,"button_pressed":5,"time_out":false,"dwell_time":80.80078125,"response_time":1710280480056.83},{"trial":11,"action":1,"button_pressed":11,"time_out":false,"dwell_time":47.422119140625,"response_time":1710280480606.34},{"trial":11,"action":9,"button_pressed":-1,"time_out":false,"dwell_time":64.361083984375,"response_time":1710280481323.58},{"trial":12,"action":1,"button_pressed":2,"time_out":false,"dwell_time":81.635009765625,"response_time":1710280506015.47},{"trial":12,"action":1,"button_pressed":5,"time_out":false,"dwell_time":97.153076171875,"response_time":1710280506365.38},{"trial":12,"action":1,"button_pressed":9,"time_out":false,"dwell_time":79.87109375,"response_time":1710280506964.52},{"trial":12,"action":1,"button_pressed":7,"time_out":false,"dwell_time":97.80908203125,"response_time":1710280507631.62},{"trial":12,"action":1,"button_pressed":3,"time_out":false,"dwell_time":113.783935546875,"response_time":1710280508863.69},{"trial":12,"action":1,"button_pressed":11,"time_out":false,"dwell_time":97.555908203125,"response_time":1710280509530.78},{"trial":12,"action":1,"button_pressed":8,"time_out":false,"dwell_time":80.094970703125,"response_time":1710280511696.12},{"trial":12,"action":1,"button_pressed":0,"time_out":false,"dwell_time":96.982177734375,"response_time":1710280512729.84},{"trial":12,"action":0,"button_pressed":-1,"time_out":false,"dwell_time":80.431884765625,"response_time":1710280518844.75},{"trial":12,"action":1,"button_pressed":2,"time_out":false,"dwell_time":46.632080078125,"response_time":1710280519377.46},{"trial":12,"action":1,"button_pressed":5,"time_out":false,"dwell_time":62.908935546875,"response_time":1710280519710.18},{"trial":12,"action":1,"button_pressed":8,"time_out":false,"dwell_time":64.118896484375,"response_time":1710280520777.19},{"trial":12,"action":1,"button_pressed":9,"time_out":false,"dwell_time":64.1259765625,"response_time":1710280521393.68},{"trial":12,"action":1,"button_pressed":7,"time_out":false,"dwell_time":30.132080078125,"response_time":1710280522076.64},{"trial":12,"action":1,"button_pressed":4,"time_out":false,"dwell_time":97.447998046875,"response_time":1710280523593.07},{"trial":12,"action":1,"button_pressed":8,"time_out":false,"dwell_time":80.5009765625,"response_time":1710280524626.2},{"trial":12,"action":1,"button_pressed":11,"time_out":false,"dwell_time":63.678955078125,"response_time":1710280526892.02},{"trial":12,"action":1,"button_pressed":0,"time_out":false,"dwell_time":47.23193359375,"response_time":1710280527725.44},{"trial":12,"action":9,"button_pressed":-1,"time_out":false,"dwell_time":31.60888671875,"response_time":1710280528491.87},{"trial":13,"action":1,"button_pressed":5,"time_out":false,"dwell_time":80.80615234375,"response_time":1710280554199.59},{"trial":13,"action":1,"button_pressed":11,"time_out":false,"dwell_time":48.069091796875,"response_time":1710280554950.26},{"trial":13,"action":1,"button_pressed":3,"time_out":false,"dwell_time":64.345947265625,"response_time":1710280555649.6},{"trial":13,"action":1,"button_pressed":4,"time_out":false,"dwell_time":114.322998046875,"response_time":1710280556249.42},{"trial":13,"action":1,"button_pressed":8,"time_out":false,"dwell_time":96.760009765625,"response_time":1710280556898.35},{"trial":13,"action":1,"button_pressed":7,"time_out":false,"dwell_time":62.849853515625,"response_time":1710280558881.17},{"trial":13,"action":1,"button_pressed":2,"time_out":false,"dwell_time":80.31103515625,"response_time":1710280559797.55},{"trial":13,"action":1,"button_pressed":9,"time_out":false,"dwell_time":63.85302734375,"response_time":1710280560447.46},{"trial":13,"action":1,"button_pressed":0,"time_out":false,"dwell_time":81.192138671875,"response_time":1710280561414.56},{"trial":13,"action":9,"button_pressed":-1,"time_out":false,"dwell_time":47.60205078125,"response_time":1710280563463.96}]}