{"meta_data":{"additional_headers":{},"game_name":"Recollect","version":"2.53.01","user_name":"185","organization":"braingamecenter","study":"mpl2_2022_11","session_number":0,"device_id":"74342D95-EE82-45E3-8ADF-48FB3203C5DD"},"data":[{"trial":0,"action":1,"button_pressed":10,"time_out":false,"dwell_time":47.0869140625,"response_time":1710345842571.42},{"trial":0,"action":1,"button_pressed":7,"time_out":false,"dwell_time":30.01220703125,"response_time":1710345843020.98},{"trial":0,"action":9,"button_pressed":-1,"time_out":false,"dwell_time":91.43408203125,"response_time":1710345843781.87},{"trial":1,"action":1,"button_pressed":9,"time_out":false,"dwell_time":63.35009765625,"response_time":1710345853517.57},{"trial":1,"action":1,"button_pressed":1,"time_out":false,"dwell_time":63.493896484375,"response_time":1710345854167.5},{"trial":1,"action":1,"button_pressed":3,"time_out":false,"dwell_time":47.696044921875,"response_time":1710345854583.84},{"trial":1,"action":9,"button_pressed":-1,"time_out":false,"dwell_time":47.3818359375,"response_time":1710345855283.97},{"trial":2,"action":1,"button_pressed":4,"time_out":false,"dwell_time":30.992919921875,"response_time":1710345867147.04},{"trial":2,"action":1,"button_pressed":2,"time_out":false,"dwell_time":48.3369140625,"response_time":1710345867546.83},{"trial":2,"action":1,"button_pressed":7,"time_out":false,"dwell_time":63.489990234375,"response_time":1710345867946.08},{"trial":2,"action":1,"button_pressed":3,"time_out":false,"dwell_time":64.488037109375,"response_time":1710345868429.32},{"trial":2,"action":9,"button_pressed":-1,"time_out":false,"dwell_time":65.02294921875,"response_time":1710345869112.78},{"trial":3,"action":1,"button_pressed":10,"time_out":false,"dwell_time":62.948974609375,"response_time":1710345883257.05},{"trial":3,"action":1,"button_pressed":5,"time_out":false,"dwell_time":63.656005859375,"response_time":1710345883740.09},{"trial":3,"action":1,"button_pressed":6,"time_out":false,"dwell_time":63.194091796875,"response_time":1710345884406.86},{"trial":3,"action":1,"button_pressed":3,"time_out":false,"dwell_time":63.530029296875,"response_time":1710345885839.96},{"trial":3,"action":1,"button_pressed":2,"time_out":false,"dwell_time":30.089111328125,"response_time":1710345886272.96},{"trial":3,"action":9,"button_pressed":-1,"time_out":false,"dwell_time":48.8291015625,"response_time":1710345886757.33},{"trial":4,"action":1,"button_pressed":11,"time_out":false,"dwell_time":81.260986328125,"response_time":1710345901001.77},{"trial":4,"action":1,"button_pressed":1,"time_out":false,"dwell_time":64.506103515625,"response_time":1710345901368.16},{"trial":4,"action":1,"button_pressed":9,"time_out":false,"dwell_time":47.505126953125,"response_time":1710345901751.8},{"trial":4,"action":1,"button_pressed":7,"time_out":false,"dwell_time":63.68212890625,"response_time":1710345902017.31},{"trial":4,"action":1,"button_pressed":4,"time_out":false,"dwell_time":30.08203125,"response_time":1710345902250.98},{"trial":4,"action":9,"button_pressed":-1,"time_out":false,"dwell_time":65.162109375,"response_time":1710345903084.67},{"trial":5,"action":1,"button_pressed":0,"time_out":false,"dwell_time":80.427978515625,"response_time":1710345919778},{"trial":5,"action":1,"button_pressed":4,"time_out":false,"dwell_time":63.741943359375,"response_time":1710345920328.39},{"trial":5,"action":1,"button_pressed":11,"time_out":false,"dwell_time":64.22509765625,"response_time":1710345920678.22},{"trial":5,"action":1,"button_pressed":3,"time_out":false,"dwell_time":96.1748046875,"response_time":1710345921060.7},{"trial":5,"action":1,"button_pressed":5,"time_out":false,"dwell_time":30.65283203125,"response_time":1710345921511.78},{"trial":5,"action":1,"button_pressed":7,"time_out":false,"dwell_time":12.9189453125,"response_time":1710345921744.12},{"trial":5,"action":9,"button_pressed":-1,"time_out":false,"dwell_time":97.258056640625,"response_time":1710345922627.62},{"trial":6,"action":1,"button_pressed":11,"time_out":false,"dwell_time":80.85009765625,"response_time":1710345956736.81},{"trial":6,"action":1,"button_pressed":4,"time_out":false,"dwell_time":63.85107421875,"response_time":1710345957086.31},{"trial":6,"action":1,"button_pressed":8,"time_out":false,"dwell_time":47.68896484375,"response_time":1710345957436.96},{"trial":6,"action":1,"button_pressed":3,"time_out":false,"dwell_time":47.76806640625,"response_time":1710345957670.06},{"trial":6,"action":1,"button_pressed":5,"time_out":false,"dwell_time":30.89501953125,"response_time":1710345957903.36},{"trial":6,"action":9,"button_pressed":-1,"time_out":false,"dwell_time":83.380859375,"response_time":1710345958721.72},{"trial":7,"action":1,"button_pressed":9,"time_out":false,"dwell_time":63.509033203125,"response_time":1710345977946.37},{"trial":7,"action":1,"button_pressed":7,"time_out":false,"dwell_time":30.55712890625,"response_time":1710345978296.62},{"trial":7,"action":1,"button_pressed":4,"time_out":false,"dwell_time":47.503173828125,"response_time":1710345978579.47},{"trial":7,"action":1,"button_pressed":1,"time_out":false,"dwell_time":97.991943359375,"response_time":1710345979063.34},{"trial":7,"action":1,"button_pressed":11,"time_out":false,"dwell_time":46.825927734375,"response_time":1710345979379.42},{"trial":7,"action":1,"button_pressed":6,"time_out":false,"dwell_time":30.236083984375,"response_time":1710345979662.65},{"trial":7,"action":1,"button_pressed":8,"time_out":false,"dwell_time":48.081787109375,"response_time":1710345980080.19},{"trial":7,"action":9,"button_pressed":-1,"time_out":false,"dwell_time":65.31884765625,"response_time":1710345980846.19},{"trial":8,"action":1,"button_pressed":6,"time_out":false,"dwell_time":64.137939453125,"response_time":1710346002771.86},{"trial":8,"action":1,"button_pressed":0,"time_out":false,"dwell_time":47.550048828125,"response_time":1710346003188.68},{"trial":8,"action":1,"button_pressed":5,"time_out":false,"dwell_time":47.579833984375,"response_time":1710346003538.28},{"trial":8,"action":1,"button_pressed":3,"time_out":false,"dwell_time":47.626953125,"response_time":1710346004055.04},{"trial":8,"action":1,"button_pressed":4,"time_out":false,"dwell_time":47.830078125,"response_time":1710346004788.22},{"trial":8,"action":1,"button_pressed":10,"time_out":false,"dwell_time":12.797119140625,"response_time":1710346005069.84},{"trial":8,"action":1,"button_pressed":1,"time_out":false,"dwell_time":12.809814453125,"response_time":1710346005419.7},{"trial":8,"action":1,"button_pressed":7,"time_out":false,"dwell_time":31.049072265625,"response_time":1710346005687.95},{"trial":8,"action":9,"button_pressed":-1,"time_out":false,"dwell_time":114.89501953125,"response_time":1710346006470.56},{"trial":9,"action":1,"button_pressed":5,"time_out":false,"dwell_time":64.740966796875,"response_time":1710346028279.97},{"trial":9,"action":1,"button_pressed":6,"time_out":false,"dwell_time":15.194091796875,"response_time":1710346028580.31},{"trial":9,"action":1,"button_pressed":6,"time_out":false,"dwell_time":98.243896484375,"response_time":1710346028896.56},{"trial":9,"action":1,"button_pressed":1,"time_out":false,"dwell_time":63.869873046875,"response_time":1710346029245.43},{"trial":9,"action":1,"button_pressed":4,"time_out":false,"dwell_time":64.906005859375,"response_time":1710346029646.12},{"trial":9,"action":1,"button_pressed":11,"time_out":false,"dwell_time":63.215087890625,"response_time":1710346030045.26},{"trial":9,"action":1,"button_pressed":10,"time_out":false,"dwell_time":30.8291015625,"response_time":1710346030445.41},{"trial":9,"action":1,"button_pressed":7,"time_out":false,"dwell_time":97.30712890625,"response_time":1710346031562.22},{"trial":9,"action":1,"button_pressed":3,"time_out":false,"dwell_time":63.863037109375,"response_time":1710346032561.72},{"trial":9,"action":1,"button_pressed":2,"time_out":false,"dwell_time":31.0361328125,"response_time":1710346032728.15},{"trial":9,"action":1,"button_pressed":2,"time_out":false,"dwell_time":31.828857421875,"response_time":1710346033545.12},{"trial":9,"action":9,"button_pressed":-1,"time_out":false,"dwell_time":81.080078125,"response_time":1710346034727.33},{"trial":10,"action":1,"button_pressed":11,"time_out":false,"dwell_time":31.173095703125,"response_time":1710346052771.41},{"trial":10,"action":1,"button_pressed":8,"time_out":false,"dwell_time":62.68505859375,"response_time":1710346053203.88},{"trial":10,"action":1,"button_pressed":6,"time_out":false,"dwell_time":31.033935546875,"response_time":1710346053605.09},{"trial":10,"action":1,"button_pressed":4,"time_out":false,"dwell_time":63.720947265625,"response_time":1710346053970.3},{"trial":10,"action":1,"button_pressed":1,"time_out":false,"dwell_time":14.294921875,"response_time":1710346054304.85},{"trial":10,"action":1,"button_pressed":10,"time_out":false,"dwell_time":14.029052734375,"response_time":1710346054754.26},{"trial":10,"action":9,"button_pressed":-1,"time_out":false,"dwell_time":48.39111328125,"response_time":1710346055470.69},{"trial":11,"action":1,"button_pressed":5,"time_out":false,"dwell_time":80.89208984375,"response_time":1710346074747.66},{"trial":11,"action":1,"button_pressed":3,"time_out":false,"dwell_time":30.886962890625,"response_time":1710346075181.05},{"trial":11,"action":1,"button_pressed":8,"time_out":false,"dwell_time":81.35498046875,"response_time":1710346075563.92},{"trial":11,"action":1,"button_pressed":11,"time_out":false,"dwell_time":46.6669921875,"response_time":1710346076013.2},{"trial":11,"action":1,"button_pressed":7,"time_out":false,"dwell_time":49.009033203125,"response_time":1710346076247.88},{"trial":11,"action":1,"button_pressed":4,"time_out":false,"dwell_time":62.85986328125,"response_time":1710346076912.36},{"trial":11,"action":1,"button_pressed":10,"time_out":false,"dwell_time":31.128173828125,"response_time":1710346077580.31},{"trial":11,"action":9,"button_pressed":-1,"time_out":false,"dwell_time":47.827880859375,"response_time":1710346078679.76},{"trial":12,"action":1,"button_pressed":9,"time_out":false,"dwell_time":13.442138671875,"response_time":1710346100654.84},{"trial":12,"action":1,"button_pressed":7,"time_out":false,"dwell_time":48.22998046875,"response_time":1710346101138.86},{"trial":12,"action":1,"button_pressed":4,"time_out":false,"dwell_time":63.85791015625,"response_time":1710346102671.29},{"trial":12,"action":1,"button_pressed":3,"time_out":false,"dwell_time":47.5869140625,"response_time":1710346104171.14},{"trial":12,"action":1,"button_pressed":5,"time_out":false,"dwell_time":63.3359375,"response_time":1710346104586.69},{"trial":12,"action":1,"button_pressed":6,"time_out":false,"dwell_time":31.752197265625,"response_time":1710346106936.84},{"trial":12,"action":9,"button_pressed":-1,"time_out":false,"dwell_time":64.4130859375,"response_time":1710346109236.11},{"trial":13,"action":1,"button_pressed":3,"time_out":false,"dwell_time":81.632080078125,"response_time":1710346131095.21},{"trial":13,"action":1,"button_pressed":1,"time_out":false,"dwell_time":29.9970703125,"response_time":1710346131560.93},{"trial":13,"action":1,"button_pressed":8,"time_out":false,"dwell_time":47.7060546875,"response_time":1710346132127.64},{"trial":13,"action":1,"button_pressed":7,"time_out":false,"dwell_time":48.06982421875,"response_time":1710346133527.46},{"trial":13,"action":1,"button_pressed":0,"time_out":false,"dwell_time":48.10888671875,"response_time":1710346134760.14},{"trial":13,"action":1,"button_pressed":6,"time_out":false,"dwell_time":48.2080078125,"response_time":1710346136010.36},{"trial":13,"action":1,"button_pressed":9,"time_out":false,"dwell_time":63.1669921875,"response_time":1710346140774.19},{"trial":13,"action":1,"button_pressed":10,"time_out":false,"dwell_time":47.829833984375,"response_time":1710346140992.13},{"trial":13,"action":9,"button_pressed":-1,"time_out":false,"dwell_time":30.98291015625,"response_time":1710346141874.97}]}