{"meta_data":{"additional_headers":{},"game_name":"Recollect","version":"2.53.01","user_name":"185","organization":"braingamecenter","study":"mpl2_2022_11","session_number":0,"device_id":"74342D95-EE82-45E3-8ADF-48FB3203C5DD"},"data":[{"stage":"Practice","trial":0,"sequence":"6F","letter_input":"F","number_input":"6","is_correct":true,"presentation_start_time":1710346186857,"presentation_end_time":1710346189860.01,"response_time":1710346196490.24},{"stage":"Practice","trial":1,"sequence":"G4","letter_input":"G","number_input":"4","is_correct":true,"presentation_start_time":1710346198019.88,"presentation_end_time":1710346201023.11,"response_time":1710346207133.55},{"stage":"Practice","trial":2,"sequence":"3W5","letter_input":"W","number_input":"35","is_correct":true,"presentation_start_time":1710346208666.23,"presentation_end_time":1710346213168.94,"response_time":1710346219895.92},{"stage":"Practice","trial":3,"sequence":"T7L","letter_input":"LT","number_input":"7","is_correct":true,"presentation_start_time":1710346221428.55,"presentation_end_time":1710346225931.29,"response_time":1710346239922.43},{"stage":"Practice","trial":4,"sequence":"9J1","letter_input":"J","number_input":"19","is_correct":true,"presentation_start_time":1710346241455.13,"presentation_end_time":1710346245957.62,"response_time":1710346251984.96},{"stage":"Calibration","trial":0,"sequence":"4S","letter_input":"S","number_input":"4","is_correct":true,"presentation_start_time":1710346261331.75,"presentation_end_time":1710346264334.88,"response_time":1710346268529.33},{"stage":"Calibration","trial":1,"sequence":"G8","letter_input":"G","number_input":"8","is_correct":true,"presentation_start_time":1710346270062.12,"presentation_end_time":1710346273065.26,"response_time":1710346277059.75},{"stage":"Calibration","trial":2,"sequence":"7Q3","letter_input":"Q","number_input":"37","is_correct":true,"presentation_start_time":1710346278592.48,"presentation_end_time":1710346283095.15,"response_time":1710346289039.13},{"stage":"Calibration","trial":3,"sequence":"V5B","letter_input":"BV","number_input":"5","is_correct":true,"presentation_start_time":1710346290571.82,"presentation_end_time":1710346295074.3,"response_time":1710346304250.6},{"stage":"Calibration","trial":4,"sequence":"8H6D","letter_input":"DH","number_input":"68","is_correct":true,"presentation_start_time":1710346305783.27,"presentation_end_time":1710346311785.37,"response_time":1710346318179.09},{"stage":"Calibration","trial":5,"sequence":"W4F1","letter_input":"FW","number_input":"14","is_correct":true,"presentation_start_time":1710346319711.83,"presentation_end_time":1710346325714,"response_time":1710346334257.1},{"stage":"Calibration","trial":6,"sequence":"5Y9R7","letter_input":"RY","number_input":"579","is_correct":true,"presentation_start_time":1710346335789.93,"presentation_end_time":1710346343291.52,"response_time":1710346365946.26},{"stage":"Calibration","trial":7,"sequence":"T4H1W","letter_input":"HTW","number_input":"14","is_correct":true,"presentation_start_time":1710346367478.97,"presentation_end_time":1710346374980.62,"response_time":1710346417861.98},{"stage":"Calibration","trial":8,"sequence":"5M3C7S","letter_input":"SW","number_input":"57","is_correct":false,"presentation_start_time":1710346419394.62,"presentation_end_time":1710346428395.8,"response_time":1710346443220.02},{"stage":"Calibration","trial":9,"sequence":"T2P8H6","letter_input":"HT","number_input":"268","is_correct":false,"presentation_start_time":1710346444752.73,"presentation_end_time":1710346453753.79,"response_time":1710346481523.67}]}