Audio_Only_Files,Video_Files,Original_Word_List,noiseLevelCode,conditionCodes,noiseLevelFile1,noiseLevelFile2,InstrTextVar,targetSpeakerName,targetSpeakerEccen,targetSpkrChannel,targetSpkrSound,targetVisualDegrees,visStimLoc,visStimLoc2,visStimW,visStimH,practiceTrials.thisRepN,practiceTrials.thisTrialN,practiceTrials.thisN,practiceTrials.thisIndex,trials.thisRepN,trials.thisTrialN,trials.thisN,trials.thisIndex,audLocalLoop.thisRepN,audLocalLoop.thisTrialN,audLocalLoop.thisN,audLocalLoop.thisIndex,visualLocalLoop.thisRepN,visualLocalLoop.thisTrialN,visualLocalLoop.thisN,visualLocalLoop.thisIndex,letsGoAlready.keys,letsGoAlready.rt,letsGoAlready.started,letsGoAlready.stopped,text_2.started,text_2.stopped,text_3.started,text_3.stopped,key_resp_2.keys,key_resp_2.rt,key_resp_2.started,key_resp_2.stopped,text_5.started,text_5.stopped,fixCross.started,fixCross.stopped,fixCross2.started,fixCross2.stopped,answerPrompt.started,answerPrompt.stopped,getAnswer.text,getAnswer.started,getAnswer.stopped,goToNext.keys,goToNext.rt,goToNext.started,goToNext.stopped,stretchBreakTxrt.started,stretchBreakTxrt.stopped,key_resp_3.keys,key_resp_3.rt,key_resp_3.started,key_resp_3.stopped,letsGoLocal.keys,letsGoLocal.rt,letsGoLocal.started,letsGoLocal.stopped,text_4.started,text_4.stopped,prepFixTxt.started,prepFixTxt.stopped,prepFixTxt_2.started,prepFixTxt_2.stopped,respPromptLocal.started,respPromptLocal.stopped,slider.response,slider.rt,slider.started,slider.stopped,letsGoLocal_2.keys,letsGoLocal_2.rt,letsGoLocal_2.started,letsGoLocal_2.stopped,text_7.started,text_7.stopped,prepFixTxt_3.started,prepFixTxt_3.stopped,grating.started,grating.stopped,exitTxt.started,exitTxt.stopped,key_resp.keys,key_resp.rt,key_resp.started,key_resp.stopped,participant,session,date,expName,psychopyVersion,frameRate,
,,,,,,,,,,,,,,,,,,,,,,,,,,,,,,,,,space,19.72340566999992,29.97054669299996,None,,,,,,,,,,,,,,,,,,,,,,,,,,,,,,,,,,,,,,,,,,,,,,,,,,,,,,,,,,,,,,186,001,2024_Mar_13_1517,SpeechDraft1Carolyn_lessNoise_PlusLocalization,2021.2.3,60.00307839768574,
,,,,,,,,,,,,,,,,,,,,,,,,,,,,,,,,,,,,,29.97054669299996,None,49.82091599700016,None,space,5.17039820699938,50.00365056299961,None,,,,,,,,,,,,,,,,,,,,,,,,,,,,,,,,,,,,,,,,,,,,,,,,,,,,,,186,001,2024_Mar_13_1517,SpeechDraft1Carolyn_lessNoise_PlusLocalization,2021.2.3,60.00307839768574,
ash.wav,ash.mpg,ash,1,A,Pink_Noise_1_1.wav,Pink_Noise_1_2.wav,"This is an example of an

AUDIO trial",,,,,,,,,,0,0,0,0,,,,,,,,,,,,,,,,,,,,,,,,,55.22059212699969,None,56.220480277000206,None,59.40438926299976,None,60.78715544900024,None,ashe,60.78715544900024,None,return,4.623816182000155,60.8703104239994,None,,,,,,,,,,,,,,,,,,,,,,,,,,,,,,,,,,,,,,,186,001,2024_Mar_13_1517,SpeechDraft1Carolyn_lessNoise_PlusLocalization,2021.2.3,60.00307839768574,
ash.wav,ash.mpg,ash,1,AV,Pink_Noise_1_1.wav,Pink_Noise_1_2.wav,"This is an example of an

AUDIO + VIDEO  trial",,,,,,,,,,0,1,1,1,,,,,,,,,,,,,,,,,,,,,,,,,65.53682088099958,None,66.53704690499944,None,68.02034170699972,None,69.40368354099974,None,ashe,69.40368354099974,None,return,3.758927610999308,69.48702606799998,None,,,,,,,,,,,,,,,,,,,,,,,,,,,,,,,,,,,,,,,186,001,2024_Mar_13_1517,SpeechDraft1Carolyn_lessNoise_PlusLocalization,2021.2.3,60.00307839768574,
,,,,,,,,,,,,,,,,,,,,,,,,,,,,,,,,,,,,,,,,,,,,,,,,,,,,,,,,,,,,73.28674575599962,None,space,10.54346556099972,73.47049036799945,None,,,,,,,,,,,,,,,,,,,,,,,,,,,,,,,,,186,001,2024_Mar_13_1517,SpeechDraft1Carolyn_lessNoise_PlusLocalization,2021.2.3,60.00307839768574,
coal.wav,coal.mpg,coal,5,AV,Pink_Noise_5_1.wav,Pink_Noise_5_2.wav,,,,,,,,,,,,,,,0,0,0,96,,,,,,,,,,,,,,,,,,,,,,,84.07026023100025,None,85.55387937900014,None,86.93703169999935,None,coal,86.93703169999935,None,return,8.089591551999547,87.02049591299965,None,,,,,,,,,,,,,,,,,,,,,,,,,,,,,,,,,,,,,,,186,001,2024_Mar_13_1517,SpeechDraft1Carolyn_lessNoise_PlusLocalization,2021.2.3,60.00307839768574,
droop.wav,droop.mpg,droop,3,A,Pink_Noise_3_1.wav,Pink_Noise_3_2.wav,,,,,,,,,,,,,,,0,1,1,44,,,,,,,,,,,,,,,,,,,,,,,95.13724107500002,None,96.63679708099971,None,98.0205533999997,None,"group
",98.0205533999997,None,return,5.070202437000262,98.10376879199976,None,,,,,,,,,,,,,,,,,,,,,,,,,,,,,,,,,,,,,,,186,001,2024_Mar_13_1517,SpeechDraft1Carolyn_lessNoise_PlusLocalization,2021.2.3,60.00307839768574,
drag.wav,drag.mpg,drag,6,A,Pink_Noise_6_1.wav,Pink_Noise_6_2.wav,,,,,,,,,,,,,,,0,2,2,4,,,,,,,,,,,,,,,,,,,,,,,103.20379682800012,None,104.70357697300005,None,106.08725503099959,None,water,106.08725503099959,None,return,8.691487963999862,106.17046596099954,None,,,,,,,,,,,,,,,,,,,,,,,,,,,,,,,,,,,,,,,186,001,2024_Mar_13_1517,SpeechDraft1Carolyn_lessNoise_PlusLocalization,2021.2.3,60.00307839768574,
drug.wav,drug.mpg,drug,5,AV,Pink_Noise_5_1.wav,Pink_Noise_5_2.wav,,,,,,,,,,,,,,,0,3,3,80,,,,,,,,,,,,,,,,,,,,,,,114.88711977000003,None,116.38691463599935,None,117.77040031399974,None,drug,117.77040031399974,None,return,8.159942184000101,117.85401830399951,None,,,,,,,,,,,,,,,,,,,,,,,,,,,,,,,,,,,,,,,186,001,2024_Mar_13_1517,SpeechDraft1Carolyn_lessNoise_PlusLocalization,2021.2.3,60.00307839768574,
duck.wav,duck.mpg,duck,5,AV,Pink_Noise_5_1.wav,Pink_Noise_5_2.wav,,,,,,,,,,,,,,,0,4,4,85,,,,,,,,,,,,,,,,,,,,,,,126.03716607200022,None,127.53693077299977,None,128.92041875199993,None,"duck
",128.92041875199993,None,return,3.18612765799935,129.003811349,None,,,,,,,,,,,,,,,,,,,,,,,,,,,,,,,,,,,,,,,186,001,2024_Mar_13_1517,SpeechDraft1Carolyn_lessNoise_PlusLocalization,2021.2.3,60.00307839768574,
fraud.wav,fraud.mpg,fraud,4,A,Pink_Noise_4_1.wav,Pink_Noise_4_2.wav,,,,,,,,,,,,,,,0,5,5,38,,,,,,,,,,,,,,,,,,,,,,,132.22049431300002,None,133.70361794200016,None,135.08722589599984,None,boat,135.08722589599984,None,return,5.307475291000628,135.1705249460001,None,,,,,,,,,,,,,,,,,,,,,,,,,,,,,,,,,,,,,,,186,001,2024_Mar_13_1517,SpeechDraft1Carolyn_lessNoise_PlusLocalization,2021.2.3,60.00307839768574,
flush.wav,flush.mpg,flush,3,A,Pink_Noise_3_1.wav,Pink_Noise_3_2.wav,,,,,,,,,,,,,,,0,6,6,3,,,,,,,,,,,,,,,,,,,,,,,140.50399691599978,None,142.003652589,None,143.38715262499954,None,flush,143.38715262499954,None,return,15.37554947100034,143.47045423799955,None,,,,,,,,,,,,,,,,,,,,,,,,,,,,,,,,,,,,,,,186,001,2024_Mar_13_1517,SpeechDraft1Carolyn_lessNoise_PlusLocalization,2021.2.3,60.00307839768574,
dawn.wav,dawn.mpg,dawn,1,AV,Pink_Noise_1_1.wav,Pink_Noise_1_2.wav,,,,,,,,,,,,,,,0,7,7,99,,,,,,,,,,,,,,,,,,,,,,,158.87049380400003,None,160.37031139099963,None,161.75378545999956,None,"dawn
",161.75378545999956,None,return,2.9687628689998746,161.83720580099998,None,,,,,,,,,,,,,,,,,,,,,,,,,,,,,,,,,,,,,,,186,001,2024_Mar_13_1517,SpeechDraft1Carolyn_lessNoise_PlusLocalization,2021.2.3,60.00307839768574,
grand.wav,grand.mpg,grand,4,AV,Pink_Noise_4_1.wav,Pink_Noise_4_2.wav,,,,,,,,,,,,,,,0,8,8,82,,,,,,,,,,,,,,,,,,,,,,,164.83718168299947,None,166.33696868599964,None,167.72054297900013,None,grand,167.72054297900013,None,return,2.642126767999798,167.80383260799954,None,,,,,,,,,,,,,,,,,,,,,,,,,,,,,,,,,,,,,,,186,001,2024_Mar_13_1517,SpeechDraft1Carolyn_lessNoise_PlusLocalization,2021.2.3,60.00307839768574,
gun.wav,gun.mpg,gun,5,AV,Pink_Noise_5_1.wav,Pink_Noise_5_2.wav,,,,,,,,,,,,,,,0,9,9,94,,,,,,,,,,,,,,,,,,,,,,,170.47047708099944,None,171.95591352300016,None,173.3372040409995,None,gun,173.3372040409995,None,return,5.289599941000233,173.420428163,None,,,,,,,,,,,,,,,,,,,,,,,,,,,,,,,,,,,,,,,186,001,2024_Mar_13_1517,SpeechDraft1Carolyn_lessNoise_PlusLocalization,2021.2.3,60.00307839768574,
drab.wav,drab.mpg,drab,1,A,Pink_Noise_1_1.wav,Pink_Noise_1_2.wav,,,,,,,,,,,,,,,0,10,10,45,,,,,,,,,,,,,,,,,,,,,,,178.73719892000008,None,180.23700061099953,None,181.62060193399975,None,drab,181.62060193399975,None,return,3.446059011000216,181.70392331599942,None,,,,,,,,,,,,,,,,,,,,,,,,,,,,,,,,,,,,,,,186,001,2024_Mar_13_1517,SpeechDraft1Carolyn_lessNoise_PlusLocalization,2021.2.3,60.00307839768574,
blame.wav,blame.mpg,blame,2,A,Pink_Noise_2_1.wav,Pink_Noise_2_2.wav,,,,,,,,,,,,,,,0,11,11,16,,,,,,,,,,,,,,,,,,,,,,,185.17056072299965,None,186.6703797099999,None,188.05387769400022,None,lake,188.05387769400022,None,return,2.260699440999815,188.13727576200017,None,,,,,,,,,,,,,,,,,,,,,,,,,,,,,,,,,,,,,,,186,001,2024_Mar_13_1517,SpeechDraft1Carolyn_lessNoise_PlusLocalization,2021.2.3,60.00307839768574,
frog.wav,frog.mpg,frog,5,A,Pink_Noise_5_1.wav,Pink_Noise_5_2.wav,,,,,,,,,,,,,,,0,12,12,49,,,,,,,,,,,,,,,,,,,,,,,190.42060386999947,None,191.92038730700006,None,193.30392099399978,None,"fog
",193.30392099399978,None,return,6.5866939380002805,193.3872743490001,None,,,,,,,,,,,,,,,,,,,,,,,,,,,,,,,,,,,,,,,186,001,2024_Mar_13_1517,SpeechDraft1Carolyn_lessNoise_PlusLocalization,2021.2.3,60.00307839768574,
wound.wav,wound.mpg,wound,3,A,Pink_Noise_3_1.wav,Pink_Noise_3_2.wav,,,,,,,,,,,,,,,0,13,13,6,,,,,,,,,,,,,,,,,,,,,,,200.00392491399998,None,201.50375394000002,None,202.88724623799953,None,old,202.88724623799953,None,return,2.1553926420001517,202.97063090099982,None,,,,,,,,,,,,,,,,,,,,,,,,,,,,,,,,,,,,,,,186,001,2024_Mar_13_1517,SpeechDraft1Carolyn_lessNoise_PlusLocalization,2021.2.3,60.00307839768574,
chess.wav,chess.mpg,chess,3,A,Pink_Noise_3_1.wav,Pink_Noise_3_2.wav,,,,,,,,,,,,,,,0,14,14,17,,,,,,,,,,,,,,,,,,,,,,,205.15393193899945,None,206.65370364299997,None,208.03753239300022,None,chess,208.03753239300022,None,return,1.7973729999994248,208.12058564699964,None,,,,,,,,,,,,,,,,,,,,,,,,,,,,,,,,,,,,,,,186,001,2024_Mar_13_1517,SpeechDraft1Carolyn_lessNoise_PlusLocalization,2021.2.3,60.00307839768574,
clot.wav,clot.mpg,clot,3,AV,Pink_Noise_3_1.wav,Pink_Noise_3_2.wav,,,,,,,,,,,,,,,0,15,15,101,,,,,,,,,,,,,,,,,,,,,,,209.93721610699959,None,211.43714868400002,None,212.82062425999993,None,glad,212.82062425999993,None,return,5.942046473000119,212.9039557440001,None,,,,,,,,,,,,,,,,,,,,,,,,,,,,,,,,,,,,,,,186,001,2024_Mar_13_1517,SpeechDraft1Carolyn_lessNoise_PlusLocalization,2021.2.3,60.00307839768574,
druid.wav,druid.mpg,druid,4,AV,Pink_Noise_4_1.wav,Pink_Noise_4_2.wav,,,,,,,,,,,,,,,0,16,16,111,,,,,,,,,,,,,,,,,,,,,,,218.87062400000013,None,220.37052008799947,None,221.75397595599952,None,jewelry,221.75397595599952,None,return,28.792661104000217,221.83729919300004,None,,,,,,,,,,,,,,,,,,,,,,,,,,,,,,,,,,,,,,,186,001,2024_Mar_13_1517,SpeechDraft1Carolyn_lessNoise_PlusLocalization,2021.2.3,60.00307839768574,
ham.wav,ham.mpg,ham,6,AV,Pink_Noise_6_1.wav,Pink_Noise_6_2.wav,,,,,,,,,,,,,,,0,17,17,75,,,,,,,,,,,,,,,,,,,,,,,250.654030228,None,252.15367250300005,None,253.53734775799967,None,aim,253.53734775799967,None,return,5.465455298000052,253.62060780999946,None,,,,,,,,,,,,,,,,,,,,,,,,,,,,,,,,,,,,,,,186,001,2024_Mar_13_1517,SpeechDraft1Carolyn_lessNoise_PlusLocalization,2021.2.3,60.00307839768574,
dice.wav,dice.mpg,dice,3,AV,Pink_Noise_3_1.wav,Pink_Noise_3_2.wav,,,,,,,,,,,,,,,0,18,18,95,,,,,,,,,,,,,,,,,,,,,,,259.1039836909995,None,260.6038646050001,None,261.98737521600015,None,suds,261.98737521600015,None,return,4.255542096000681,262.07068889199945,None,,,,,,,,,,,,,,,,,,,,,,,,,,,,,,,,,,,,,,,186,001,2024_Mar_13_1517,SpeechDraft1Carolyn_lessNoise_PlusLocalization,2021.2.3,60.00307839768574,
groan.wav,groan.mpg,groan,1,A,Pink_Noise_1_1.wav,Pink_Noise_1_2.wav,,,,,,,,,,,,,,,0,19,19,19,,,,,,,,,,,,,,,,,,,,,,,266.3540135149997,None,267.83980413599966,None,269.22091158500007,None,"grow
",269.22091158500007,None,return,3.901920321000034,269.30403952399956,None,,,,,,,,,,,,,,,,,,,,,,,,,,,,,,,,,,,,,,,186,001,2024_Mar_13_1517,SpeechDraft1Carolyn_lessNoise_PlusLocalization,2021.2.3,60.00307839768574,
eel.wav,eel.mpg,eel,2,AV,Pink_Noise_2_1.wav,Pink_Noise_2_2.wav,,,,,,,,,,,,,,,0,20,20,100,,,,,,,,,,,,,,,,,,,,,,,273.23737236099987,None,274.7371621679995,None,276.1207522959994,None,"heal
",276.1207522959994,None,return,4.785976483000013,276.20399150399953,None,,,,,,,,,,,,,,,,,,,,,,,,,,,,,,,,,,,,,,,186,001,2024_Mar_13_1517,SpeechDraft1Carolyn_lessNoise_PlusLocalization,2021.2.3,60.00307839768574,
dump.wav,dump.mpg,dump,5,A,Pink_Noise_5_1.wav,Pink_Noise_5_2.wav,,,,,,,,,,,,,,,0,21,21,13,,,,,,,,,,,,,,,,,,,,,,,281.0206774439994,None,282.50390762000006,None,283.8875439879994,None,dutch,283.8875439879994,None,return,7.939432746999955,283.97062350800024,None,,,,,,,,,,,,,,,,,,,,,,,,,,,,,,,,,,,,,,,186,001,2024_Mar_13_1517,SpeechDraft1Carolyn_lessNoise_PlusLocalization,2021.2.3,60.00307839768574,
cheek.wav,cheek.mpg,cheek,1,A,Pink_Noise_1_1.wav,Pink_Noise_1_2.wav,,,,,,,,,,,,,,,0,22,22,12,,,,,,,,,,,,,,,,,,,,,,,291.9373886960002,None,293.43706996999936,None,294.8208664899994,None,cheek,294.8208664899994,None,return,4.406009102000098,294.90407489799964,None,,,,,,,,,,,,,,,,,,,,,,,,,,,,,,,,,,,,,,,186,001,2024_Mar_13_1517,SpeechDraft1Carolyn_lessNoise_PlusLocalization,2021.2.3,60.00307839768574,
cake.wav,cake.mpg,cake,6,AV,Pink_Noise_6_1.wav,Pink_Noise_6_2.wav,,,,,,,,,,,,,,,0,23,23,113,,,,,,,,,,,,,,,,,,,,,,,299.337397798,None,300.837171827,None,302.22077036500013,None,cake\,302.22077036500013,None,return,5.62203219499952,302.3039812529996,None,,,,,,,,,,,,,,,,,,,,,,,,,,,,,,,,,,,,,,,186,001,2024_Mar_13_1517,SpeechDraft1Carolyn_lessNoise_PlusLocalization,2021.2.3,60.00307839768574,
crypt.wav,crypt.mpg,crypt,1,A,Pink_Noise_1_1.wav,Pink_Noise_1_2.wav,,,,,,,,,,,,,,,0,24,24,41,,,,,,,,,,,,,,,,,,,,,,,307.95412316700003,None,309.45376523199957,None,310.8374110799996,None,cript,310.8374110799996,None,return,8.837280181999631,310.9206908619999,None,,,,,,,,,,,,,,,,,,,,,,,,,,,,,,,,,,,,,,,186,001,2024_Mar_13_1517,SpeechDraft1Carolyn_lessNoise_PlusLocalization,2021.2.3,60.00307839768574,
guess.wav,guess.mpg,guess,5,A,Pink_Noise_5_1.wav,Pink_Noise_5_2.wav,,,,,,,,,,,,,,,0,25,25,21,,,,,,,,,,,,,,,,,,,,,,,319.78731727600007,None,321.2720699519996,None,322.6540993709996,None,"guest
",322.6540993709996,None,return,4.236497772000803,322.7374699869997,None,,,,,,,,,,,,,,,,,,,,,,,,,,,,,,,,,,,,,,,186,001,2024_Mar_13_1517,SpeechDraft1Carolyn_lessNoise_PlusLocalization,2021.2.3,60.00307839768574,
clock.wav,clock.mpg,clock,2,A,Pink_Noise_2_1.wav,Pink_Noise_2_2.wav,,,,,,,,,,,,,,,0,26,26,28,,,,,,,,,,,,,,,,,,,,,,,327.00409314899935,None,328.50383831399995,None,329.887504798,None,clock,329.887504798,None,return,3.5711877330004427,329.97079918799955,None,,,,,,,,,,,,,,,,,,,,,,,,,,,,,,,,,,,,,,,186,001,2024_Mar_13_1517,SpeechDraft1Carolyn_lessNoise_PlusLocalization,2021.2.3,60.00307839768574,
glare.wav,glare.mpg,glare,1,AV,Pink_Noise_1_1.wav,Pink_Noise_1_2.wav,,,,,,,,,,,,,,,0,27,27,71,,,,,,,,,,,,,,,,,,,,,,,333.5707594209998,None,335.05622562499957,None,336.4374559429998,None,"glare
",336.4374559429998,None,return,2.701132084999699,336.52083072999994,None,,,,,,,,,,,,,,,,,,,,,,,,,,,,,,,,,,,,,,,186,001,2024_Mar_13_1517,SpeechDraft1Carolyn_lessNoise_PlusLocalization,2021.2.3,60.00307839768574,
fit.wav,fit.mpg,fit,3,A,Pink_Noise_3_1.wav,Pink_Noise_3_2.wav,,,,,,,,,,,,,,,0,28,28,23,,,,,,,,,,,,,,,,,,,,,,,339.25408218099983,None,340.7538619910001,None,342.1374735749996,None,fit,342.1374735749996,None,return,2.5768955339999593,342.2210611239998,None,,,,,,,,,,,,,,,,,,,,,,,,,,,,,,,,,,,,,,,186,001,2024_Mar_13_1517,SpeechDraft1Carolyn_lessNoise_PlusLocalization,2021.2.3,60.00307839768574,
east.wav,east.mpg,east,6,AV,Pink_Noise_6_1.wav,Pink_Noise_6_2.wav,,,,,,,,,,,,,,,0,29,29,115,,,,,,,,,,,,,,,,,,,,,,,344.82086212299964,None,346.32052486500015,None,347.7041335949998,None,eat,347.7041335949998,None,return,2.962539160000233,347.78744519300017,None,,,,,,,,,,,,,,,,,,,,,,,,,,,,,,,,,,,,,,,186,001,2024_Mar_13_1517,SpeechDraft1Carolyn_lessNoise_PlusLocalization,2021.2.3,60.00307839768574,
dwell.wav,dwell.mpg,dwell,2,AV,Pink_Noise_2_1.wav,Pink_Noise_2_2.wav,,,,,,,,,,,,,,,0,30,30,103,,,,,,,,,,,,,,,,,,,,,,,350.770833001,None,352.2705782459998,None,353.65410876399983,None,dwell,353.65410876399983,None,return,3.3565481489995364,353.73751857000025,None,,,,,,,,,,,,,,,,,,,,,,,,,,,,,,,,,,,,,,,186,001,2024_Mar_13_1517,SpeechDraft1Carolyn_lessNoise_PlusLocalization,2021.2.3,60.00307839768574,
hit.wav,hit.mpg,hit,6,A,Pink_Noise_6_1.wav,Pink_Noise_6_2.wav,,,,,,,,,,,,,,,0,31,31,48,,,,,,,,,,,,,,,,,,,,,,,357.1208005569997,None,358.62088599399976,None,360.00432652400013,None,crisp,360.00432652400013,None,return,6.374404211000183,360.0875514199997,None,,,,,,,,,,,,,,,,,,,,,,,,,,,,,,,,,,,,,,,186,001,2024_Mar_13_1517,SpeechDraft1Carolyn_lessNoise_PlusLocalization,2021.2.3,60.00307839768574,
freak.wav,freak.mpg,freak,4,AV,Pink_Noise_4_1.wav,Pink_Noise_4_2.wav,,,,,,,,,,,,,,,0,32,32,69,,,,,,,,,,,,,,,,,,,,,,,366.48752839899953,None,367.9872689849999,None,369.3706443629999,None,"freak
",369.3706443629999,None,return,3.167771262000315,369.4541869149998,None,,,,,,,,,,,,,,,,,,,,,,,,,,,,,,,,,,,,,,,186,001,2024_Mar_13_1517,SpeechDraft1Carolyn_lessNoise_PlusLocalization,2021.2.3,60.00307839768574,
flee.wav,flee.mpg,flee,2,AV,Pink_Noise_2_1.wav,Pink_Noise_2_2.wav,,,,,,,,,,,,,,,0,33,33,81,,,,,,,,,,,,,,,,,,,,,,,372.65426788399964,None,374.1539374519998,None,375.53745505699953,None,flea,375.53745505699953,None,return,3.9931290170006832,375.6208324649997,None,,,,,,,,,,,,,,,,,,,,,,,,,,,,,,,,,,,,,,,186,001,2024_Mar_13_1517,SpeechDraft1Carolyn_lessNoise_PlusLocalization,2021.2.3,60.00307839768574,
ban.wav,ban.mpg,ban,5,A,Pink_Noise_5_1.wav,Pink_Noise_5_2.wav,,,,,,,,,,,,,,,0,34,34,14,,,,,,,,,,,,,,,,,,,,,,,379.6375030999998,None,381.137199842,None,382.52085812399946,None,"dance
",382.52085812399946,None,return,15.58580097200047,382.60416729200006,None,,,,,,,,,,,,,,,,,,,,,,,,,,,,,,,,,,,,,,,186,001,2024_Mar_13_1517,SpeechDraft1Carolyn_lessNoise_PlusLocalization,2021.2.3,60.00307839768574,
beach.wav,beach.mpg,beach,4,AV,Pink_Noise_4_1.wav,Pink_Noise_4_2.wav,,,,,,,,,,,,,,,0,35,35,78,,,,,,,,,,,,,,,,,,,,,,,398.2208524359994,None,399.72059304699997,None,401.104105851,None,beach,401.104105851,None,return,4.442352482999922,401.18760045199997,None,,,,,,,,,,,,,,,,,,,,,,,,,,,,,,,,,,,,,,,186,001,2024_Mar_13_1517,SpeechDraft1Carolyn_lessNoise_PlusLocalization,2021.2.3,60.00307839768574,
quart.wav,quart.mpg,quart,5,A,Pink_Noise_5_1.wav,Pink_Noise_5_2.wav,,,,,,,,,,,,,,,0,36,36,55,,,,,,,,,,,,,,,,,,,,,,,405.6543305129999,None,407.15406665699993,None,408.5375379269999,None,sort,408.5375379269999,None,return,2.5770570509994286,408.62089298999945,None,,,,,,,,,,,,,,,,,,,,,,,,,,,,,,,,,,,,,,,186,001,2024_Mar_13_1517,SpeechDraft1Carolyn_lessNoise_PlusLocalization,2021.2.3,60.00307839768574,
climb.wav,climb.mpg,climb,6,A,Pink_Noise_6_1.wav,Pink_Noise_6_2.wav,,,,,,,,,,,,,,,0,37,37,10,,,,,,,,,,,,,,,,,,,,,,,411.22087431099953,None,412.7207073689997,None,414.10427680199973,None,rush,414.10427680199973,None,return,3.0664984340000956,414.1875688399996,None,,,,,,,,,,,,,,,,,,,,,,,,,,,,,,,,,,,,,,,186,001,2024_Mar_13_1517,SpeechDraft1Carolyn_lessNoise_PlusLocalization,2021.2.3,60.00307839768574,
dip.wav,dip.mpg,dip,3,AV,Pink_Noise_3_1.wav,Pink_Noise_3_2.wav,,,,,,,,,,,,,,,0,38,38,63,,,,,,,,,,,,,,,,,,,,,,,417.270988794,None,418.77083660900007,None,420.1542656289994,None,dip,420.1542656289994,None,return,3.5124516089999815,420.23750416500025,None,,,,,,,,,,,,,,,,,,,,,,,,,,,,,,,,,,,,,,,186,001,2024_Mar_13_1517,SpeechDraft1Carolyn_lessNoise_PlusLocalization,2021.2.3,60.00307839768574,
brash.wav,brash.mpg,brash,1,AV,Pink_Noise_1_1.wav,Pink_Noise_1_2.wav,,,,,,,,,,,,,,,0,39,39,109,,,,,,,,,,,,,,,,,,,,,,,423.7708498789998,None,425.27070414599984,None,426.6543982200001,None,rash,426.6543982200001,None,return,4.876325817999714,426.7376288300002,None,,,,,,,,,,,,,,,,,,,,,,,,,,,,,,,,,,,,,,,186,001,2024_Mar_13_1517,SpeechDraft1Carolyn_lessNoise_PlusLocalization,2021.2.3,60.00307839768574,
fifth.wav,fifth.mpg,fifth,5,AV,Pink_Noise_5_1.wav,Pink_Noise_5_2.wav,,,,,,,,,,,,,,,0,40,40,91,,,,,,,,,,,,,,,,,,,,,,,431.63749361699956,None,433.13743987,None,434.5208718469994,None,fifth,434.5208718469994,None,return,5.865816097999414,434.60421085300004,None,,,,,,,,,,,,,,,,,,,,,,,,,,,,,,,,,,,,,,,186,001,2024_Mar_13_1517,SpeechDraft1Carolyn_lessNoise_PlusLocalization,2021.2.3,60.00307839768574,
burn.wav,burn.mpg,burn,3,AV,Pink_Noise_3_1.wav,Pink_Noise_3_2.wav,,,,,,,,,,,,,,,0,41,41,72,,,,,,,,,,,,,,,,,,,,,,,440.48757254500015,None,441.9873327770001,None,443.3708618359997,None,burn,443.3708618359997,None,return,2.4316291869999986,443.4544096159998,None,,,,,,,,,,,,,,,,,,,,,,,,,,,,,,,,,,,,,,,186,001,2024_Mar_13_1517,SpeechDraft1Carolyn_lessNoise_PlusLocalization,2021.2.3,60.00307839768574,
clay.wav,clay.mpg,clay,1,AV,Pink_Noise_1_1.wav,Pink_Noise_1_2.wav,,,,,,,,,,,,,,,0,42,42,79,,,,,,,,,,,,,,,,,,,,,,,445.9042614629998,None,447.4040962729996,None,448.7876113759994,None,clay,448.7876113759994,None,return,2.855055242999697,448.8709718069995,None,,,,,,,,,,,,,,,,,,,,,,,,,,,,,,,,,,,,,,,186,001,2024_Mar_13_1517,SpeechDraft1Carolyn_lessNoise_PlusLocalization,2021.2.3,60.00307839768574,
style.wav,style.mpg,style,1,A,Pink_Noise_1_1.wav,Pink_Noise_1_2.wav,,,,,,,,,,,,,,,0,43,43,9,,,,,,,,,,,,,,,,,,,,,,,451.75426449599945,None,453.27071567299936,None,454.65426809699966,None,style,454.65426809699966,None,return,3.7804446299996926,454.7376036320002,None,,,,,,,,,,,,,,,,,,,,,,,,,,,,,,,,,,,,,,,186,001,2024_Mar_13_1517,SpeechDraft1Carolyn_lessNoise_PlusLocalization,2021.2.3,60.00307839768574,
craft.wav,craft.mpg,craft,3,AV,Pink_Noise_3_1.wav,Pink_Noise_3_2.wav,,,,,,,,,,,,,,,0,44,44,89,,,,,,,,,,,,,,,,,,,,,,,458.53755576299955,None,460.03742543799945,None,461.42091339499984,None,"craft
",461.42091339499984,None,return,3.501605821999874,461.5043547289997,None,,,,,,,,,,,,,,,,,,,,,,,,,,,,,,,,,,,,,,,186,001,2024_Mar_13_1517,SpeechDraft1Carolyn_lessNoise_PlusLocalization,2021.2.3,60.00307839768574,
dread.wav,dread.mpg,dread,2,AV,Pink_Noise_2_1.wav,Pink_Noise_2_2.wav,,,,,,,,,,,,,,,0,45,45,112,,,,,,,,,,,,,,,,,,,,,,,465.03762273199936,None,466.53726854100023,None,467.9211496549997,None,dread,467.9211496549997,None,return,3.4658205890000318,468.0042117180001,None,,,,,,,,,,,,,,,,,,,,,,,,,,,,,,,,,,,,,,,186,001,2024_Mar_13_1517,SpeechDraft1Carolyn_lessNoise_PlusLocalization,2021.2.3,60.00307839768574,
blond.wav,blond.mpg,blond,2,A,Pink_Noise_2_1.wav,Pink_Noise_2_2.wav,,,,,,,,,,,,,,,0,46,46,36,,,,,,,,,,,,,,,,,,,,,,,471.48767916699944,None,472.98740756000007,None,474.37095929599946,None,blood,474.37095929599946,None,return,19.575594605999868,474.4543634370002,None,,,,,,,,,,,,,,,,,,,,,,,,,,,,,,,,,,,,,,,186,001,2024_Mar_13_1517,SpeechDraft1Carolyn_lessNoise_PlusLocalization,2021.2.3,60.00307839768574,
fake.wav,fake.mpg,fake,1,A,Pink_Noise_1_1.wav,Pink_Noise_1_2.wav,,,,,,,,,,,,,,,0,47,47,15,,,,,,,,,,,,,,,,,,,,,,,494.05456727099954,None,495.55415069799983,None,496.937700251,None,fake,496.937700251,None,return,2.6569928110002365,497.02105191600003,None,,,,,,,,,,,,,,,,,,,,,,,,,,,,,,,,,,,,,,,186,001,2024_Mar_13_1517,SpeechDraft1Carolyn_lessNoise_PlusLocalization,2021.2.3,60.00307839768574,
cash.wav,cash.mpg,cash,6,A,Pink_Noise_6_1.wav,Pink_Noise_6_2.wav,,,,,,,,,,,,,,,0,48,48,59,,,,,,,,,,,,,,,,,,,,,,,499.7043057159999,None,501.2041038769994,None,502.5878221889998,None,"ashe
",502.5878221889998,None,return,3.5506916089998413,502.6712756930001,None,,,,,,,,,,,,,,,,,,,,,,,,,,,,,,,,,,,,,,,186,001,2024_Mar_13_1517,SpeechDraft1Carolyn_lessNoise_PlusLocalization,2021.2.3,60.00307839768574,
drop.wav,drop.mpg,drop,2,A,Pink_Noise_2_1.wav,Pink_Noise_2_2.wav,,,,,,,,,,,,,,,0,49,49,1,,,,,,,,,,,,,,,,,,,,,,,506.25435059400024,None,507.7541935250001,None,509.1377281340001,None,"
drop",509.1377281340001,None,return,13.368998193000152,509.22097522399963,None,,,,,,,,,,,,,,,,,,,,,,,,,,,,,,,,,,,,,,,186,001,2024_Mar_13_1517,SpeechDraft1Carolyn_lessNoise_PlusLocalization,2021.2.3,60.00307839768574,
dent.wav,dent.mpg,dent,1,AV,Pink_Noise_1_1.wav,Pink_Noise_1_2.wav,,,,,,,,,,,,,,,0,50,50,104,,,,,,,,,,,,,,,,,,,,,,,522.6210848119999,None,524.1208486360001,None,525.5042917689998,None,dent,525.5042917689998,None,return,5.258140754000124,525.5878458500001,None,,,,,,,,,,,,,,,,,,,,,,,,,,,,,,,,,,,,,,,186,001,2024_Mar_13_1517,SpeechDraft1Carolyn_lessNoise_PlusLocalization,2021.2.3,60.00307839768574,
cause.wav,cause.mpg,cause,3,AV,Pink_Noise_3_1.wav,Pink_Noise_3_2.wav,,,,,,,,,,,,,,,0,51,51,61,,,,,,,,,,,,,,,,,,,,,,,530.871118993,None,532.3708950299997,None,533.7543150539996,None,cause,533.7543150539996,None,return,4.8082254599994485,533.8377267759997,None,,,,,,,,,,,,,,,,,,,,,,,,,,,,,,,,,,,,,,,186,001,2024_Mar_13_1517,SpeechDraft1Carolyn_lessNoise_PlusLocalization,2021.2.3,60.00307839768574,
clown.wav,clown.mpg,clown,1,AV,Pink_Noise_1_1.wav,Pink_Noise_1_2.wav,,,,,,,,,,,,,,,0,52,52,66,,,,,,,,,,,,,,,,,,,,,,,538.671046855,None,540.1708562980002,None,541.5543897070002,None,clown,541.5543897070002,None,return,4.8482987099996535,541.6377231010001,None,,,,,,,,,,,,,,,,,,,,,,,,,,,,,,,,,,,,,,,186,001,2024_Mar_13_1517,SpeechDraft1Carolyn_lessNoise_PlusLocalization,2021.2.3,60.00307839768574,
edge.wav,edge.mpg,edge,4,A,Pink_Noise_4_1.wav,Pink_Noise_4_2.wav,,,,,,,,,,,,,,,0,53,53,39,,,,,,,,,,,,,,,,,,,,,,,546.5043354689997,None,548.0041794999997,None,549.3877581159995,None,edge,549.3877581159995,None,return,1.790835199999492,549.4711264159996,None,,,,,,,,,,,,,,,,,,,,,,,,,,,,,,,,,,,,,,,186,001,2024_Mar_13_1517,SpeechDraft1Carolyn_lessNoise_PlusLocalization,2021.2.3,60.00307839768574,
grace.wav,grace.mpg,grace,3,A,Pink_Noise_3_1.wav,Pink_Noise_3_2.wav,,,,,,,,,,,,,,,0,54,54,24,,,,,,,,,,,,,,,,,,,,,,,551.2877302509996,None,552.7876103259996,None,554.1711327639996,None,grace,554.1711327639996,None,return,2.055849639000371,554.2543821939998,None,,,,,,,,,,,,,,,,,,,,,,,,,,,,,,,,,,,,,,,186,001,2024_Mar_13_1517,SpeechDraft1Carolyn_lessNoise_PlusLocalization,2021.2.3,60.00307839768574,
chore.wav,chore.mpg,chore,2,AV,Pink_Noise_2_1.wav,Pink_Noise_2_2.wav,,,,,,,,,,,,,,,0,55,55,64,,,,,,,,,,,,,,,,,,,,,,,556.3377261629994,None,557.8375341259998,None,559.2210067199994,None,"chore
",559.2210067199994,None,return,2.0694956779998392,559.3044776489996,None,,,,,,,,,,,,,,,,,,,,,,,,,,,,,,,,,,,,,,,186,001,2024_Mar_13_1517,SpeechDraft1Carolyn_lessNoise_PlusLocalization,2021.2.3,60.00307839768574,
bath.wav,bath.mpg,bath,4,A,Pink_Noise_4_1.wav,Pink_Noise_4_2.wav,,,,,,,,,,,,,,,0,56,56,30,,,,,,,,,,,,,,,,,,,,,,,561.404424927,None,562.9044178459999,None,564.287663911,None,"bash
",564.287663911,None,return,2.8188264259997595,564.3711314840002,None,,,,,,,,,,,,,,,,,,,,,,,,,,,,,,,,,,,,,,,186,001,2024_Mar_13_1517,SpeechDraft1Carolyn_lessNoise_PlusLocalization,2021.2.3,60.00307839768574,
gas.wav,gas.mpg,gas,2,A,Pink_Noise_2_1.wav,Pink_Noise_2_2.wav,,,,,,,,,,,,,,,0,57,57,11,,,,,,,,,,,,,,,,,,,,,,,567.2211456529994,None,568.7210179719996,None,570.104400319,None,gas,570.104400319,None,return,2.698272672000712,570.1877364040001,None,,,,,,,,,,,,,,,,,,,,,,,,,,,,,,,,,,,,,,,186,001,2024_Mar_13_1517,SpeechDraft1Carolyn_lessNoise_PlusLocalization,2021.2.3,60.00307839768574,
bill.wav,bill.mpg,bill,4,AV,Pink_Noise_4_1.wav,Pink_Noise_4_2.wav,,,,,,,,,,,,,,,0,58,58,116,,,,,,,,,,,,,,,,,,,,,,,572.9044456510001,None,574.4042816659994,None,575.7889400579998,None,"bill
",575.7889400579998,None,return,11.118761290000293,575.871195443,None,,,,,,,,,,,,,,,,,,,,,,,,,,,,,,,,,,,,,,,186,001,2024_Mar_13_1517,SpeechDraft1Carolyn_lessNoise_PlusLocalization,2021.2.3,60.00307839768574,
bar.wav,bar.mpg,bar,6,AV,Pink_Noise_6_1.wav,Pink_Noise_6_2.wav,,,,,,,,,,,,,,,0,59,59,67,,,,,,,,,,,,,,,,,,,,,,,587.0210482719995,None,588.5208842040001,None,589.9044651329996,None,"mom
",589.9044651329996,None,return,2.418049842999608,589.9879148869995,None,,,,,,,,,,,,,,,,,,,,,,,,,,,,,,,,,,,,,,,186,001,2024_Mar_13_1517,SpeechDraft1Carolyn_lessNoise_PlusLocalization,2021.2.3,60.00307839768574,
chat.wav,chat.mpg,chat,2,AV,Pink_Noise_2_1.wav,Pink_Noise_2_2.wav,,,,,,,,,,,,,,,0,60,60,118,,,,,,,,,,,,,,,,,,,,,,,592.4377181789996,None,593.9376131689996,None,595.3210882839994,None,chat,595.3210882839994,None,return,3.2094574330003525,595.4044963189999,None,,,,,,,,,,,,,,,,,,,,,,,,,,,,,,,,,,,,,,,186,001,2024_Mar_13_1517,SpeechDraft1Carolyn_lessNoise_PlusLocalization,2021.2.3,60.00307839768574,
flu.wav,flu.mpg,flu,3,AV,Pink_Noise_3_1.wav,Pink_Noise_3_2.wav,,,,,,,,,,,,,,,0,61,61,73,,,,,,,,,,,,,,,,,,,,,,,598.6377314609999,None,600.1375916899997,None,601.5210463909998,None,"fruit
",601.5210463909998,None,return,2.217460284000481,601.604506138,None,,,,,,,,,,,,,,,,,,,,,,,,,,,,,,,,,,,,,,,186,001,2024_Mar_13_1517,SpeechDraft1Carolyn_lessNoise_PlusLocalization,2021.2.3,60.00307839768574,
fluff.wav,fluff.mpg,fluff,4,AV,Pink_Noise_4_1.wav,Pink_Noise_4_2.wav,,,,,,,,,,,,,,,0,62,62,62,,,,,,,,,,,,,,,,,,,,,,,603.8544449989995,None,605.3562538320002,None,606.73777892,None,fluff,606.73777892,None,return,2.4647748130000764,606.821246552,None,,,,,,,,,,,,,,,,,,,,,,,,,,,,,,,,,,,,,,,186,001,2024_Mar_13_1517,SpeechDraft1Carolyn_lessNoise_PlusLocalization,2021.2.3,60.00307839768574,
flow.wav,flow.mpg,flow,4,AV,Pink_Noise_4_1.wav,Pink_Noise_4_2.wav,,,,,,,,,,,,,,,0,63,63,93,,,,,,,,,,,,,,,,,,,,,,,609.304445619,None,610.8041860839994,None,612.1877695289995,None,flow,612.1877695289995,None,return,2.0549152569992657,612.2710747780002,None,,,,,,,,,,,,,,,,,,,,,,,,,,,,,,,,,,,,,,,186,001,2024_Mar_13_1517,SpeechDraft1Carolyn_lessNoise_PlusLocalization,2021.2.3,60.00307839768574,
strike.wav,strike.mpg,strike,2,AV,Pink_Noise_2_1.wav,Pink_Noise_2_2.wav,,,,,,,,,,,,,,,0,64,64,107,,,,,,,,,,,,,,,,,,,,,,,614.3544999420001,None,615.854276559,None,617.2377875940001,None,"strike
",617.2377875940001,None,return,2.2528784140004063,617.3211063299996,None,,,,,,,,,,,,,,,,,,,,,,,,,,,,,,,,,,,,,,,186,001,2024_Mar_13_1517,SpeechDraft1Carolyn_lessNoise_PlusLocalization,2021.2.3,60.00307839768574,
gap.wav,gap.mpg,gap,5,A,Pink_Noise_5_1.wav,Pink_Noise_5_2.wav,,,,,,,,,,,,,,,0,65,65,58,,,,,,,,,,,,,,,,,,,,,,,619.6045467849999,None,621.1046250319996,None,622.487844792,None,"wash
",622.487844792,None,return,2.050730203999592,622.5712262739999,None,,,,,,,,,,,,,,,,,,,,,,,,,,,,,,,,,,,,,,,186,001,2024_Mar_13_1517,SpeechDraft1Carolyn_lessNoise_PlusLocalization,2021.2.3,60.00307839768574,
chest.wav,chest.mpg,chest,6,AV,Pink_Noise_6_1.wav,Pink_Noise_6_2.wav,,,,,,,,,,,,,,,0,66,66,60,,,,,,,,,,,,,,,,,,,,,,,624.6545225829996,None,626.1544347270001,None,627.5378541439995,None,"chess
",627.5378541439995,None,return,4.736783510999885,627.6211914839996,None,,,,,,,,,,,,,,,,,,,,,,,,,,,,,,,,,,,,,,,186,001,2024_Mar_13_1517,SpeechDraft1Carolyn_lessNoise_PlusLocalization,2021.2.3,60.00307839768574,
click.wav,click.mpg,click,3,A,Pink_Noise_3_1.wav,Pink_Noise_3_2.wav,,,,,,,,,,,,,,,0,67,67,2,,,,,,,,,,,,,,,,,,,,,,,632.387930248,None,633.8876064360002,None,635.2712827719997,None,click,635.2712827719997,None,return,3.123530187000142,635.3545305950001,None,,,,,,,,,,,,,,,,,,,,,,,,,,,,,,,,,,,,,,,186,001,2024_Mar_13_1517,SpeechDraft1Carolyn_lessNoise_PlusLocalization,2021.2.3,60.00307839768574,
bottle.wav,bottle.mpg,bottle,4,A,Pink_Noise_4_1.wav,Pink_Noise_4_2.wav,,,,,,,,,,,,,,,0,68,68,7,,,,,,,,,,,,,,,,,,,,,,,638.5045945900001,None,640.0042428649995,None,641.387907366,None,fire,641.387907366,None,return,1.6309188509994783,641.4711110500002,None,,,,,,,,,,,,,,,,,,,,,,,,,,,,,,,,,,,,,,,186,001,2024_Mar_13_1517,SpeechDraft1Carolyn_lessNoise_PlusLocalization,2021.2.3,60.00307839768574,
bunch.wav,bunch.mpg,bunch,4,AV,Pink_Noise_4_1.wav,Pink_Noise_4_2.wav,,,,,,,,,,,,,,,0,69,69,87,,,,,,,,,,,,,,,,,,,,,,,643.1213034389993,None,644.6208864129994,None,646.0044974369994,None,bunch,646.0044974369994,None,return,2.9416793030004555,646.0882931509996,None,,,,,,,,,,,,,,,,,,,,,,,,,,,,,,,,,,,,,,,186,001,2024_Mar_13_1517,SpeechDraft1Carolyn_lessNoise_PlusLocalization,2021.2.3,60.00307839768574,
foot.wav,foot.mpg,foot,5,A,Pink_Noise_5_1.wav,Pink_Noise_5_2.wav,,,,,,,,,,,,,,,0,70,70,27,,,,,,,,,,,,,,,,,,,,,,,649.054547965,None,650.554294773,None,651.9378739389995,None,push,651.9378739389995,None,return,6.632715502999417,652.0212790209998,None,,,,,,,,,,,,,,,,,,,,,,,,,,,,,,,,,,,,,,,186,001,2024_Mar_13_1517,SpeechDraft1Carolyn_lessNoise_PlusLocalization,2021.2.3,60.00307839768574,
bribe.wav,bribe.mpg,bribe,4,AV,Pink_Noise_4_1.wav,Pink_Noise_4_2.wav,,,,,,,,,,,,,,,0,71,71,119,,,,,,,,,,,,,,,,,,,,,,,658.6712002129998,None,660.1710781419997,None,661.5543979959994,None,bribe,661.5543979959994,None,return,2.6560395899996365,661.6380118799998,None,,,,,,,,,,,,,,,,,,,,,,,,,,,,,,,,,,,,,,,186,001,2024_Mar_13_1517,SpeechDraft1Carolyn_lessNoise_PlusLocalization,2021.2.3,60.00307839768574,
stove.wav,stove.mpg,stove,3,AV,Pink_Noise_3_1.wav,Pink_Noise_3_2.wav,,,,,,,,,,,,,,,0,72,72,77,,,,,,,,,,,,,,,,,,,,,,,664.3213205020002,None,665.8377806429999,None,667.2213526280002,None,stove,667.2213526280002,None,return,10.605423529999825,667.304584212,None,,,,,,,,,,,,,,,,,,,,,,,,,,,,,,,,,,,,,,,186,001,2024_Mar_13_1517,SpeechDraft1Carolyn_lessNoise_PlusLocalization,2021.2.3,60.00307839768574,
brawl.wav,brawl.mpg,brawl,3,A,Pink_Noise_3_1.wav,Pink_Noise_3_2.wav,,,,,,,,,,,,,,,0,73,73,43,,,,,,,,,,,,,,,,,,,,,,,677.9378418010001,None,679.4376265159999,None,680.8213802270002,None,withdrawl,680.8213802270002,None,return,13.52530514800037,680.904641356,None,,,,,,,,,,,,,,,,,,,,,,,,,,,,,,,,,,,,,,,186,001,2024_Mar_13_1517,SpeechDraft1Carolyn_lessNoise_PlusLocalization,2021.2.3,60.00307839768574,
stuck.wav,stuck.mpg,stuck,4,A,Pink_Noise_4_1.wav,Pink_Noise_4_2.wav,,,,,,,,,,,,,,,0,74,74,0,,,,,,,,,,,,,,,,,,,,,,,694.4545870029997,None,695.9545716499997,None,697.3379906199998,None,stuff,697.3379906199998,None,return,7.448796726000182,697.4212529030001,None,,,,,,,,,,,,,,,,,,,,,,,,,,,,,,,,,,,,,,,186,001,2024_Mar_13_1517,SpeechDraft1Carolyn_lessNoise_PlusLocalization,2021.2.3,60.00307839768574,
flog.wav,flog.mpg,flog,6,AV,Pink_Noise_6_1.wav,Pink_Noise_6_2.wav,,,,,,,,,,,,,,,0,75,75,76,,,,,,,,,,,,,,,,,,,,,,,704.8880122410001,None,706.4043647110002,None,707.7879285660001,None,flock,707.7879285660001,None,return,4.942614552000123,707.8713390140001,None,,,,,,,,,,,,,,,,,,,,,,,,,,,,,,,,,,,,,,,186,001,2024_Mar_13_1517,SpeechDraft1Carolyn_lessNoise_PlusLocalization,2021.2.3,60.00307839768574,
bare.wav,bare.mpg,bare,5,AV,Pink_Noise_5_1.wav,Pink_Noise_5_2.wav,,,,,,,,,,,,,,,0,76,76,110,,,,,,,,,,,,,,,,,,,,,,,712.8379478420002,None,714.3384976050002,None,715.7213491619996,None,bear,715.7213491619996,None,return,2.945301737000591,715.8046761619999,None,,,,,,,,,,,,,,,,,,,,,,,,,,,,,,,,,,,,,,,186,001,2024_Mar_13_1517,SpeechDraft1Carolyn_lessNoise_PlusLocalization,2021.2.3,60.00307839768574,
sock.wav,sock.mpg,sock,6,A,Pink_Noise_6_1.wav,Pink_Noise_6_2.wav,,,,,,,,,,,,,,,0,77,77,26,,,,,,,,,,,,,,,,,,,,,,,718.7713622669999,None,720.2712032879999,None,721.6547851260002,None,"flush
",721.6547851260002,None,return,10.483976765999614,721.7379895200002,None,,,,,,,,,,,,,,,,,,,,,,,,,,,,,,,,,,,,,,,186,001,2024_Mar_13_1517,SpeechDraft1Carolyn_lessNoise_PlusLocalization,2021.2.3,60.00307839768574,
bland.wav,bland.mpg,bland,1,A,Pink_Noise_1_1.wav,Pink_Noise_1_2.wav,,,,,,,,,,,,,,,0,78,78,42,,,,,,,,,,,,,,,,,,,,,,,732.2546763760001,None,733.7546017189998,None,735.1380373049997,None,gland,735.1380373049997,None,return,4.192548732999967,735.2214136109997,None,,,,,,,,,,,,,,,,,,,,,,,,,,,,,,,,,,,,,,,186,001,2024_Mar_13_1517,SpeechDraft1Carolyn_lessNoise_PlusLocalization,2021.2.3,60.00307839768574,
fold.wav,fold.mpg,fold,1,A,Pink_Noise_1_1.wav,Pink_Noise_1_2.wav,,,,,,,,,,,,,,,0,79,79,50,,,,,,,,,,,,,,,,,,,,,,,739.437971839,None,740.9391178609994,None,742.3214157419998,None,fold,742.3214157419998,None,return,2.8732808310005566,742.4047375169994,None,,,,,,,,,,,,,,,,,,,,,,,,,,,,,,,,,,,,,,,186,001,2024_Mar_13_1517,SpeechDraft1Carolyn_lessNoise_PlusLocalization,2021.2.3,60.00307839768574,
fried.wav,fried.mpg,fried,6,A,Pink_Noise_6_1.wav,Pink_Noise_6_2.wav,,,,,,,,,,,,,,,0,80,80,20,,,,,,,,,,,,,,,,,,,,,,,745.3046905699994,None,746.8044522760001,None,748.1880054809999,None,rush,748.1880054809999,None,return,2.998572168999999,748.2714925310001,None,,,,,,,,,,,,,,,,,,,,,,,,,,,,,,,,,,,,,,,186,001,2024_Mar_13_1517,SpeechDraft1Carolyn_lessNoise_PlusLocalization,2021.2.3,60.00307839768574,
boost.wav,boost.mpg,boost,1,A,Pink_Noise_1_1.wav,Pink_Noise_1_2.wav,,,,,,,,,,,,,,,0,81,81,18,,,,,,,,,,,,,,,,,,,,,,,751.2879909479998,None,752.787921909,None,754.171525537,None,boost,754.171525537,None,return,2.1592270740002277,754.2547548160001,None,,,,,,,,,,,,,,,,,,,,,,,,,,,,,,,,,,,,,,,186,001,2024_Mar_13_1517,SpeechDraft1Carolyn_lessNoise_PlusLocalization,2021.2.3,60.00307839768574,
axe.wav,axe.mpg,axe,4,A,Pink_Noise_4_1.wav,Pink_Noise_4_2.wav,,,,,,,,,,,,,,,0,82,82,47,,,,,,,,,,,,,,,,,,,,,,,756.4380652159998,None,757.9378522979996,None,759.3216809670002,None,"ask
",759.3216809670002,None,return,2.433301606999521,759.4046805649996,None,,,,,,,,,,,,,,,,,,,,,,,,,,,,,,,,,,,,,,,186,001,2024_Mar_13_1517,SpeechDraft1Carolyn_lessNoise_PlusLocalization,2021.2.3,60.00307839768574,
strive.wav,strive.mpg,strive,6,A,Pink_Noise_6_1.wav,Pink_Noise_6_2.wav,,,,,,,,,,,,,,,0,83,83,46,,,,,,,,,,,,,,,,,,,,,,,761.8715134249996,None,763.3877570069999,None,764.7713981549996,None,stretch,764.7713981549996,None,return,3.959298636999847,764.8546247819995,None,,,,,,,,,,,,,,,,,,,,,,,,,,,,,,,,,,,,,,,186,001,2024_Mar_13_1517,SpeechDraft1Carolyn_lessNoise_PlusLocalization,2021.2.3,60.00307839768574,
blink.wav,blink.mpg,blink,6,A,Pink_Noise_6_1.wav,Pink_Noise_6_2.wav,,,,,,,,,,,,,,,0,84,84,52,,,,,,,,,,,,,,,,,,,,,,,768.8380395889999,None,770.3378254640002,None,771.7214000099993,None,flush,771.7214000099993,None,return,5.209237375999692,771.8047063550002,None,,,,,,,,,,,,,,,,,,,,,,,,,,,,,,,,,,,,,,,186,001,2024_Mar_13_1517,SpeechDraft1Carolyn_lessNoise_PlusLocalization,2021.2.3,60.00307839768574,
due.wav,due.mpg,due,2,A,Pink_Noise_2_1.wav,Pink_Noise_2_2.wav,,,,,,,,,,,,,,,0,85,85,32,,,,,,,,,,,,,,,,,,,,,,,777.038080761,None,778.5381648269995,None,779.9214377429998,None,do,779.9214377429998,None,return,6.433112390000133,780.0048545210002,None,,,,,,,,,,,,,,,,,,,,,,,,,,,,,,,,,,,,,,,186,001,2024_Mar_13_1517,SpeechDraft1Carolyn_lessNoise_PlusLocalization,2021.2.3,60.00307839768574,
bring.wav,bring.mpg,bring,5,AV,Pink_Noise_5_1.wav,Pink_Noise_5_2.wav,,,,,,,,,,,,,,,0,86,86,68,,,,,,,,,,,,,,,,,,,,,,,786.4547185009997,None,787.9573645820001,None,789.3382484329995,None,grape,789.3382484329995,None,return,5.8244716839999455,789.4214813479994,None,,,,,,,,,,,,,,,,,,,,,,,,,,,,,,,,,,,,,,,186,001,2024_Mar_13_1517,SpeechDraft1Carolyn_lessNoise_PlusLocalization,2021.2.3,60.00307839768574,
frost.wav,frost.mpg,frost,2,AV,Pink_Noise_2_1.wav,Pink_Noise_2_2.wav,,,,,,,,,,,,,,,0,87,87,86,,,,,,,,,,,,,,,,,,,,,,,795.2714491449997,None,796.7712344259999,None,798.1549251939996,None,"frost
",798.1549251939996,None,return,5.983839392999471,798.2381207889994,None,,,,,,,,,,,,,,,,,,,,,,,,,,,,,,,,,,,,,,,186,001,2024_Mar_13_1517,SpeechDraft1Carolyn_lessNoise_PlusLocalization,2021.2.3,60.00307839768574,
sun.wav,sun.mpg,sun,4,A,Pink_Noise_4_1.wav,Pink_Noise_4_2.wav,,,,,,,,,,,,,,,0,88,88,33,,,,,,,,,,,,,,,,,,,,,,,804.2547346339998,None,805.7711790940002,None,807.1547949229998,None,sell,807.1547949229998,None,return,2.375871635000294,807.2380809819997,None,,,,,,,,,,,,,,,,,,,,,,,,,,,,,,,,,,,,,,,186,001,2024_Mar_13_1517,SpeechDraft1Carolyn_lessNoise_PlusLocalization,2021.2.3,60.00307839768574,
crown.wav,crown.mpg,crown,2,AV,Pink_Noise_2_1.wav,Pink_Noise_2_2.wav,,,,,,,,,,,,,,,0,89,89,74,,,,,,,,,,,,,,,,,,,,,,,809.6380694039999,None,811.13783005,None,812.5213673600001,None,crowd,812.5213673600001,None,return,2.889193109000189,812.6048366979994,None,,,,,,,,,,,,,,,,,,,,,,,,,,,,,,,,,,,,,,,186,001,2024_Mar_13_1517,SpeechDraft1Carolyn_lessNoise_PlusLocalization,2021.2.3,60.00307839768574,
guide.wav,guide.mpg,guide,1,AV,Pink_Noise_1_1.wav,Pink_Noise_1_2.wav,,,,,,,,,,,,,,,0,90,90,92,,,,,,,,,,,,,,,,,,,,,,,815.5214974789997,None,817.021511592,None,818.404740852,None,guide,818.404740852,None,return,4.021928316999947,818.4880991169994,None,,,,,,,,,,,,,,,,,,,,,,,,,,,,,,,,,,,,,,,186,001,2024_Mar_13_1517,SpeechDraft1Carolyn_lessNoise_PlusLocalization,2021.2.3,60.00307839768574,
bib.wav,bib.mpg,bib,3,AV,Pink_Noise_3_1.wav,Pink_Noise_3_2.wav,,,,,,,,,,,,,,,0,91,91,108,,,,,,,,,,,,,,,,,,,,,,,822.538171184,None,824.0380567739994,None,825.4213169599998,None,"bid
",825.4213169599998,None,return,13.517146737000076,825.5048206199999,None,,,,,,,,,,,,,,,,,,,,,,,,,,,,,,,,,,,,,,,186,001,2024_Mar_13_1517,SpeechDraft1Carolyn_lessNoise_PlusLocalization,2021.2.3,60.00307839768574,
cape.wav,cape.mpg,cape,5,AV,Pink_Noise_5_1.wav,Pink_Noise_5_2.wav,,,,,,,,,,,,,,,0,92,92,97,,,,,,,,,,,,,,,,,,,,,,,839.0549619069998,None,840.5712474459997,None,841.9548106619995,None,cape,841.9548106619995,None,return,3.472008349999669,842.0380903039995,None,,,,,,,,,,,,,,,,,,,,,,,,,,,,,,,,,,,,,,,186,001,2024_Mar_13_1517,SpeechDraft1Carolyn_lessNoise_PlusLocalization,2021.2.3,60.00307839768574,
wild.wav,wild.mpg,wild,6,AV,Pink_Noise_6_1.wav,Pink_Noise_6_2.wav,,,,,,,,,,,,,,,0,93,93,117,,,,,,,,,,,,,,,,,,,,,,,845.5382402240002,None,847.0546978739994,None,848.4381936740001,None,while,848.4381936740001,None,return,7.628452220999861,848.5215078470001,None,,,,,,,,,,,,,,,,,,,,,,,,,,,,,,,,,,,,,,,186,001,2024_Mar_13_1517,SpeechDraft1Carolyn_lessNoise_PlusLocalization,2021.2.3,60.00307839768574,
cramp.wav,cramp.mpg,cramp,1,AV,Pink_Noise_1_1.wav,Pink_Noise_1_2.wav,,,,,,,,,,,,,,,0,94,94,88,,,,,,,,,,,,,,,,,,,,,,,856.1715224,None,857.6713092619993,None,859.0548548830002,None,cramp,859.0548548830002,None,return,4.155898060000254,859.1382047629995,None,,,,,,,,,,,,,,,,,,,,,,,,,,,,,,,,,,,,,,,186,001,2024_Mar_13_1517,SpeechDraft1Carolyn_lessNoise_PlusLocalization,2021.2.3,60.00307839768574,
fresh.wav,fresh.mpg,fresh,2,A,Pink_Noise_2_1.wav,Pink_Noise_2_2.wav,,,,,,,,,,,,,,,0,95,95,8,,,,,,,,,,,,,,,,,,,,,,,863.3216514260002,None,864.8379700380001,None,866.2215835090001,None,fresh,866.2215835090001,None,return,2.7251071990003766,866.3048669680002,None,,,,,,,,,,,,,,,,,,,,,,,,,,,,,,,,,,,,,,,186,001,2024_Mar_13_1517,SpeechDraft1Carolyn_lessNoise_PlusLocalization,2021.2.3,60.00307839768574,
dock.wav,dock.mpg,dock,6,AV,Pink_Noise_6_1.wav,Pink_Noise_6_2.wav,,,,,,,,,,,,,,,0,96,96,70,,,,,,,,,,,,,,,,,,,,,,,869.0549313209995,None,870.5546235709999,None,871.938106519,None,"suck
",871.938106519,None,return,4.984393826000087,872.0215809609999,None,,,,,,,,,,,,,,,,,,,,,,,,,,,,,,,,,,,,,,,186,001,2024_Mar_13_1517,SpeechDraft1Carolyn_lessNoise_PlusLocalization,2021.2.3,60.00307839768574,
priest.wav,priest.mpg,priest,4,A,Pink_Noise_4_1.wav,Pink_Noise_4_2.wav,,,,,,,,,,,,,,,0,97,97,5,,,,,,,,,,,,,,,,,,,,,,,877.0381714710002,None,878.5546588890002,None,879.9215392919996,None,priest,879.9215392919996,None,return,17.92106743899967,880.0049002850001,None,,,,,,,,,,,,,,,,,,,,,,,,,,,,,,,,,,,,,,,186,001,2024_Mar_13_1517,SpeechDraft1Carolyn_lessNoise_PlusLocalization,2021.2.3,60.00307839768574,
quit.wav,quit.mpg,quit,3,A,Pink_Noise_3_1.wav,Pink_Noise_3_2.wav,,,,,,,,,,,,,,,0,98,98,29,,,,,,,,,,,,,,,,,,,,,,,897.9548647669999,None,899.4714367289998,None,900.8549889710002,None,quit,900.8549889710002,None,return,7.6597476449996975,900.9382047029994,None,,,,,,,,,,,,,,,,,,,,,,,,,,,,,,,,,,,,,,,186,001,2024_Mar_13_1517,SpeechDraft1Carolyn_lessNoise_PlusLocalization,2021.2.3,60.00307839768574,
fear.wav,fear.mpg,fear,5,A,Pink_Noise_5_1.wav,Pink_Noise_5_2.wav,,,,,,,,,,,,,,,0,99,99,35,,,,,,,,,,,,,,,,,,,,,,,908.6215363459996,None,910.1218402469995,None,911.5049320339995,None,reach,911.5049320339995,None,return,3.889692501999889,911.5883588839997,None,,,,,,,,,,,,,,,,,,,,,,,,,,,,,,,,,,,,,,,186,001,2024_Mar_13_1517,SpeechDraft1Carolyn_lessNoise_PlusLocalization,2021.2.3,60.00307839768574,
spray.wav,spray.mpg,spray,1,AV,Pink_Noise_1_1.wav,Pink_Noise_1_2.wav,,,,,,,,,,,,,,,0,100,100,65,,,,,,,,,,,,,,,,,,,,,,,915.5049220410001,None,917.0047452409999,None,918.3883086309997,None,spray,918.3883086309997,None,return,8.982469441999456,918.4715443489995,None,,,,,,,,,,,,,,,,,,,,,,,,,,,,,,,,,,,,,,,186,001,2024_Mar_13_1517,SpeechDraft1Carolyn_lessNoise_PlusLocalization,2021.2.3,60.00307839768574,
crow.wav,crow.mpg,crow,3,A,Pink_Noise_3_1.wav,Pink_Noise_3_2.wav,,,,,,,,,,,,,,,0,101,101,34,,,,,,,,,,,,,,,,,,,,,,,927.471568162,None,928.9880275249998,None,930.3716201779998,None,crow,930.3716201779998,None,return,2.663051368000197,930.4549698700002,None,,,,,,,,,,,,,,,,,,,,,,,,,,,,,,,,,,,,,,,186,001,2024_Mar_13_1517,SpeechDraft1Carolyn_lessNoise_PlusLocalization,2021.2.3,60.00307839768574,
damp.wav,damp.mpg,damp,5,AV,Pink_Noise_5_1.wav,Pink_Noise_5_2.wav,,,,,,,,,,,,,,,0,102,102,84,,,,,,,,,,,,,,,,,,,,,,,933.138302204,None,934.6381312229996,None,936.0216595069996,None,damp,936.0216595069996,None,return,3.5730548320007074,936.1049978780002,None,,,,,,,,,,,,,,,,,,,,,,,,,,,,,,,,,,,,,,,186,001,2024_Mar_13_1517,SpeechDraft1Carolyn_lessNoise_PlusLocalization,2021.2.3,60.00307839768574,
blade.wav,blade.mpg,blade,1,A,Pink_Noise_1_1.wav,Pink_Noise_1_2.wav,,,,,,,,,,,,,,,0,103,103,51,,,,,,,,,,,,,,,,,,,,,,,939.7049338349998,None,941.2214043399999,None,942.6049978229994,None,blade,942.6049978229994,None,return,2.5416340499996295,942.6883231769998,None,,,,,,,,,,,,,,,,,,,,,,,,,,,,,,,,,,,,,,,186,001,2024_Mar_13_1517,SpeechDraft1Carolyn_lessNoise_PlusLocalization,2021.2.3,60.00307839768574,
beam.wav,beam.mpg,beam,4,AV,Pink_Noise_4_1.wav,Pink_Noise_4_2.wav,,,,,,,,,,,,,,,0,104,104,98,,,,,,,,,,,,,,,,,,,,,,,945.2549570740002,None,946.7548245990001,None,948.1381574699999,None,meme,948.1381574699999,None,return,5.496311952999349,948.2217299929998,None,,,,,,,,,,,,,,,,,,,,,,,,,,,,,,,,,,,,,,,186,001,2024_Mar_13_1517,SpeechDraft1Carolyn_lessNoise_PlusLocalization,2021.2.3,60.00307839768574,
awe.wav,awe.mpg,awe,6,A,Pink_Noise_6_1.wav,Pink_Noise_6_2.wav,,,,,,,,,,,,,,,0,105,105,54,,,,,,,,,,,,,,,,,,,,,,,953.7382653529994,None,955.254755256,None,956.638312135,None,"touch
",956.638312135,None,return,3.8683012729998154,956.7216427920002,None,,,,,,,,,,,,,,,,,,,,,,,,,,,,,,,,,,,,,,,186,001,2024_Mar_13_1517,SpeechDraft1Carolyn_lessNoise_PlusLocalization,2021.2.3,60.00307839768574,
crate.wav,crate.mpg,crate,5,A,Pink_Noise_5_1.wav,Pink_Noise_5_2.wav,,,,,,,,,,,,,,,0,106,106,37,,,,,,,,,,,,,,,,,,,,,,,960.6217088389994,None,962.1214489409995,None,963.5051072599999,None,"crate
",963.5051072599999,None,return,3.2176369610006077,963.588323508,None,,,,,,,,,,,,,,,,,,,,,,,,,,,,,,,,,,,,,,,186,001,2024_Mar_13_1517,SpeechDraft1Carolyn_lessNoise_PlusLocalization,2021.2.3,60.00307839768574,
buff.wav,buff.mpg,buff,2,AV,Pink_Noise_2_1.wav,Pink_Noise_2_2.wav,,,,,,,,,,,,,,,0,107,107,90,,,,,,,,,,,,,,,,,,,,,,,966.8383260259998,None,968.3549259579995,None,969.7382959930001,None,buff,969.7382959930001,None,return,3.0564274670005034,969.8216588999994,None,,,,,,,,,,,,,,,,,,,,,,,,,,,,,,,,,,,,,,,186,001,2024_Mar_13_1517,SpeechDraft1Carolyn_lessNoise_PlusLocalization,2021.2.3,60.00307839768574,
damn.wav,damn.mpg,damn,3,AV,Pink_Noise_3_1.wav,Pink_Noise_3_2.wav,,,,,,,,,,,,,,,0,108,108,105,,,,,,,,,,,,,,,,,,,,,,,972.9049452580002,None,974.4215462550001,None,975.8051152469998,None,damp,975.8051152469998,None,return,5.709707795000213,975.8882900709996,None,,,,,,,,,,,,,,,,,,,,,,,,,,,,,,,,,,,,,,,186,001,2024_Mar_13_1517,SpeechDraft1Carolyn_lessNoise_PlusLocalization,2021.2.3,60.00307839768574,
chunk.wav,chunk.mpg,chunk,4,A,Pink_Noise_4_1.wav,Pink_Noise_4_2.wav,,,,,,,,,,,,,,,0,109,109,57,,,,,,,,,,,,,,,,,,,,,,,981.6216467909999,None,983.1381853309995,None,984.5216754009998,None,choke,984.5216754009998,None,return,4.4490306099996815,984.6049972169994,None,,,,,,,,,,,,,,,,,,,,,,,,,,,,,,,,,,,,,,,186,001,2024_Mar_13_1517,SpeechDraft1Carolyn_lessNoise_PlusLocalization,2021.2.3,60.00307839768574,
grown.wav,grown.mpg,grown,1,AV,Pink_Noise_1_1.wav,Pink_Noise_1_2.wav,,,,,,,,,,,,,,,0,110,110,83,,,,,,,,,,,,,,,,,,,,,,,989.0717187230002,None,990.5715126579998,None,991.9551267589995,None,grw,991.9551267589995,None,return,4.031620427999769,992.03839419,None,,,,,,,,,,,,,,,,,,,,,,,,,,,,,,,,,,,,,,,186,001,2024_Mar_13_1517,SpeechDraft1Carolyn_lessNoise_PlusLocalization,2021.2.3,60.00307839768574,
jam.wav,jam.mpg,jam,2,A,Pink_Noise_2_1.wav,Pink_Noise_2_2.wav,,,,,,,,,,,,,,,0,111,111,53,,,,,,,,,,,,,,,,,,,,,,,996.0884109419994,None,997.6047895319998,None,998.9883694999999,None,"jail
",998.9883694999999,None,return,2.68618388699997,999.0717858930002,None,,,,,,,,,,,,,,,,,,,,,,,,,,,,,,,,,,,,,,,186,001,2024_Mar_13_1517,SpeechDraft1Carolyn_lessNoise_PlusLocalization,2021.2.3,60.00307839768574,
catch.wav,catch.mpg,catch,5,A,Pink_Noise_5_1.wav,Pink_Noise_5_2.wav,,,,,,,,,,,,,,,0,112,112,31,,,,,,,,,,,,,,,,,,,,,,,1001.7883602129996,None,1003.2893270300001,None,1004.6718701629998,None,lunch,1004.6718701629998,None,return,4.642844578999757,1004.75510786,None,,,,,,,,,,,,,,,,,,,,,,,,,,,,,,,,,,,,,,,186,001,2024_Mar_13_1517,SpeechDraft1Carolyn_lessNoise_PlusLocalization,2021.2.3,60.00307839768574,
chip.wav,chip.mpg,chip,6,AV,Pink_Noise_6_1.wav,Pink_Noise_6_2.wav,,,,,,,,,,,,,,,0,113,113,102,,,,,,,,,,,,,,,,,,,,,,,1009.4217546579994,None,1010.938236944,None,1012.3217885220001,None,chip,1012.3217885220001,None,return,3.3930478350002886,1012.4049462639996,None,,,,,,,,,,,,,,,,,,,,,,,,,,,,,,,,,,,,,,,186,001,2024_Mar_13_1517,SpeechDraft1Carolyn_lessNoise_PlusLocalization,2021.2.3,60.00307839768574,
blow.wav,blow.mpg,blow,4,A,Pink_Noise_4_1.wav,Pink_Noise_4_2.wav,,,,,,,,,,,,,,,0,114,114,22,,,,,,,,,,,,,,,,,,,,,,,1015.8217679059999,None,1017.3218705419995,None,1018.7050608259997,None,blow,1018.7050608259997,None,return,3.097544201999881,1018.7884202380001,None,,,,,,,,,,,,,,,,,,,,,,,,,,,,,,,,,,,,,,,186,001,2024_Mar_13_1517,SpeechDraft1Carolyn_lessNoise_PlusLocalization,2021.2.3,60.00307839768574,
round.wav,round.mpg,round,6,A,Pink_Noise_6_1.wav,Pink_Noise_6_2.wav,,,,,,,,,,,,,,,0,115,115,40,,,,,,,,,,,,,,,,,,,,,,,1021.9050404359996,None,1023.4065943969999,None,1024.7886017969995,None,"flow
",1024.7886017969995,None,return,4.334219745000155,1024.8717434869995,None,,,,,,,,,,,,,,,,,,,,,,,,,,,,,,,,,,,,,,,186,001,2024_Mar_13_1517,SpeechDraft1Carolyn_lessNoise_PlusLocalization,2021.2.3,60.00307839768574,
bear.wav,bear.mpg,bear,5,AV,Pink_Noise_5_1.wav,Pink_Noise_5_2.wav,,,,,,,,,,,,,,,0,116,116,114,,,,,,,,,,,,,,,,,,,,,,,1029.2386458599995,None,1030.7549501349995,None,1032.1383459789995,None,bear,1032.1383459789995,None,return,2.560200726000403,1032.2217376589997,None,,,,,,,,,,,,,,,,,,,,,,,,,,,,,,,,,,,,,,,186,001,2024_Mar_13_1517,SpeechDraft1Carolyn_lessNoise_PlusLocalization,2021.2.3,60.00307839768574,
coat.wav,coat.mpg,coat,2,A,Pink_Noise_2_1.wav,Pink_Noise_2_2.wav,,,,,,,,,,,,,,,0,117,117,56,,,,,,,,,,,,,,,,,,,,,,,1034.80505584,None,1036.306757941,None,1037.6885389589997,None,coat,1037.6885389589997,None,return,2.1303357540000434,1037.771742801,None,,,,,,,,,,,,,,,,,,,,,,,,,,,,,,,,,,,,,,,186,001,2024_Mar_13_1517,SpeechDraft1Carolyn_lessNoise_PlusLocalization,2021.2.3,60.00307839768574,
beard.wav,beard.mpg,beard,6,AV,Pink_Noise_6_1.wav,Pink_Noise_6_2.wav,,,,,,,,,,,,,,,0,118,118,106,,,,,,,,,,,,,,,,,,,,,,,1039.9217164390002,None,1041.4215997729998,None,1042.8050931449998,None,"bleed
",1042.8050931449998,None,return,3.853487178999785,1042.888477652,None,,,,,,,,,,,,,,,,,,,,,,,,,,,,,,,,,,,,,,,186,001,2024_Mar_13_1517,SpeechDraft1Carolyn_lessNoise_PlusLocalization,2021.2.3,60.00307839768574,
curve.wav,curve.mpg,curve,2,A,Pink_Noise_2_1.wav,Pink_Noise_2_2.wav,,,,,,,,,,,,,,,0,119,119,25,,,,,,,,,,,,,,,,,,,,,,,1046.771741482,None,1048.2883197399997,None,1049.671753263,None,curved,1049.671753263,None,return,3.746933929000079,1049.755091897,None,,,,,,,,,,,,,,,,,,,,,,,,,,,,,,,,,,,,,,,186,001,2024_Mar_13_1517,SpeechDraft1Carolyn_lessNoise_PlusLocalization,2021.2.3,60.00307839768574,
,,,,,,,,,,,,,,,,,,,,,,,,,,,,,,,,,,,,,,,,,,,,,,,,,,,,,,,,,,,,,,,,,,space,17.096963582999706,1053.6051028800002,None,,,,,,,,,,,,,,,,,,,,,,,,,,,,,186,001,2024_Mar_13_1517,SpeechDraft1Carolyn_lessNoise_PlusLocalization,2021.2.3,60.00307839768574,
,,,,,,,,nearRight,6.5,0,ch1Sound_localizationTask.wav,6.5,"(1047, 878)","(87, -202)",95,-338,,,,,,,,,0,0,0,4,,,,,,,,,,,,,,,,,,,,,,,,,,,,,,,,,,,,,,,,,,1053.6051028800002,None,1070.7383448259998,None,1071.838237717,None,1072.7715893389995,None,1.2994708994708994,3.6519528640001226,1072.7715893389995,None,,,,,,,,,,,,,,,,,186,001,2024_Mar_13_1517,SpeechDraft1Carolyn_lessNoise_PlusLocalization,2021.2.3,60.00307839768574,
,,,,,,,,nearLeft,-6.5,1,ch1Sound_localizationTask.wav,-6.5,"(857, 878)","(-103,-202)",-95,-338,,,,,,,,,0,1,1,2,,,,,,,,,,,,,,,,,,,,,,,,,,,,,,,,,,,,,,,,,,,,1076.4384606590002,None,1077.538289317,None,1078.471629525,None,1.362962962962963,0.9157872190007765,1078.471629525,None,,,,,,,,,,,,,,,,,186,001,2024_Mar_13_1517,SpeechDraft1Carolyn_lessNoise_PlusLocalization,2021.2.3,60.00307839768574,
,,,,,,,,midLeft,-13.0,2,ch1Sound_localizationTask.wav,-13.0,"(762, 878)","(-198,-202)",-190,-338,,,,,,,,,0,2,2,1,,,,,,,,,,,,,,,,,,,,,,,,,,,,,,,,,,,,,,,,,,,,1079.3884636889998,None,1080.4882490740001,None,1081.4215155749998,None,1.3354497354497354,0.8829925480004022,1081.4215155749998,None,,,,,,,,,,,,,,,,,186,001,2024_Mar_13_1517,SpeechDraft1Carolyn_lessNoise_PlusLocalization,2021.2.3,60.00307839768574,
,,,,,,,,midLeft,-13.0,2,ch1Sound_localizationTask.wav,-13.0,"(762, 878)","(-198,-202)",-190,-338,,,,,,,,,0,3,3,1,,,,,,,,,,,,,,,,,,,,,,,,,,,,,,,,,,,,,,,,,,,,1082.3051642209994,None,1083.404954601,None,1084.338208741,None,1.3222222222222222,0.7501469810003982,1084.338208741,None,,,,,,,,,,,,,,,,,186,001,2024_Mar_13_1517,SpeechDraft1Carolyn_lessNoise_PlusLocalization,2021.2.3,60.00307839768574,
,,,,,,,,midRight,13.0,3,ch1Sound_localizationTask.wav,13.0,"(1142, 878)","(182, -202)",190,-338,,,,,,,,,0,4,4,5,,,,,,,,,,,,,,,,,,,,,,,,,,,,,,,,,,,,,,,,,,,,1085.0889814000002,None,1086.188236295,None,1087.1217079119997,None,1.5878306878306878,1.0165926690006017,1087.1217079119997,None,,,,,,,,,,,,,,,,,186,001,2024_Mar_13_1517,SpeechDraft1Carolyn_lessNoise_PlusLocalization,2021.2.3,60.00307839768574,
,,,,,,,,farRight,19.1,4,ch1Sound_localizationTask.wav,19.1,"(1237, 878)","(277,-202)",285,-338,,,,,,,,,0,5,5,6,,,,,,,,,,,,,,,,,,,,,,,,,,,,,,,,,,,,,,,,,,,,1088.1384065149996,None,1089.2382232640002,None,1090.1718531099996,None,1.6238095238095238,0.7985091700002158,1090.1718531099996,None,,,,,,,,,,,,,,,,,186,001,2024_Mar_13_1517,SpeechDraft1Carolyn_lessNoise_PlusLocalization,2021.2.3,60.00307839768574,
,,,,,,,,farRight,19.1,4,ch1Sound_localizationTask.wav,19.1,"(1237, 878)","(277,-202)",285,-338,,,,,,,,,0,6,6,6,,,,,,,,,,,,,,,,,,,,,,,,,,,,,,,,,,,,,,,,,,,,1090.9718153899994,None,1092.071594262,None,1093.0049603939997,None,1.6402116402116402,1.1164897359994939,1093.0049603939997,None,,,,,,,,,,,,,,,,,186,001,2024_Mar_13_1517,SpeechDraft1Carolyn_lessNoise_PlusLocalization,2021.2.3,60.00307839768574,
,,,,,,,,farRight,19.1,4,ch1Sound_localizationTask.wav,19.1,"(1237, 878)","(277,-202)",285,-338,,,,,,,,,1,0,7,6,,,,,,,,,,,,,,,,,,,,,,,,,,,,,,,,,,,,,,,,,,,,1094.1217794160002,None,1095.2218184439998,None,1096.1550679789998,None,1.6587301587301586,1.1327954849994057,1096.1550679789998,None,,,,,,,,,,,,,,,,,186,001,2024_Mar_13_1517,SpeechDraft1Carolyn_lessNoise_PlusLocalization,2021.2.3,60.00307839768574,
,,,,,,,,center,0.0,6,ch1Sound_localizationTask.wav,0.0,"(952, 878)","(-8,-202)",0,-338,,,,,,,,,1,1,8,3,,,,,,,,,,,,,,,,,,,,,,,,,,,,,,,,,,,,,,,,,,,,1097.2886237080002,None,1098.3882640639995,None,1099.3217498550002,None,1.48994708994709,1.031645383999603,1099.3217498550002,None,,,,,,,,,,,,,,,,,186,001,2024_Mar_13_1517,SpeechDraft1Carolyn_lessNoise_PlusLocalization,2021.2.3,60.00307839768574,
,,,,,,,,midRight,13.0,3,ch1Sound_localizationTask.wav,13.0,"(1142, 878)","(182, -202)",190,-338,,,,,,,,,1,2,9,5,,,,,,,,,,,,,,,,,,,,,,,,,,,,,,,,,,,,,,,,,,,,1100.3551285779995,None,1101.4548661219997,None,1102.3882876609996,None,1.6624338624338624,1.0482674009999755,1102.3882876609996,None,,,,,,,,,,,,,,,,,186,001,2024_Mar_13_1517,SpeechDraft1Carolyn_lessNoise_PlusLocalization,2021.2.3,60.00307839768574,
,,,,,,,,farLeft,-19.1,5,ch1Sound_localizationTask.wav,-19.1,"(667, 878)","(-293,-202)",-285,-338,,,,,,,,,1,3,10,0,,,,,,,,,,,,,,,,,,,,,,,,,,,,,,,,,,,,,,,,,,,,1103.4386445419996,None,1104.5383583859993,None,1105.4717600579997,None,1.3291005291005291,1.083391637999739,1105.4717600579997,None,,,,,,,,,,,,,,,,,186,001,2024_Mar_13_1517,SpeechDraft1Carolyn_lessNoise_PlusLocalization,2021.2.3,60.00307839768574,
,,,,,,,,nearLeft,-6.5,1,ch1Sound_localizationTask.wav,-6.5,"(857, 878)","(-103,-202)",-95,-338,,,,,,,,,1,4,11,2,,,,,,,,,,,,,,,,,,,,,,,,,,,,,,,,,,,,,,,,,,,,1106.5719921529999,None,1107.6716443309997,None,1108.604894735,None,1.3994708994708995,0.6170204649997686,1108.604894735,None,,,,,,,,,,,,,,,,,186,001,2024_Mar_13_1517,SpeechDraft1Carolyn_lessNoise_PlusLocalization,2021.2.3,60.00307839768574,
,,,,,,,,center,0.0,6,ch1Sound_localizationTask.wav,0.0,"(952, 878)","(-8,-202)",0,-338,,,,,,,,,1,5,12,3,,,,,,,,,,,,,,,,,,,,,,,,,,,,,,,,,,,,,,,,,,,,1109.2387385929997,None,1110.3383065669996,None,1111.2714821979998,None,1.4264550264550264,0.6997923139997511,1111.2714821979998,None,,,,,,,,,,,,,,,,,186,001,2024_Mar_13_1517,SpeechDraft1Carolyn_lessNoise_PlusLocalization,2021.2.3,60.00307839768574,
,,,,,,,,center,0.0,6,ch1Sound_localizationTask.wav,0.0,"(952, 878)","(-8,-202)",0,-338,,,,,,,,,1,6,13,3,,,,,,,,,,,,,,,,,,,,,,,,,,,,,,,,,,,,,,,,,,,,1111.9718254680001,None,1113.0717025499998,None,1114.0049678619998,None,1.4423280423280422,0.6679868239998541,1114.0049678619998,None,,,,,,,,,,,,,,,,,186,001,2024_Mar_13_1517,SpeechDraft1Carolyn_lessNoise_PlusLocalization,2021.2.3,60.00307839768574,
,,,,,,,,farRight,19.1,4,ch1Sound_localizationTask.wav,19.1,"(1237, 878)","(277,-202)",285,-338,,,,,,,,,2,0,14,6,,,,,,,,,,,,,,,,,,,,,,,,,,,,,,,,,,,,,,,,,,,,1114.688808373,None,1115.7887712709999,None,1116.7217368259999,None,1.615873015873016,0.6973773749996326,1116.7217368259999,None,,,,,,,,,,,,,,,,,186,001,2024_Mar_13_1517,SpeechDraft1Carolyn_lessNoise_PlusLocalization,2021.2.3,60.00307839768574,
,,,,,,,,nearRight,6.5,0,ch1Sound_localizationTask.wav,6.5,"(1047, 878)","(87, -202)",95,-338,,,,,,,,,2,1,15,4,,,,,,,,,,,,,,,,,,,,,,,,,,,,,,,,,,,,,,,,,,,,1117.421875088,None,1118.52165772,None,1119.454981674,None,1.5074074074074075,0.6154742290000286,1119.454981674,None,,,,,,,,,,,,,,,,,186,001,2024_Mar_13_1517,SpeechDraft1Carolyn_lessNoise_PlusLocalization,2021.2.3,60.00307839768574,
,,,,,,,,nearLeft,-6.5,1,ch1Sound_localizationTask.wav,-6.5,"(857, 878)","(-103,-202)",-95,-338,,,,,,,,,2,2,16,2,,,,,,,,,,,,,,,,,,,,,,,,,,,,,,,,,,,,,,,,,,,,1120.0718479400002,None,1121.171718273,None,1122.1049998429999,None,1.456084656084656,0.9667194809999273,1122.1049998429999,None,,,,,,,,,,,,,,,,,186,001,2024_Mar_13_1517,SpeechDraft1Carolyn_lessNoise_PlusLocalization,2021.2.3,60.00307839768574,
,,,,,,,,midRight,13.0,3,ch1Sound_localizationTask.wav,13.0,"(1142, 878)","(182, -202)",190,-338,,,,,,,,,2,3,17,5,,,,,,,,,,,,,,,,,,,,,,,,,,,,,,,,,,,,,,,,,,,,1123.0718455380002,None,1124.1716858219997,None,1125.1049859019995,None,1.597883597883598,0.8316767160004019,1125.1049859019995,None,,,,,,,,,,,,,,,,,186,001,2024_Mar_13_1517,SpeechDraft1Carolyn_lessNoise_PlusLocalization,2021.2.3,60.00307839768574,
,,,,,,,,farRight,19.1,4,ch1Sound_localizationTask.wav,19.1,"(1237, 878)","(277,-202)",285,-338,,,,,,,,,2,4,18,6,,,,,,,,,,,,,,,,,,,,,,,,,,,,,,,,,,,,,,,,,,,,1125.93850216,None,1127.0383100519994,None,1127.9716221090002,None,1.5682539682539682,1.1165941019999082,1127.9716221090002,None,,,,,,,,,,,,,,,,,186,001,2024_Mar_13_1517,SpeechDraft1Carolyn_lessNoise_PlusLocalization,2021.2.3,60.00307839768574,
,,,,,,,,midRight,13.0,3,ch1Sound_localizationTask.wav,13.0,"(1142, 878)","(182, -202)",190,-338,,,,,,,,,2,5,19,5,,,,,,,,,,,,,,,,,,,,,,,,,,,,,,,,,,,,,,,,,,,,1129.0885039650002,None,1130.1883306210002,None,1131.121669235,None,1.6174603174603175,0.9664508070000011,1131.121669235,None,,,,,,,,,,,,,,,,,186,001,2024_Mar_13_1517,SpeechDraft1Carolyn_lessNoise_PlusLocalization,2021.2.3,60.00307839768574,
,,,,,,,,farLeft,-19.1,5,ch1Sound_localizationTask.wav,-19.1,"(667, 878)","(-293,-202)",-285,-338,,,,,,,,,2,6,20,0,,,,,,,,,,,,,,,,,,,,,,,,,,,,,,,,,,,,,,,,,,,,1132.0885225289994,None,1133.1882711629996,None,1134.1217289859997,None,1.3306878306878307,0.9160705570002392,1134.1217289859997,None,,,,,,,,,,,,,,,,,186,001,2024_Mar_13_1517,SpeechDraft1Carolyn_lessNoise_PlusLocalization,2021.2.3,60.00307839768574,
,,,,,,,,farRight,19.1,4,ch1Sound_localizationTask.wav,19.1,"(1237, 878)","(277,-202)",285,-338,,,,,,,,,3,0,21,6,,,,,,,,,,,,,,,,,,,,,,,,,,,,,,,,,,,,,,,,,,,,1135.0384695539997,None,1136.1383895339995,None,1137.071743863,None,1.6851851851851851,1.11493712399988,1137.071743863,None,,,,,,,,,,,,,,,,,186,001,2024_Mar_13_1517,SpeechDraft1Carolyn_lessNoise_PlusLocalization,2021.2.3,60.00307839768574,
,,,,,,,,farLeft,-19.1,5,ch1Sound_localizationTask.wav,-19.1,"(667, 878)","(-293,-202)",-285,-338,,,,,,,,,3,1,22,0,,,,,,,,,,,,,,,,,,,,,,,,,,,,,,,,,,,,,,,,,,,,1138.1885903450002,None,1139.288416249,None,1140.221607603,None,1.2925925925925925,1.2985104760000468,1140.221607603,None,,,,,,,,,,,,,,,,,186,001,2024_Mar_13_1517,SpeechDraft1Carolyn_lessNoise_PlusLocalization,2021.2.3,60.00307839768574,
,,,,,,,,midLeft,-13.0,2,ch1Sound_localizationTask.wav,-13.0,"(762, 878)","(-198,-202)",-190,-338,,,,,,,,,3,2,23,1,,,,,,,,,,,,,,,,,,,,,,,,,,,,,,,,,,,,,,,,,,,,1141.5219316599996,None,1142.6216195850002,None,1143.555162709,None,1.3470899470899471,0.7343478250004409,1143.555162709,None,,,,,,,,,,,,,,,,,186,001,2024_Mar_13_1517,SpeechDraft1Carolyn_lessNoise_PlusLocalization,2021.2.3,60.00307839768574,
,,,,,,,,midRight,13.0,3,ch1Sound_localizationTask.wav,13.0,"(1142, 878)","(182, -202)",190,-338,,,,,,,,,3,3,24,5,,,,,,,,,,,,,,,,,,,,,,,,,,,,,,,,,,,,,,,,,,,,1144.3055858110001,None,1145.4051016859994,None,1146.3383116839996,None,1.6814814814814816,0.6990228960003151,1146.3383116839996,None,,,,,,,,,,,,,,,,,186,001,2024_Mar_13_1517,SpeechDraft1Carolyn_lessNoise_PlusLocalization,2021.2.3,60.00307839768574,
,,,,,,,,midLeft,-13.0,2,ch1Sound_localizationTask.wav,-13.0,"(762, 878)","(-198,-202)",-190,-338,,,,,,,,,3,4,25,1,,,,,,,,,,,,,,,,,,,,,,,,,,,,,,,,,,,,,,,,,,,,1147.0384995059994,None,1148.1383396689998,None,1149.0717022990002,None,1.3402116402116402,0.8009402859997863,1149.0717022990002,None,,,,,,,,,,,,,,,,,186,001,2024_Mar_13_1517,SpeechDraft1Carolyn_lessNoise_PlusLocalization,2021.2.3,60.00307839768574,
,,,,,,,,center,0.0,6,ch1Sound_localizationTask.wav,0.0,"(952, 878)","(-8,-202)",0,-338,,,,,,,,,3,5,26,3,,,,,,,,,,,,,,,,,,,,,,,,,,,,,,,,,,,,,,,,,,,,1149.888651202,None,1150.988335731,None,1151.9216198779995,None,1.4957671957671956,0.8499750499995571,1151.9216198779995,None,,,,,,,,,,,,,,,,,186,001,2024_Mar_13_1517,SpeechDraft1Carolyn_lessNoise_PlusLocalization,2021.2.3,60.00307839768574,
,,,,,,,,midLeft,-13.0,2,ch1Sound_localizationTask.wav,-13.0,"(762, 878)","(-198,-202)",-190,-338,,,,,,,,,3,6,27,1,,,,,,,,,,,,,,,,,,,,,,,,,,,,,,,,,,,,,,,,,,,,1152.771898346,None,1153.8717081180002,None,1154.8048696119995,None,1.3814814814814815,0.9496396269996694,1154.8048696119995,None,,,,,,,,,,,,,,,,,186,001,2024_Mar_13_1517,SpeechDraft1Carolyn_lessNoise_PlusLocalization,2021.2.3,60.00307839768574,
,,,,,,,,midLeft,-13.0,2,ch1Sound_localizationTask.wav,-13.0,"(762, 878)","(-198,-202)",-190,-338,,,,,,,,,4,0,28,1,,,,,,,,,,,,,,,,,,,,,,,,,,,,,,,,,,,,,,,,,,,,1155.755219304,None,1156.854898095,None,1157.7883866439997,None,1.337037037037037,0.6153519239996967,1157.7883866439997,None,,,,,,,,,,,,,,,,,186,001,2024_Mar_13_1517,SpeechDraft1Carolyn_lessNoise_PlusLocalization,2021.2.3,60.00307839768574,
,,,,,,,,center,0.0,6,ch1Sound_localizationTask.wav,0.0,"(952, 878)","(-8,-202)",0,-338,,,,,,,,,4,1,29,3,,,,,,,,,,,,,,,,,,,,,,,,,,,,,,,,,,,,,,,,,,,,1158.4052321889994,None,1159.5051636050002,None,1160.4384674759995,None,1.4952380952380953,0.6827059369998096,1160.4384674759995,None,,,,,,,,,,,,,,,,,186,001,2024_Mar_13_1517,SpeechDraft1Carolyn_lessNoise_PlusLocalization,2021.2.3,60.00307839768574,
,,,,,,,,nearRight,6.5,0,ch1Sound_localizationTask.wav,6.5,"(1047, 878)","(87, -202)",95,-338,,,,,,,,,4,2,30,4,,,,,,,,,,,,,,,,,,,,,,,,,,,,,,,,,,,,,,,,,,,,1161.1218434699995,None,1162.2217483779996,None,1163.1550490519994,None,1.5412698412698411,0.49985780299994076,1163.1550490519994,None,,,,,,,,,,,,,,,,,186,001,2024_Mar_13_1517,SpeechDraft1Carolyn_lessNoise_PlusLocalization,2021.2.3,60.00307839768574,
,,,,,,,,midRight,13.0,3,ch1Sound_localizationTask.wav,13.0,"(1142, 878)","(182, -202)",190,-338,,,,,,,,,4,3,31,5,,,,,,,,,,,,,,,,,,,,,,,,,,,,,,,,,,,,,,,,,,,,1163.6560945129995,None,1164.7550492989994,None,1165.6882969429998,None,1.607936507936508,0.7312323180003659,1165.6882969429998,None,,,,,,,,,,,,,,,,,186,001,2024_Mar_13_1517,SpeechDraft1Carolyn_lessNoise_PlusLocalization,2021.2.3,60.00307839768574,
,,,,,,,,center,0.0,6,ch1Sound_localizationTask.wav,0.0,"(952, 878)","(-8,-202)",0,-338,,,,,,,,,4,4,32,3,,,,,,,,,,,,,,,,,,,,,,,,,,,,,,,,,,,,,,,,,,,,1166.4218566969994,None,1167.5216596319997,None,1168.4551035969998,None,1.482010582010582,0.751075514999684,1168.4551035969998,None,,,,,,,,,,,,,,,,,186,001,2024_Mar_13_1517,SpeechDraft1Carolyn_lessNoise_PlusLocalization,2021.2.3,60.00307839768574,
,,,,,,,,farLeft,-19.1,5,ch1Sound_localizationTask.wav,-19.1,"(667, 878)","(-293,-202)",-285,-338,,,,,,,,,4,5,33,0,,,,,,,,,,,,,,,,,,,,,,,,,,,,,,,,,,,,,,,,,,,,1169.221932259,None,1170.321670204,None,1171.2551595129999,None,1.3052910052910054,0.7324473630005741,1171.2551595129999,None,,,,,,,,,,,,,,,,,186,001,2024_Mar_13_1517,SpeechDraft1Carolyn_lessNoise_PlusLocalization,2021.2.3,60.00307839768574,
,,,,,,,,midLeft,-13.0,2,ch1Sound_localizationTask.wav,-13.0,"(762, 878)","(-198,-202)",-190,-338,,,,,,,,,4,6,34,1,,,,,,,,,,,,,,,,,,,,,,,,,,,,,,,,,,,,,,,,,,,,1171.9887402949998,None,1173.0887526629995,None,1174.0217290780001,None,1.3216931216931216,0.6015708659997472,1174.0217290780001,None,,,,,,,,,,,,,,,,,186,001,2024_Mar_13_1517,SpeechDraft1Carolyn_lessNoise_PlusLocalization,2021.2.3,60.00307839768574,
,,,,,,,,farLeft,-19.1,5,ch1Sound_localizationTask.wav,-19.1,"(667, 878)","(-293,-202)",-285,-338,,,,,,,,,5,0,35,0,,,,,,,,,,,,,,,,,,,,,,,,,,,,,,,,,,,,,,,,,,,,1174.6386877200002,None,1175.7385014539996,None,1176.6720701519998,None,1.3317460317460317,0.6483944589999737,1176.6720701519998,None,,,,,,,,,,,,,,,,,186,001,2024_Mar_13_1517,SpeechDraft1Carolyn_lessNoise_PlusLocalization,2021.2.3,60.00307839768574,
,,,,,,,,nearRight,6.5,0,ch1Sound_localizationTask.wav,6.5,"(1047, 878)","(87, -202)",95,-338,,,,,,,,,5,1,36,4,,,,,,,,,,,,,,,,,,,,,,,,,,,,,,,,,,,,,,,,,,,,1177.339176341,None,1178.4384693639995,None,1179.3720828679998,None,1.564021164021164,0.748006381999403,1179.3720828679998,None,,,,,,,,,,,,,,,,,186,001,2024_Mar_13_1517,SpeechDraft1Carolyn_lessNoise_PlusLocalization,2021.2.3,60.00307839768574,
,,,,,,,,midRight,13.0,3,ch1Sound_localizationTask.wav,13.0,"(1142, 878)","(182, -202)",190,-338,,,,,,,,,5,2,37,5,,,,,,,,,,,,,,,,,,,,,,,,,,,,,,,,,,,,,,,,,,,,1180.1220199279996,None,1181.2218106029995,None,1182.155294483,None,1.651851851851852,0.9572830890001569,1182.155294483,None,,,,,,,,,,,,,,,,,186,001,2024_Mar_13_1517,SpeechDraft1Carolyn_lessNoise_PlusLocalization,2021.2.3,60.00307839768574,
,,,,,,,,nearRight,6.5,0,ch1Sound_localizationTask.wav,6.5,"(1047, 878)","(87, -202)",95,-338,,,,,,,,,5,3,38,4,,,,,,,,,,,,,,,,,,,,,,,,,,,,,,,,,,,,,,,,,,,,1183.1395270209996,None,1184.2389963449996,None,1185.155300556,None,1.546031746031746,0.5150058620001801,1185.155300556,None,,,,,,,,,,,,,,,,,186,001,2024_Mar_13_1517,SpeechDraft1Carolyn_lessNoise_PlusLocalization,2021.2.3,60.00307839768574,
,,,,,,,,nearRight,6.5,0,ch1Sound_localizationTask.wav,6.5,"(1047, 878)","(87, -202)",95,-338,,,,,,,,,5,4,39,4,,,,,,,,,,,,,,,,,,,,,,,,,,,,,,,,,,,,,,,,,,,,1185.6895617049995,None,1186.7884566060002,None,1187.722179212,None,1.5121693121693123,0.7318263600000137,1187.722179212,None,,,,,,,,,,,,,,,,,186,001,2024_Mar_13_1517,SpeechDraft1Carolyn_lessNoise_PlusLocalization,2021.2.3,60.00307839768574,
,,,,,,,,nearLeft,-6.5,1,ch1Sound_localizationTask.wav,-6.5,"(857, 878)","(-103,-202)",-95,-338,,,,,,,,,5,5,40,2,,,,,,,,,,,,,,,,,,,,,,,,,,,,,,,,,,,,,,,,,,,,1188.47245689,None,1189.5723023519995,None,1190.5054437769995,None,1.4444444444444444,0.8476142800000162,1190.5054437769995,None,,,,,,,,,,,,,,,,,186,001,2024_Mar_13_1517,SpeechDraft1Carolyn_lessNoise_PlusLocalization,2021.2.3,60.00307839768574,
,,,,,,,,farRight,19.1,4,ch1Sound_localizationTask.wav,19.1,"(1237, 878)","(277,-202)",285,-338,,,,,,,,,5,6,41,6,,,,,,,,,,,,,,,,,,,,,,,,,,,,,,,,,,,,,,,,,,,,1191.372414249,None,1192.4719907950002,None,1193.4052551300001,None,1.588888888888889,0.8525403789999473,1193.4052551300001,None,,,,,,,,,,,,,,,,,186,001,2024_Mar_13_1517,SpeechDraft1Carolyn_lessNoise_PlusLocalization,2021.2.3,60.00307839768574,
,,,,,,,,farLeft,-19.1,5,ch1Sound_localizationTask.wav,-19.1,"(667, 878)","(-293,-202)",-285,-338,,,,,,,,,6,0,42,0,,,,,,,,,,,,,,,,,,,,,,,,,,,,,,,,,,,,,,,,,,,,1194.2722024149998,None,1195.3887593929994,None,1196.3055138999998,None,1.3375661375661376,1.2117200600005162,1196.3055138999998,None,,,,,,,,,,,,,,,,,186,001,2024_Mar_13_1517,SpeechDraft1Carolyn_lessNoise_PlusLocalization,2021.2.3,60.00307839768574,
,,,,,,,,nearLeft,-6.5,1,ch1Sound_localizationTask.wav,-6.5,"(857, 878)","(-103,-202)",-95,-338,,,,,,,,,6,1,43,2,,,,,,,,,,,,,,,,,,,,,,,,,,,,,,,,,,,,,,,,,,,,1197.5219693099998,None,1198.6217143779995,None,1199.5550663579997,None,1.461904761904762,1.0489952159996392,1199.5550663579997,None,,,,,,,,,,,,,,,,,186,001,2024_Mar_13_1517,SpeechDraft1Carolyn_lessNoise_PlusLocalization,2021.2.3,60.00307839768574,
,,,,,,,,nearRight,6.5,0,ch1Sound_localizationTask.wav,6.5,"(1047, 878)","(87, -202)",95,-338,,,,,,,,,6,2,44,4,,,,,,,,,,,,,,,,,,,,,,,,,,,,,,,,,,,,,,,,,,,,1200.6053961789994,None,1201.7051559809997,None,1202.6384488659996,None,1.57989417989418,0.7325372269997388,1202.6384488659996,None,,,,,,,,,,,,,,,,,186,001,2024_Mar_13_1517,SpeechDraft1Carolyn_lessNoise_PlusLocalization,2021.2.3,60.00307839768574,
,,,,,,,,farLeft,-19.1,5,ch1Sound_localizationTask.wav,-19.1,"(667, 878)","(-293,-202)",-285,-338,,,,,,,,,6,3,45,0,,,,,,,,,,,,,,,,,,,,,,,,,,,,,,,,,,,,,,,,,,,,1203.371999944,None,1204.4718353600001,None,1205.4049969520001,None,1.2740740740740741,0.7159823499996492,1205.4049969520001,None,,,,,,,,,,,,,,,,,186,001,2024_Mar_13_1517,SpeechDraft1Carolyn_lessNoise_PlusLocalization,2021.2.3,60.00307839768574,
,,,,,,,,center,0.0,6,ch1Sound_localizationTask.wav,0.0,"(952, 878)","(-8,-202)",0,-338,,,,,,,,,6,4,46,3,,,,,,,,,,,,,,,,,,,,,,,,,,,,,,,,,,,,,,,,,,,,1206.1219731089996,None,1207.2217276840001,None,1208.154975978,None,1.4423280423280422,0.532767261999652,1208.154975978,None,,,,,,,,,,,,,,,,,186,001,2024_Mar_13_1517,SpeechDraft1Carolyn_lessNoise_PlusLocalization,2021.2.3,60.00307839768574,
,,,,,,,,nearLeft,-6.5,1,ch1Sound_localizationTask.wav,-6.5,"(857, 878)","(-103,-202)",-95,-338,,,,,,,,,6,5,47,2,,,,,,,,,,,,,,,,,,,,,,,,,,,,,,,,,,,,,,,,,,,,1208.6892267519997,None,1209.7885701249998,None,1210.721858807,None,1.4010582010582011,0.4988260980007908,1210.721858807,None,,,,,,,,,,,,,,,,,186,001,2024_Mar_13_1517,SpeechDraft1Carolyn_lessNoise_PlusLocalization,2021.2.3,60.00307839768574,
,,,,,,,,farRight,19.1,4,ch1Sound_localizationTask.wav,19.1,"(1237, 878)","(277,-202)",285,-338,,,,,,,,,6,6,48,6,,,,,,,,,,,,,,,,,,,,,,,,,,,,,,,,,,,,,,,,,,,,1211.2219778979997,None,1212.3217396720001,None,1213.2550661959995,None,1.7195767195767195,1.2490706689995932,1213.2550661959995,None,,,,,,,,,,,,,,,,,186,001,2024_Mar_13_1517,SpeechDraft1Carolyn_lessNoise_PlusLocalization,2021.2.3,60.00307839768574,
,,,,,,,,midLeft,-13.0,2,ch1Sound_localizationTask.wav,-13.0,"(762, 878)","(-198,-202)",-190,-338,,,,,,,,,7,0,49,1,,,,,,,,,,,,,,,,,,,,,,,,,,,,,,,,,,,,,,,,,,,,1214.5054158539997,None,1215.6050426659995,None,1216.5401425829996,None,1.33015873015873,1.12632588499946,1216.5401425829996,None,,,,,,,,,,,,,,,,,186,001,2024_Mar_13_1517,SpeechDraft1Carolyn_lessNoise_PlusLocalization,2021.2.3,60.00307839768574,
,,,,,,,,nearLeft,-6.5,1,ch1Sound_localizationTask.wav,-6.5,"(857, 878)","(-103,-202)",-95,-338,,,,,,,,,7,1,50,2,,,,,,,,,,,,,,,,,,,,,,,,,,,,,,,,,,,,,,,,,,,,1217.6731771280001,None,1218.7885160489996,None,1219.7068915620002,None,1.4132275132275132,0.8926381309993303,1219.7068915620002,None,,,,,,,,,,,,,,,,,186,001,2024_Mar_13_1517,SpeechDraft1Carolyn_lessNoise_PlusLocalization,2021.2.3,60.00307839768574,
,,,,,,,,nearLeft,-6.5,1,ch1Sound_localizationTask.wav,-6.5,"(857, 878)","(-103,-202)",-95,-338,,,,,,,,,7,2,51,2,,,,,,,,,,,,,,,,,,,,,,,,,,,,,,,,,,,,,,,,,,,,1220.60532168,None,1221.7052642190001,None,1222.638570561,None,1.3904761904761904,0.6660211340004025,1222.638570561,None,,,,,,,,,,,,,,,,,186,001,2024_Mar_13_1517,SpeechDraft1Carolyn_lessNoise_PlusLocalization,2021.2.3,60.00307839768574,
,,,,,,,,farLeft,-19.1,5,ch1Sound_localizationTask.wav,-19.1,"(667, 878)","(-293,-202)",-285,-338,,,,,,,,,7,3,52,0,,,,,,,,,,,,,,,,,,,,,,,,,,,,,,,,,,,,,,,,,,,,1223.3060484500002,None,1224.405168841,None,1225.3383741500002,None,1.3243386243386244,0.8176988279992656,1225.3383741500002,None,,,,,,,,,,,,,,,,,186,001,2024_Mar_13_1517,SpeechDraft1Carolyn_lessNoise_PlusLocalization,2021.2.3,60.00307839768574,
,,,,,,,,midRight,13.0,3,ch1Sound_localizationTask.wav,13.0,"(1142, 878)","(182, -202)",190,-338,,,,,,,,,7,4,53,5,,,,,,,,,,,,,,,,,,,,,,,,,,,,,,,,,,,,,,,,,,,,1226.1719959499997,None,1227.2717570969999,None,1228.205285682,None,1.6873015873015873,1.0990539379999973,1228.205285682,None,,,,,,,,,,,,,,,,,186,001,2024_Mar_13_1517,SpeechDraft1Carolyn_lessNoise_PlusLocalization,2021.2.3,60.00307839768574,
,,,,,,,,nearRight,6.5,0,ch1Sound_localizationTask.wav,6.5,"(1047, 878)","(87, -202)",95,-338,,,,,,,,,7,5,54,4,,,,,,,,,,,,,,,,,,,,,,,,,,,,,,,,,,,,,,,,,,,,1229.3053076429997,None,1230.4050812189998,None,1231.338395799,None,1.4936507936507937,0.8496422810003423,1231.338395799,None,,,,,,,,,,,,,,,,,186,001,2024_Mar_13_1517,SpeechDraft1Carolyn_lessNoise_PlusLocalization,2021.2.3,60.00307839768574,
,,,,,,,,center,0.0,6,ch1Sound_localizationTask.wav,0.0,"(952, 878)","(-8,-202)",0,-338,,,,,,,,,7,6,55,3,,,,,,,,,,,,,,,,,,,,,,,,,,,,,,,,,,,,,,,,,,,,1232.1892395779996,None,1233.2887459140002,None,1234.2218361199994,None,1.4873015873015873,0.698535713999263,1234.2218361199994,None,,,,,,,,,,,,,,,,,186,001,2024_Mar_13_1517,SpeechDraft1Carolyn_lessNoise_PlusLocalization,2021.2.3,60.00307839768574,
,,,,,,,,,,,,,,,,,,,,,,,,,,,,,,,,,,,,,,,,,,,,,,,,,,,,,,,,,,,,,,,,,,,,,,,,,,,,,,,,,,space,11.224583460999384,1235.0053726449996,None,,,,,,,,,,,,,186,001,2024_Mar_13_1517,SpeechDraft1Carolyn_lessNoise_PlusLocalization,2021.2.3,60.00307839768574,
,,,,,,,,midRight,13.0,3,ch1Sound_localizationTask.wav,13.0,"(1142, 878)","(182, -202)",190,-338,,,,,,,,,,,,,0,0,0,5,,,,,,,,,,,,,,,,,,,,,,,,,,,,,,,,,,,,,,,,1246.2718611969995,None,,,1249.288517217,None,1.6597883597883598,1.3221938140004568,1249.288517217,None,,,,,1235.0053726449996,None,1247.2720063199995,None,1247.455323751,1247.4720374489998,,,,,,,186,001,2024_Mar_13_1517,SpeechDraft1Carolyn_lessNoise_PlusLocalization,2021.2.3,60.00307839768574,
,,,,,,,,farRight,19.1,4,ch1Sound_localizationTask.wav,19.1,"(1237, 878)","(277,-202)",285,-338,,,,,,,,,,,,,0,1,1,6,,,,,,,,,,,,,,,,,,,,,,,,,,,,,,,,,,,,,,,,1250.6220809689994,None,,,1253.638545248,None,1.6899470899470899,1.0994583100000455,1253.638545248,None,,,,,,,1251.6220354609995,None,1251.8053612929998,1251.8220499089994,,,,,,,186,001,2024_Mar_13_1517,SpeechDraft1Carolyn_lessNoise_PlusLocalization,2021.2.3,60.00307839768574,
,,,,,,,,nearLeft,-6.5,1,ch1Sound_localizationTask.wav,-6.5,"(857, 878)","(-103,-202)",-95,-338,,,,,,,,,,,,,0,2,2,2,,,,,,,,,,,,,,,,,,,,,,,,,,,,,,,,,,,,,,,,1254.7387414509994,None,,,1257.75521055,None,1.452910052910053,0.6810782550001022,1257.75521055,None,,,,,,,1255.7387473059998,None,1255.922022187,1255.9387753189994,,,,,,,186,001,2024_Mar_13_1517,SpeechDraft1Carolyn_lessNoise_PlusLocalization,2021.2.3,60.00307839768574,
,,,,,,,,farLeft,-19.1,5,ch1Sound_localizationTask.wav,-19.1,"(667, 878)","(-293,-202)",-285,-338,,,,,,,,,,,,,0,3,3,0,,,,,,,,,,,,,,,,,,,,,,,,,,,,,,,,,,,,,,,,1258.4387236679995,None,,,1261.4552280299995,None,1.3492063492063493,0.7836514190003072,1261.4552280299995,None,,,,,,,1259.4388615460002,None,1259.622043491,1259.638707479,,,,,,,186,001,2024_Mar_13_1517,SpeechDraft1Carolyn_lessNoise_PlusLocalization,2021.2.3,60.00307839768574,
,,,,,,,,midLeft,-13.0,2,ch1Sound_localizationTask.wav,-13.0,"(762, 878)","(-198,-202)",-190,-338,,,,,,,,,,,,,0,4,4,1,,,,,,,,,,,,,,,,,,,,,,,,,,,,,,,,,,,,,,,,1262.2393631280002,None,,,1265.2552257359994,None,1.3735449735449734,0.934040178000032,1265.2552257359994,None,,,,,,,1263.2387806449997,None,1263.4221586719996,1263.4387530550002,,,,,,,186,001,2024_Mar_13_1517,SpeechDraft1Carolyn_lessNoise_PlusLocalization,2021.2.3,60.00307839768574,
,,,,,,,,center,0.0,6,ch1Sound_localizationTask.wav,0.0,"(952, 878)","(-8,-202)",0,-338,,,,,,,,,,,,,0,5,5,3,,,,,,,,,,,,,,,,,,,,,,,,,,,,,,,,,,,,,,,,1266.1901295050002,None,,,1269.2218335689995,None,1.48994708994709,1.6809024619997217,1269.2218335689995,None,,,,,,,1267.205378046,None,1267.3887451669998,1267.4053921099994,,,,,,,186,001,2024_Mar_13_1517,SpeechDraft1Carolyn_lessNoise_PlusLocalization,2021.2.3,60.00307839768574,
,,,,,,,,farLeft,-19.1,5,ch1Sound_localizationTask.wav,-19.1,"(667, 878)","(-293,-202)",-285,-338,,,,,,,,,,,,,0,6,6,0,,,,,,,,,,,,,,,,,,,,,,,,,,,,,,,,,,,,,,,,1270.9054773569997,None,,,1273.9218808739997,None,1.3322751322751323,0.9829091109995716,1273.9218808739997,None,,,,,,,1271.9054336479994,None,1272.088753469,1272.1054388989996,,,,,,,186,001,2024_Mar_13_1517,SpeechDraft1Carolyn_lessNoise_PlusLocalization,2021.2.3,60.00307839768574,
,,,,,,,,center,0.0,6,ch1Sound_localizationTask.wav,0.0,"(952, 878)","(-8,-202)",0,-338,,,,,,,,,,,,,1,0,7,3,,,,,,,,,,,,,,,,,,,,,,,,,,,,,,,,,,,,,,,,1274.9053948740002,None,,,1277.9219675969998,None,1.4878306878306877,1.0157283520002238,1277.9219675969998,None,,,,,,,1275.905551338,None,1276.0888439299997,1276.1054392509996,,,,,,,186,001,2024_Mar_13_1517,SpeechDraft1Carolyn_lessNoise_PlusLocalization,2021.2.3,60.00307839768574,
,,,,,,,,farLeft,-19.1,5,ch1Sound_localizationTask.wav,-19.1,"(667, 878)","(-293,-202)",-285,-338,,,,,,,,,,,,,1,1,8,0,,,,,,,,,,,,,,,,,,,,,,,,,,,,,,,,,,,,,,,,1278.9386544439994,None,,,1281.9554684129998,None,1.3402116402116402,0.8832952479997402,1281.9554684129998,None,,,,,,,1279.9387233649995,None,1280.1220528120002,1280.13871183,,,,,,,186,001,2024_Mar_13_1517,SpeechDraft1Carolyn_lessNoise_PlusLocalization,2021.2.3,60.00307839768574,
,,,,,,,,midLeft,-13.0,2,ch1Sound_localizationTask.wav,-13.0,"(762, 878)","(-198,-202)",-190,-338,,,,,,,,,,,,,1,2,9,1,,,,,,,,,,,,,,,,,,,,,,,,,,,,,,,,,,,,,,,,1282.8556701059997,None,,,1285.8719342059994,None,1.4142857142857141,0.36855184599971835,1285.8719342059994,None,,,,,,,1283.8554406439998,None,1284.0388286649995,1284.0556356819998,,,,,,,186,001,2024_Mar_13_1517,SpeechDraft1Carolyn_lessNoise_PlusLocalization,2021.2.3,60.00307839768574,
,,,,,,,,midLeft,-13.0,2,ch1Sound_localizationTask.wav,-13.0,"(762, 878)","(-198,-202)",-190,-338,,,,,,,,,,,,,1,3,10,1,,,,,,,,,,,,,,,,,,,,,,,,,,,,,,,,,,,,,,,,1286.2555416019995,None,,,1289.271861264,None,1.3322751322751323,2.3995009820000632,1289.271861264,None,,,,,,,1287.2554125030001,None,1287.4388390240001,1287.4556286569996,,,,,,,186,001,2024_Mar_13_1517,SpeechDraft1Carolyn_lessNoise_PlusLocalization,2021.2.3,60.00307839768574,
,,,,,,,,nearLeft,-6.5,1,ch1Sound_localizationTask.wav,-6.5,"(857, 878)","(-103,-202)",-95,-338,,,,,,,,,,,,,1,4,11,2,,,,,,,,,,,,,,,,,,,,,,,,,,,,,,,,,,,,,,,,1291.672070488,None,,,1294.6885843999999,None,1.4365079365079365,0.7655053640000915,1294.6885843999999,None,,,,,,,1292.6723452799997,None,1292.8554321149995,1292.8721301059995,,,,,,,186,001,2024_Mar_13_1517,SpeechDraft1Carolyn_lessNoise_PlusLocalization,2021.2.3,60.00307839768574,
,,,,,,,,center,0.0,6,ch1Sound_localizationTask.wav,0.0,"(952, 878)","(-8,-202)",0,-338,,,,,,,,,,,,,1,5,12,3,,,,,,,,,,,,,,,,,,,,,,,,,,,,,,,,,,,,,,,,1295.4553305580002,None,,,1298.4719904289996,None,1.4862433862433861,1.749661460000425,1298.4719904289996,None,,,,,,,1296.4555406219997,None,1296.6387989730001,1296.6554301300002,,,,,,,186,001,2024_Mar_13_1517,SpeechDraft1Carolyn_lessNoise_PlusLocalization,2021.2.3,60.00307839768574,
,,,,,,,,farRight,19.1,4,ch1Sound_localizationTask.wav,19.1,"(1237, 878)","(277,-202)",285,-338,,,,,,,,,,,,,1,6,13,6,,,,,,,,,,,,,,,,,,,,,,,,,,,,,,,,,,,,,,,,1300.2228403279996,None,,,1303.2384890269996,None,1.6714285714285715,0.8650819340000453,1303.2384890269996,None,,,,,,,1301.2221034039994,None,1301.4054425519998,1301.4220963119997,,,,,,,186,001,2024_Mar_13_1517,SpeechDraft1Carolyn_lessNoise_PlusLocalization,2021.2.3,60.00307839768574,
,,,,,,,,nearRight,6.5,0,ch1Sound_localizationTask.wav,6.5,"(1047, 878)","(87, -202)",95,-338,,,,,,,,,,,,,2,0,14,4,,,,,,,,,,,,,,,,,,,,,,,,,,,,,,,,,,,,,,,,1304.1054334559994,None,,,1307.1219513649994,None,1.555026455026455,0.8659894810007245,1307.1219513649994,None,,,,,,,1305.1054491659997,None,1305.2886654779995,1305.3054710059996,,,,,,,186,001,2024_Mar_13_1517,SpeechDraft1Carolyn_lessNoise_PlusLocalization,2021.2.3,60.00307839768574,
,,,,,,,,nearLeft,-6.5,1,ch1Sound_localizationTask.wav,-6.5,"(857, 878)","(-103,-202)",-95,-338,,,,,,,,,,,,,2,1,15,2,,,,,,,,,,,,,,,,,,,,,,,,,,,,,,,,,,,,,,,,1307.9888118789995,None,,,1311.005288368,None,1.4174603174603175,1.832325289000437,1311.005288368,None,,,,,,,1308.9887451929999,None,1309.1721132799994,1309.1889158429994,,,,,,,186,001,2024_Mar_13_1517,SpeechDraft1Carolyn_lessNoise_PlusLocalization,2021.2.3,60.00307839768574,
,,,,,,,,center,0.0,6,ch1Sound_localizationTask.wav,0.0,"(952, 878)","(-8,-202)",0,-338,,,,,,,,,,,,,2,2,16,3,,,,,,,,,,,,,,,,,,,,,,,,,,,,,,,,,,,,,,,,1312.8387630099996,None,,,1315.8552431649996,None,1.493121693121693,1.0824433509997107,1315.8552431649996,None,,,,,,,1313.8387519689995,None,1314.022130077,1314.0388775729998,,,,,,,186,001,2024_Mar_13_1517,SpeechDraft1Carolyn_lessNoise_PlusLocalization,2021.2.3,60.00307839768574,
,,,,,,,,midLeft,-13.0,2,ch1Sound_localizationTask.wav,-13.0,"(762, 878)","(-198,-202)",-190,-338,,,,,,,,,,,,,2,3,17,1,,,,,,,,,,,,,,,,,,,,,,,,,,,,,,,,,,,,,,,,1316.9388259159996,None,,,1319.955107013,None,1.402116402116402,1.0486213650001446,1319.955107013,None,,,,,,,1317.938818601,None,1318.122152164,1318.1388441929994,,,,,,,186,001,2024_Mar_13_1517,SpeechDraft1Carolyn_lessNoise_PlusLocalization,2021.2.3,60.00307839768574,
,,,,,,,,nearLeft,-6.5,1,ch1Sound_localizationTask.wav,-6.5,"(857, 878)","(-103,-202)",-95,-338,,,,,,,,,,,,,2,4,18,2,,,,,,,,,,,,,,,,,,,,,,,,,,,,,,,,,,,,,,,,1321.0054456819998,None,,,1324.0220804949995,None,1.4402116402116403,0.9999997719996827,1324.0220804949995,None,,,,,,,1322.0055172439997,None,1322.1888218859995,1322.2054389690002,,,,,,,186,001,2024_Mar_13_1517,SpeechDraft1Carolyn_lessNoise_PlusLocalization,2021.2.3,60.00307839768574,
,,,,,,,,nearRight,6.5,0,ch1Sound_localizationTask.wav,6.5,"(1047, 878)","(87, -202)",95,-338,,,,,,,,,,,,,2,5,19,4,,,,,,,,,,,,,,,,,,,,,,,,,,,,,,,,,,,,,,,,1325.0389320699996,None,,,1328.055348322,None,1.5534391534391534,0.7985624830007509,1328.055348322,None,,,,,,,1326.0388246009998,None,1326.2221835270002,1326.238870006,,,,,,,186,001,2024_Mar_13_1517,SpeechDraft1Carolyn_lessNoise_PlusLocalization,2021.2.3,60.00307839768574,
,,,,,,,,nearRight,6.5,0,ch1Sound_localizationTask.wav,6.5,"(1047, 878)","(87, -202)",95,-338,,,,,,,,,,,,,2,6,20,4,,,,,,,,,,,,,,,,,,,,,,,,,,,,,,,,,,,,,,,,1328.8554645449994,None,,,1331.8720464319995,None,1.5698412698412698,1.1481146249998346,1331.8720464319995,None,,,,,,,1329.8556663769996,None,1330.0387587650002,1330.055529788,,,,,,,186,001,2024_Mar_13_1517,SpeechDraft1Carolyn_lessNoise_PlusLocalization,2021.2.3,60.00307839768574,
,,,,,,,,farLeft,-19.1,5,ch1Sound_localizationTask.wav,-19.1,"(667, 878)","(-293,-202)",-285,-338,,,,,,,,,,,,,3,0,21,0,,,,,,,,,,,,,,,,,,,,,,,,,,,,,,,,,,,,,,,,1333.022161023,None,,,1336.0385343669996,None,1.335978835978836,0.7656729869995615,1336.0385343669996,None,,,,,,,1334.0222653539995,None,1334.2056119059998,1334.2221335679997,,,,,,,186,001,2024_Mar_13_1517,SpeechDraft1Carolyn_lessNoise_PlusLocalization,2021.2.3,60.00307839768574,
,,,,,,,,farRight,19.1,4,ch1Sound_localizationTask.wav,19.1,"(1237, 878)","(277,-202)",285,-338,,,,,,,,,,,,,3,1,22,6,,,,,,,,,,,,,,,,,,,,,,,,,,,,,,,,,,,,,,,,1336.8055162709998,None,,,1339.8219985019996,None,1.7105820105820106,1.115830308999648,1339.8219985019996,None,,,,,,,1337.8056524510002,None,1337.988916157,1338.0054694129994,,,,,,,186,001,2024_Mar_13_1517,SpeechDraft1Carolyn_lessNoise_PlusLocalization,2021.2.3,60.00307839768574,
,,,,,,,,midLeft,-13.0,2,ch1Sound_localizationTask.wav,-13.0,"(762, 878)","(-198,-202)",-190,-338,,,,,,,,,,,,,3,2,23,1,,,,,,,,,,,,,,,,,,,,,,,,,,,,,,,,,,,,,,,,1340.9388136729995,None,,,1343.955628021,None,1.375132275132275,1.0305389839995769,1343.955628021,None,,,,,,,1341.9388711749998,None,1342.1221498719997,1342.1388289380002,,,,,,,186,001,2024_Mar_13_1517,SpeechDraft1Carolyn_lessNoise_PlusLocalization,2021.2.3,60.00307839768574,
,,,,,,,,farRight,19.1,4,ch1Sound_localizationTask.wav,19.1,"(1237, 878)","(277,-202)",285,-338,,,,,,,,,,,,,3,3,24,6,,,,,,,,,,,,,,,,,,,,,,,,,,,,,,,,,,,,,,,,1344.9887939669998,None,,,1348.00535811,None,1.7084656084656085,1.166640656000709,1348.00535811,None,,,,,,,1345.9889303849995,None,1346.1721125819995,1346.1888344299996,,,,,,,186,001,2024_Mar_13_1517,SpeechDraft1Carolyn_lessNoise_PlusLocalization,2021.2.3,60.00307839768574,
,,,,,,,,midLeft,-13.0,2,ch1Sound_localizationTask.wav,-13.0,"(762, 878)","(-198,-202)",-190,-338,,,,,,,,,,,,,3,4,25,1,,,,,,,,,,,,,,,,,,,,,,,,,,,,,,,,,,,,,,,,1349.172934655,None,,,1352.188597339,None,1.3957671957671958,0.6980682560006244,1352.188597339,None,,,,,,,1350.1721093119995,None,1350.355529206,1350.3721720180001,,,,,,,186,001,2024_Mar_13_1517,SpeechDraft1Carolyn_lessNoise_PlusLocalization,2021.2.3,60.00307839768574,
,,,,,,,,farLeft,-19.1,5,ch1Sound_localizationTask.wav,-19.1,"(667, 878)","(-293,-202)",-285,-338,,,,,,,,,,,,,3,5,26,0,,,,,,,,,,,,,,,,,,,,,,,,,,,,,,,,,,,,,,,,1352.888859402,None,,,1355.905355041,None,1.3587301587301588,1.0325904720002654,1355.905355041,None,,,,,,,1353.8888717199998,None,1354.0723783980002,1354.0891051689996,,,,,,,186,001,2024_Mar_13_1517,SpeechDraft1Carolyn_lessNoise_PlusLocalization,2021.2.3,60.00307839768574,
,,,,,,,,center,0.0,6,ch1Sound_localizationTask.wav,0.0,"(952, 878)","(-8,-202)",0,-338,,,,,,,,,,,,,3,6,27,3,,,,,,,,,,,,,,,,,,,,,,,,,,,,,,,,,,,,,,,,1356.9388012459995,None,,,1359.9553727379998,None,1.494179894179894,0.733056669000689,1359.9553727379998,None,,,,,,,1357.9387882390001,None,1358.122206395,1358.138792715,,,,,,,186,001,2024_Mar_13_1517,SpeechDraft1Carolyn_lessNoise_PlusLocalization,2021.2.3,60.00307839768574,
,,,,,,,,midRight,13.0,3,ch1Sound_localizationTask.wav,13.0,"(1142, 878)","(182, -202)",190,-338,,,,,,,,,,,,,4,0,28,5,,,,,,,,,,,,,,,,,,,,,,,,,,,,,,,,,,,,,,,,1360.690062951,None,,,1363.7219931029995,None,1.5772486772486771,0.46504746500067995,1363.7219931029995,None,,,,,,,1361.7054689859997,None,1361.888860643,1361.9054954209996,,,,,,,186,001,2024_Mar_13_1517,SpeechDraft1Carolyn_lessNoise_PlusLocalization,2021.2.3,60.00307839768574,
,,,,,,,,midLeft,-13.0,2,ch1Sound_localizationTask.wav,-13.0,"(762, 878)","(-198,-202)",-190,-338,,,,,,,,,,,,,4,1,29,1,,,,,,,,,,,,,,,,,,,,,,,,,,,,,,,,,,,,,,,,1364.1902074319996,None,,,1367.2220046080001,None,1.3756613756613758,0.948440579999442,1367.2220046080001,None,,,,,,,1365.2055506999995,None,1365.3888178870002,1365.405527043,,,,,,,186,001,2024_Mar_13_1517,SpeechDraft1Carolyn_lessNoise_PlusLocalization,2021.2.3,60.00307839768574,
,,,,,,,,nearRight,6.5,0,ch1Sound_localizationTask.wav,6.5,"(1047, 878)","(87, -202)",95,-338,,,,,,,,,,,,,4,2,30,4,,,,,,,,,,,,,,,,,,,,,,,,,,,,,,,,,,,,,,,,1368.1722580249998,None,,,1371.1886999839999,None,1.5714285714285714,1.0509434149998924,1371.1886999839999,None,,,,,,,1369.1721913579995,None,1369.3554182469998,1369.3722755449999,,,,,,,186,001,2024_Mar_13_1517,SpeechDraft1Carolyn_lessNoise_PlusLocalization,2021.2.3,60.00307839768574,
,,,,,,,,farRight,19.1,4,ch1Sound_localizationTask.wav,19.1,"(1237, 878)","(277,-202)",285,-338,,,,,,,,,,,,,4,3,31,6,,,,,,,,,,,,,,,,,,,,,,,,,,,,,,,,,,,,,,,,1372.2402185049996,None,,,1375.2722008129995,None,1.6978835978835978,0.8656856060006248,1375.2722008129995,None,,,,,,,1373.255603214,None,1373.4389311759996,1373.4555463879997,,,,,,,186,001,2024_Mar_13_1517,SpeechDraft1Carolyn_lessNoise_PlusLocalization,2021.2.3,60.00307839768574,
,,,,,,,,midRight,13.0,3,ch1Sound_localizationTask.wav,13.0,"(1142, 878)","(182, -202)",190,-338,,,,,,,,,,,,,4,4,32,5,,,,,,,,,,,,,,,,,,,,,,,,,,,,,,,,,,,,,,,,1376.138834634,None,,,1379.1552999770001,None,1.5994708994708995,0.9657899039993936,1379.1552999770001,None,,,,,,,1377.1389326339995,None,1377.322191442,1377.3389056139995,,,,,,,186,001,2024_Mar_13_1517,SpeechDraft1Carolyn_lessNoise_PlusLocalization,2021.2.3,60.00307839768574,
,,,,,,,,nearLeft,-6.5,1,ch1Sound_localizationTask.wav,-6.5,"(857, 878)","(-103,-202)",-95,-338,,,,,,,,,,,,,4,5,33,2,,,,,,,,,,,,,,,,,,,,,,,,,,,,,,,,,,,,,,,,1380.1221459049993,None,,,1383.1387544029994,None,1.4306878306878308,2.548806038999828,1383.1387544029994,None,,,,,,,1381.1222072720002,None,1381.3055925449999,1381.322195742,,,,,,,186,001,2024_Mar_13_1517,SpeechDraft1Carolyn_lessNoise_PlusLocalization,2021.2.3,60.00307839768574,
,,,,,,,,center,0.0,6,ch1Sound_localizationTask.wav,0.0,"(952, 878)","(-8,-202)",0,-338,,,,,,,,,,,,,4,6,34,3,,,,,,,,,,,,,,,,,,,,,,,,,,,,,,,,,,,,,,,,1385.6888759039994,None,,,1388.705645088,None,1.5158730158730158,0.6479143860005934,1388.705645088,None,,,,,,,1386.6887841110001,None,1386.8724489669994,1386.889161264,,,,,,,186,001,2024_Mar_13_1517,SpeechDraft1Carolyn_lessNoise_PlusLocalization,2021.2.3,60.00307839768574,
,,,,,,,,center,0.0,6,ch1Sound_localizationTask.wav,0.0,"(952, 878)","(-8,-202)",0,-338,,,,,,,,,,,,,5,0,35,3,,,,,,,,,,,,,,,,,,,,,,,,,,,,,,,,,,,,,,,,1389.355531319,None,,,1392.3720708639994,None,1.4962962962962962,1.0997032730001592,1392.3720708639994,None,,,,,,,1390.35567843,None,1390.5388674649994,1390.555556632,,,,,,,186,001,2024_Mar_13_1517,SpeechDraft1Carolyn_lessNoise_PlusLocalization,2021.2.3,60.00307839768574,
,,,,,,,,farLeft,-19.1,5,ch1Sound_localizationTask.wav,-19.1,"(667, 878)","(-293,-202)",-285,-338,,,,,,,,,,,,,5,1,36,0,,,,,,,,,,,,,,,,,,,,,,,,,,,,,,,,,,,,,,,,1393.4723996909997,None,,,1396.4886718139996,None,1.3518518518518519,0.865418716000022,1396.4886718139996,None,,,,,,,1394.4722973449998,None,1394.655532543,1394.6723002199997,,,,,,,186,001,2024_Mar_13_1517,SpeechDraft1Carolyn_lessNoise_PlusLocalization,2021.2.3,60.00307839768574,
,,,,,,,,farLeft,-19.1,5,ch1Sound_localizationTask.wav,-19.1,"(667, 878)","(-293,-202)",-285,-338,,,,,,,,,,,,,5,2,37,0,,,,,,,,,,,,,,,,,,,,,,,,,,,,,,,,,,,,,,,,1397.3557119839998,None,,,1400.3721209549994,None,1.3523809523809525,0.7669480369995654,1400.3721209549994,None,,,,,,,1398.3555377129996,None,1398.538963649,1398.5555708229995,,,,,,,186,001,2024_Mar_13_1517,SpeechDraft1Carolyn_lessNoise_PlusLocalization,2021.2.3,60.00307839768574,
,,,,,,,,midRight,13.0,3,ch1Sound_localizationTask.wav,13.0,"(1142, 878)","(182, -202)",190,-338,,,,,,,,,,,,,5,3,38,5,,,,,,,,,,,,,,,,,,,,,,,,,,,,,,,,,,,,,,,,1401.138870365,None,,,1404.1554706769994,None,1.6253968253968254,1.2491160540002966,1404.1554706769994,None,,,,,,,1402.138899982,None,1402.322283859,1402.3389009880002,,,,,,,186,001,2024_Mar_13_1517,SpeechDraft1Carolyn_lessNoise_PlusLocalization,2021.2.3,60.00307839768574,
,,,,,,,,midRight,13.0,3,ch1Sound_localizationTask.wav,13.0,"(1142, 878)","(182, -202)",190,-338,,,,,,,,,,,,,5,4,39,5,,,,,,,,,,,,,,,,,,,,,,,,,,,,,,,,,,,,,,,,1405.4055864579996,None,,,1408.4220344059995,None,1.615873015873016,0.7995215359997019,1408.4220344059995,None,,,,,,,1406.405621592,None,1406.5892461929998,1406.605651977,,,,,,,186,001,2024_Mar_13_1517,SpeechDraft1Carolyn_lessNoise_PlusLocalization,2021.2.3,60.00307839768574,
,,,,,,,,center,0.0,6,ch1Sound_localizationTask.wav,0.0,"(952, 878)","(-8,-202)",0,-338,,,,,,,,,,,,,5,5,40,3,,,,,,,,,,,,,,,,,,,,,,,,,,,,,,,,,,,,,,,,1409.2222859899994,None,,,1412.23884233,None,1.4936507936507937,0.8628202339996278,1412.23884233,None,,,,,,,1410.2222843339996,None,1410.4056268089998,1410.422244884,,,,,,,186,001,2024_Mar_13_1517,SpeechDraft1Carolyn_lessNoise_PlusLocalization,2021.2.3,60.00307839768574,
,,,,,,,,midRight,13.0,3,ch1Sound_localizationTask.wav,13.0,"(1142, 878)","(182, -202)",190,-338,,,,,,,,,,,,,5,6,41,5,,,,,,,,,,,,,,,,,,,,,,,,,,,,,,,,,,,,,,,,1413.1056436199997,None,,,1416.122067931,None,1.6142857142857143,0.4166146839997964,1416.122067931,None,,,,,,,1414.1055622019994,None,1414.288928215,1414.3056316739994,,,,,,,186,001,2024_Mar_13_1517,SpeechDraft1Carolyn_lessNoise_PlusLocalization,2021.2.3,60.00307839768574,
,,,,,,,,midLeft,-13.0,2,ch1Sound_localizationTask.wav,-13.0,"(762, 878)","(-198,-202)",-190,-338,,,,,,,,,,,,,6,0,42,1,,,,,,,,,,,,,,,,,,,,,,,,,,,,,,,,,,,,,,,,1416.53986024,None,,,1419.555345023,None,1.3883597883597885,0.7155800040000031,1419.555345023,None,,,,,,,1417.538906457,None,1417.7223556809995,1417.7389142820002,,,,,,,186,001,2024_Mar_13_1517,SpeechDraft1Carolyn_lessNoise_PlusLocalization,2021.2.3,60.00307839768574,
,,,,,,,,farRight,19.1,4,ch1Sound_localizationTask.wav,19.1,"(1237, 878)","(277,-202)",285,-338,,,,,,,,,,,,,6,1,43,6,,,,,,,,,,,,,,,,,,,,,,,,,,,,,,,,,,,,,,,,1420.2723022669998,None,,,1423.2888419629999,None,1.6714285714285715,1.4814344240003265,1423.2888419629999,None,,,,,,,1421.2723433649999,None,1421.4557825519996,1421.472353311,,,,,,,186,001,2024_Mar_13_1517,SpeechDraft1Carolyn_lessNoise_PlusLocalization,2021.2.3,60.00307839768574,
,,,,,,,,farRight,19.1,4,ch1Sound_localizationTask.wav,19.1,"(1237, 878)","(277,-202)",285,-338,,,,,,,,,,,,,6,2,44,6,,,,,,,,,,,,,,,,,,,,,,,,,,,,,,,,,,,,,,,,1424.772443367,None,,,1427.788706708,None,1.6465608465608466,17.68201550000049,1427.788706708,None,,,,,,,1425.7723374480001,None,1425.955618813,1425.972270272,,,,,,,186,001,2024_Mar_13_1517,SpeechDraft1Carolyn_lessNoise_PlusLocalization,2021.2.3,60.00307839768574,
,,,,,,,,nearRight,6.5,0,ch1Sound_localizationTask.wav,6.5,"(1047, 878)","(87, -202)",95,-338,,,,,,,,,,,,,6,3,45,4,,,,,,,,,,,,,,,,,,,,,,,,,,,,,,,,,,,,,,,,1445.4722833349997,None,,,1448.488737537,None,1.6513227513227513,2.1326088389996585,1448.488737537,None,,,,,,,1446.4725739119995,None,1446.6556001829995,1446.672309435,,,,,,,186,001,2024_Mar_13_1517,SpeechDraft1Carolyn_lessNoise_PlusLocalization,2021.2.3,60.00307839768574,
,,,,,,,,farRight,19.1,4,ch1Sound_localizationTask.wav,19.1,"(1237, 878)","(277,-202)",285,-338,,,,,,,,,,,,,6,4,46,6,,,,,,,,,,,,,,,,,,,,,,,,,,,,,,,,,,,,,,,,1450.6223728119994,None,,,1453.638981139,None,1.6941798941798942,1.2334221510000134,1453.638981139,None,,,,,,,1451.622318056,None,1451.8056205949997,1451.8224321529997,,,,,,,186,001,2024_Mar_13_1517,SpeechDraft1Carolyn_lessNoise_PlusLocalization,2021.2.3,60.00307839768574,
,,,,,,,,midRight,13.0,3,ch1Sound_localizationTask.wav,13.0,"(1142, 878)","(182, -202)",190,-338,,,,,,,,,,,,,6,5,47,5,,,,,,,,,,,,,,,,,,,,,,,,,,,,,,,,,,,,,,,,1454.8723320949994,None,,,1457.8888108949996,None,1.6148148148148147,0.7488920469995719,1457.8888108949996,None,,,,,,,1455.8723469979996,None,1456.055675058,1456.0723322180002,,,,,,,186,001,2024_Mar_13_1517,SpeechDraft1Carolyn_lessNoise_PlusLocalization,2021.2.3,60.00307839768574,
,,,,,,,,midRight,13.0,3,ch1Sound_localizationTask.wav,13.0,"(1142, 878)","(182, -202)",190,-338,,,,,,,,,,,,,6,6,48,5,,,,,,,,,,,,,,,,,,,,,,,,,,,,,,,,,,,,,,,,1458.6390300089997,None,,,1461.6554810399994,None,1.6052910052910052,0.7996798949998265,1461.6554810399994,None,,,,,,,1459.6389764159994,None,1459.8223375259995,1459.8389689280002,,,,,,,186,001,2024_Mar_13_1517,SpeechDraft1Carolyn_lessNoise_PlusLocalization,2021.2.3,60.00307839768574,
,,,,,,,,nearLeft,-6.5,1,ch1Sound_localizationTask.wav,-6.5,"(857, 878)","(-103,-202)",-95,-338,,,,,,,,,,,,,7,0,49,2,,,,,,,,,,,,,,,,,,,,,,,,,,,,,,,,,,,,,,,,1462.4556642199996,None,,,1465.4721583749997,None,1.4486772486772486,1.0159997880000446,1465.4721583749997,None,,,,,,,1463.4557423389997,None,1463.6392263010002,1463.6556239259999,,,,,,,186,001,2024_Mar_13_1517,SpeechDraft1Carolyn_lessNoise_PlusLocalization,2021.2.3,60.00307839768574,
,,,,,,,,farLeft,-19.1,5,ch1Sound_localizationTask.wav,-19.1,"(667, 878)","(-293,-202)",-285,-338,,,,,,,,,,,,,7,1,50,0,,,,,,,,,,,,,,,,,,,,,,,,,,,,,,,,,,,,,,,,1466.4891750999996,None,,,1469.5057173690002,None,1.3402116402116402,0.9821481970002424,1469.5057173690002,None,,,,,,,1467.4889669140002,None,1467.6725147859997,1467.6889263439998,,,,,,,186,001,2024_Mar_13_1517,SpeechDraft1Carolyn_lessNoise_PlusLocalization,2021.2.3,60.00307839768574,
,,,,,,,,nearRight,6.5,0,ch1Sound_localizationTask.wav,6.5,"(1047, 878)","(87, -202)",95,-338,,,,,,,,,,,,,7,2,51,4,,,,,,,,,,,,,,,,,,,,,,,,,,,,,,,,,,,,,,,,1470.4891195279997,None,,,1473.5055277269994,None,1.5804232804232803,0.832342795999466,1473.5055277269994,None,,,,,,,1471.4889955939998,None,1471.6723196900002,1471.688986186,,,,,,,186,001,2024_Mar_13_1517,SpeechDraft1Carolyn_lessNoise_PlusLocalization,2021.2.3,60.00307839768574,
,,,,,,,,nearLeft,-6.5,1,ch1Sound_localizationTask.wav,-6.5,"(857, 878)","(-103,-202)",-95,-338,,,,,,,,,,,,,7,3,52,2,,,,,,,,,,,,,,,,,,,,,,,,,,,,,,,,,,,,,,,,1474.3402043679998,None,,,1477.3722461059997,None,1.4428571428571428,0.732326913000179,1477.3722461059997,None,,,,,,,1475.3555994070002,None,1475.5390193949997,1475.555613306,,,,,,,186,001,2024_Mar_13_1517,SpeechDraft1Carolyn_lessNoise_PlusLocalization,2021.2.3,60.00307839768574,
,,,,,,,,nearRight,6.5,0,ch1Sound_localizationTask.wav,6.5,"(1047, 878)","(87, -202)",95,-338,,,,,,,,,,,,,7,4,53,4,,,,,,,,,,,,,,,,,,,,,,,,,,,,,,,,,,,,,,,,1478.105578752,None,,,1481.1221604430002,None,1.566137566137566,1.0662193210000623,1481.1221604430002,None,,,,,,,1479.1056525839995,None,1479.2890263089994,1479.305668512,,,,,,,186,001,2024_Mar_13_1517,SpeechDraft1Carolyn_lessNoise_PlusLocalization,2021.2.3,60.00307839768574,
,,,,,,,,nearRight,6.5,0,ch1Sound_localizationTask.wav,6.5,"(1047, 878)","(87, -202)",95,-338,,,,,,,,,,,,,7,5,54,4,,,,,,,,,,,,,,,,,,,,,,,,,,,,,,,,,,,,,,,,1482.1901755749996,None,,,1485.2221533209995,None,1.547089947089947,0.748354092000227,1485.2221533209995,None,,,,,,,1483.2056486499996,None,1483.3890223299995,1483.4058441649995,,,,,,,186,001,2024_Mar_13_1517,SpeechDraft1Carolyn_lessNoise_PlusLocalization,2021.2.3,60.00307839768574,
,,,,,,,,nearLeft,-6.5,1,ch1Sound_localizationTask.wav,-6.5,"(857, 878)","(-103,-202)",-95,-338,,,,,,,,,,,,,7,6,55,2,,,,,,,,,,,,,,,,,,,,,,,,,,,,,,,,,,,,,,,,1485.9725173319994,None,,,1488.98889358,None,1.4513227513227513,1.2827551199998197,1488.98889358,None,,,,,,,1486.9723043539998,None,1487.155698476,1487.1722801659998,,,,,,,186,001,2024_Mar_13_1517,SpeechDraft1Carolyn_lessNoise_PlusLocalization,2021.2.3,60.00307839768574,
,,,,,,,,,,,,,,,,,,,,,,,,,,,,,,,,,,,,,,,,,,,,,,,,,,,,,,,,,,,,,,,,,,,,,,,,,,,,,,,,,,,,,,,,,,,,1490.2723287950002,None,c,759.8143433649993,1491.2557208689996,None,186,001,2024_Mar_13_1517,SpeechDraft1Carolyn_lessNoise_PlusLocalization,2021.2.3,60.00307839768574,
