{"meta_data":{"additional_headers":{},"game_name":"Recollect","version":"2.53.01","user_name":"186","organization":"braingamecenter","study":"mpl2_2022_11","session_number":0,"device_id":"74342D95-EE82-45E3-8ADF-48FB3203C5DD"},"data":[{"trial":0,"action":1,"button_pressed":10,"time_out":false,"dwell_time":63.964111328125,"response_time":1710364505775.85},{"trial":0,"action":1,"button_pressed":7,"time_out":false,"dwell_time":80.4189453125,"response_time":1710364506009.02},{"trial":0,"action":9,"button_pressed":-1,"time_out":false,"dwell_time":73.57080078125,"response_time":1710364507152.41},{"trial":1,"action":1,"button_pressed":1,"time_out":false,"dwell_time":164.754150390625,"response_time":1710364516673.02},{"trial":1,"action":1,"button_pressed":6,"time_out":false,"dwell_time":114.419921875,"response_time":1710364517056.05},{"trial":1,"action":1,"button_pressed":8,"time_out":false,"dwell_time":80.23291015625,"response_time":1710364517422.5},{"trial":1,"action":9,"button_pressed":-1,"time_out":false,"dwell_time":81.177001953125,"response_time":1710364519154.98},{"trial":2,"action":1,"button_pressed":10,"time_out":false,"dwell_time":130.484130859375,"response_time":1710364531000.77},{"trial":2,"action":1,"button_pressed":0,"time_out":false,"dwell_time":96.234130859375,"response_time":1710364531350.44},{"trial":2,"action":1,"button_pressed":2,"time_out":false,"dwell_time":97.806884765625,"response_time":1710364531800.92},{"trial":2,"action":1,"button_pressed":6,"time_out":false,"dwell_time":113.906005859375,"response_time":1710364532300.61},{"trial":2,"action":9,"button_pressed":-1,"time_out":false,"dwell_time":47.39501953125,"response_time":1710364532850.79},{"trial":3,"action":1,"button_pressed":6,"time_out":false,"dwell_time":113.2451171875,"response_time":1710364544779.6},{"trial":3,"action":1,"button_pressed":8,"time_out":false,"dwell_time":97.052001953125,"response_time":1710364546812.68},{"trial":3,"action":1,"button_pressed":11,"time_out":false,"dwell_time":64.23095703125,"response_time":1710364547229.1},{"trial":3,"action":1,"button_pressed":7,"time_out":false,"dwell_time":46.69091796875,"response_time":1710364547612.12},{"trial":3,"action":9,"button_pressed":-1,"time_out":false,"dwell_time":16.375,"response_time":1710364548295.06},{"trial":4,"action":1,"button_pressed":4,"time_out":false,"dwell_time":114.31591796875,"response_time":1710364563190.78},{"trial":4,"action":1,"button_pressed":7,"time_out":false,"dwell_time":112.800048828125,"response_time":1710364563539.73},{"trial":4,"action":1,"button_pressed":10,"time_out":false,"dwell_time":79.634033203125,"response_time":1710364563922.99},{"trial":4,"action":1,"button_pressed":9,"time_out":false,"dwell_time":80.308837890625,"response_time":1710364564556.74},{"trial":4,"action":1,"button_pressed":1,"time_out":false,"dwell_time":79.8759765625,"response_time":1710364565239.29},{"trial":4,"action":1,"button_pressed":1,"time_out":false,"dwell_time":114.52685546875,"response_time":1710364566306.21},{"trial":4,"action":1,"button_pressed":1,"time_out":false,"dwell_time":80.52001953125,"response_time":1710364567222.65},{"trial":4,"action":1,"button_pressed":1,"time_out":false,"dwell_time":80.529052734375,"response_time":1710364567871.58},{"trial":4,"action":0,"button_pressed":-1,"time_out":false,"dwell_time":96.97607421875,"response_time":1710364569870.86},{"trial":4,"action":1,"button_pressed":4,"time_out":false,"dwell_time":97.8349609375,"response_time":1710364570971.42},{"trial":4,"action":1,"button_pressed":9,"time_out":false,"dwell_time":46.69189453125,"response_time":1710364572120.57},{"trial":4,"action":1,"button_pressed":10,"time_out":false,"dwell_time":97.740966796875,"response_time":1710364572587.39},{"trial":4,"action":1,"button_pressed":7,"time_out":false,"dwell_time":113.739013671875,"response_time":1710364573470.55},{"trial":4,"action":1,"button_pressed":1,"time_out":false,"dwell_time":63.345947265625,"response_time":1710364573953.47},{"trial":4,"action":9,"button_pressed":-1,"time_out":false,"dwell_time":47.51806640625,"response_time":1710364574370.39},{"trial":5,"action":1,"button_pressed":6,"time_out":false,"dwell_time":96.553955078125,"response_time":1710364591630.64},{"trial":5,"action":1,"button_pressed":3,"time_out":false,"dwell_time":131.076904296875,"response_time":1710364592147.69},{"trial":5,"action":1,"button_pressed":8,"time_out":false,"dwell_time":113.6640625,"response_time":1710364592646.73},{"trial":5,"action":1,"button_pressed":11,"time_out":false,"dwell_time":113.843994140625,"response_time":1710364593130.71},{"trial":5,"action":1,"button_pressed":0,"time_out":false,"dwell_time":47.60693359375,"response_time":1710364594563.11},{"trial":5,"action":9,"button_pressed":-1,"time_out":false,"dwell_time":80.444091796875,"response_time":1710364600578},{"trial":6,"action":1,"button_pressed":2,"time_out":false,"dwell_time":80.5419921875,"response_time":1710364618905.58},{"trial":6,"action":1,"button_pressed":9,"time_out":false,"dwell_time":81.168212890625,"response_time":1710364619538.57},{"trial":6,"action":1,"button_pressed":7,"time_out":false,"dwell_time":47.47802734375,"response_time":1710364620055.4},{"trial":6,"action":1,"button_pressed":10,"time_out":false,"dwell_time":62.719970703125,"response_time":1710364620620.69},{"trial":6,"action":1,"button_pressed":3,"time_out":false,"dwell_time":81.259033203125,"response_time":1710364621154.65},{"trial":6,"action":9,"button_pressed":-1,"time_out":false,"dwell_time":82.072998046875,"response_time":1710364621838.35},{"trial":7,"action":1,"button_pressed":3,"time_out":false,"dwell_time":130.08203125,"response_time":1710364638864.99},{"trial":7,"action":1,"button_pressed":7,"time_out":false,"dwell_time":129.7841796875,"response_time":1710364639231.36},{"trial":7,"action":1,"button_pressed":8,"time_out":false,"dwell_time":97.72607421875,"response_time":1710364639498.54},{"trial":7,"action":1,"button_pressed":0,"time_out":false,"dwell_time":63.137939453125,"response_time":1710364639964.25},{"trial":7,"action":1,"button_pressed":4,"time_out":false,"dwell_time":81.166015625,"response_time":1710364640398.16},{"trial":7,"action":1,"button_pressed":1,"time_out":false,"dwell_time":80.9599609375,"response_time":1710364640864.59},{"trial":7,"action":9,"button_pressed":-1,"time_out":true,"dwell_time":10092.7280273438,"response_time":1710364650876.36},{"trial":8,"action":1,"button_pressed":2,"time_out":false,"dwell_time":97.261962890625,"response_time":1710364670804.34},{"trial":8,"action":1,"button_pressed":4,"time_out":false,"dwell_time":114.433837890625,"response_time":1710364671321.32},{"trial":8,"action":1,"button_pressed":10,"time_out":false,"dwell_time":80.160888671875,"response_time":1710364673254.02},{"trial":8,"action":1,"button_pressed":8,"time_out":false,"dwell_time":97.0068359375,"response_time":1710364676402.32},{"trial":8,"action":9,"button_pressed":-1,"time_out":false,"dwell_time":80.137939453125,"response_time":1710364677985.37},{"trial":9,"action":1,"button_pressed":1,"time_out":false,"dwell_time":114.14599609375,"response_time":1710364692114.7},{"trial":9,"action":1,"button_pressed":4,"time_out":false,"dwell_time":63.05908203125,"response_time":1710364694312.98},{"trial":9,"action":1,"button_pressed":10,"time_out":false,"dwell_time":64.390869140625,"response_time":1710364695980},{"trial":9,"action":1,"button_pressed":5,"time_out":false,"dwell_time":81.503173828125,"response_time":1710364698662.36},{"trial":9,"action":9,"button_pressed":-1,"time_out":false,"dwell_time":115.0849609375,"response_time":1710364701928.19}]}