{"meta_data":{"additional_headers":{},"game_name":"Recollect","version":"2.53.01","user_name":"186","organization":"braingamecenter","study":"mpl2_2022_11","session_number":0,"device_id":"74342D95-EE82-45E3-8ADF-48FB3203C5DD"},"data":[{"stage":"Practice","trial":0,"sequence":"6F","letter_input":"F","number_input":"6","is_correct":true,"presentation_start_time":1710364723734.9,"presentation_end_time":1710364726738.14,"response_time":1710364731767.25},{"stage":"Practice","trial":1,"sequence":"G4","letter_input":"G","number_input":"4","is_correct":true,"presentation_start_time":1710364733298.37,"presentation_end_time":1710364736301.55,"response_time":1710364741662.25},{"stage":"Practice","trial":2,"sequence":"3W5","letter_input":"W","number_input":"35","is_correct":true,"presentation_start_time":1710364743195.08,"presentation_end_time":1710364747697.62,"response_time":1710364754341.44},{"stage":"Practice","trial":3,"sequence":"T7L","letter_input":"TL","number_input":"7","is_correct":false,"presentation_start_time":1710364755874.14,"presentation_end_time":1710364760376.88,"response_time":1710364765221.21},{"stage":"Practice","trial":4,"sequence":"9J1","letter_input":"J","number_input":"19","is_correct":true,"presentation_start_time":1710364768253.36,"presentation_end_time":1710364772755.9,"response_time":1710364776717.39},{"stage":"Calibration","trial":0,"sequence":"1E","letter_input":"E","number_input":"1","is_correct":true,"presentation_start_time":1710364800242.69,"presentation_end_time":1710364803245.92,"response_time":1710364807590.38},{"stage":"Calibration","trial":1,"sequence":"C5","letter_input":"C","number_input":"5","is_correct":true,"presentation_start_time":1710364809122.98,"presentation_end_time":1710364812126.22,"response_time":1710364816154.19},{"stage":"Calibration","trial":2,"sequence":"8A2","letter_input":"A","number_input":"28","is_correct":true,"presentation_start_time":1710364817686.85,"presentation_end_time":1710364822189.41,"response_time":1710364826184.13},{"stage":"Calibration","trial":3,"sequence":"L9G","letter_input":"LG","number_input":"9","is_correct":false,"presentation_start_time":1710364827716.81,"presentation_end_time":1710364832219.41,"response_time":1710364838813.24},{"stage":"Calibration","trial":4,"sequence":"8S3C","letter_input":"CS","number_input":"38","is_correct":true,"presentation_start_time":1710364840346.04,"presentation_end_time":1710364846348.16,"response_time":1710364851009.25},{"stage":"Calibration","trial":5,"sequence":"Z9E4","letter_input":"AZ","number_input":"49","is_correct":false,"presentation_start_time":1710364852541.95,"presentation_end_time":1710364858544.05,"response_time":1710364874251.45},{"stage":"Calibration","trial":6,"sequence":"7Q3A1","letter_input":"Q","number_input":"137","is_correct":false,"presentation_start_time":1710364875784.15,"presentation_end_time":1710364883285.83,"response_time":1710364898260.06},{"stage":"Calibration","trial":7,"sequence":"K9F5W","letter_input":"KFW","number_input":"59","is_correct":false,"presentation_start_time":1710364899792.83,"presentation_end_time":1710364907294.43,"response_time":1710364919802.88}]}