{"meta_data":{"additional_headers":{},"game_name":"Recollect","version":"2.53.01","user_name":"187","organization":"braingamecenter","study":"mpl2_2022_11","session_number":0,"device_id":"74342D95-EE82-45E3-8ADF-48FB3203C5DD"},"data":[{"stage":"Practice","trial":0,"sequence":"6F","letter_input":"F","number_input":"6","is_correct":true,"presentation_start_time":1713210460873.61,"presentation_end_time":1713210463876.76,"response_time":1713210470373.23},{"stage":"Practice","trial":1,"sequence":"G4","letter_input":"G","number_input":"4","is_correct":true,"presentation_start_time":1713210471903.31,"presentation_end_time":1713210474906.53,"response_time":1713210479234.35},{"stage":"Practice","trial":2,"sequence":"3W5","letter_input":"W","number_input":"35","is_correct":true,"presentation_start_time":1713210480767.16,"presentation_end_time":1713210485269.71,"response_time":1713210490297.36},{"stage":"Practice","trial":3,"sequence":"T7L","letter_input":"LT","number_input":"7","is_correct":true,"presentation_start_time":1713210491830.11,"presentation_end_time":1713210496332.79,"response_time":1713210501476.95},{"stage":"Practice","trial":4,"sequence":"9J1","letter_input":"J","number_input":"19","is_correct":true,"presentation_start_time":1713210503009.71,"presentation_end_time":1713210507512.32,"response_time":1713210511590.32},{"stage":"Calibration","trial":0,"sequence":"8H","letter_input":"H","number_input":"8","is_correct":true,"presentation_start_time":1713210517638.22,"presentation_end_time":1713210520641.43,"response_time":1713210524019.56},{"stage":"Calibration","trial":1,"sequence":"C3","letter_input":"C","number_input":"3","is_correct":true,"presentation_start_time":1713210525552.35,"presentation_end_time":1713210528555.57,"response_time":1713210533933.02},{"stage":"Calibration","trial":2,"sequence":"7A2","letter_input":"A","number_input":"27","is_correct":true,"presentation_start_time":1713210535465.85,"presentation_end_time":1713210539968.41,"response_time":1713210543729.72},{"stage":"Calibration","trial":3,"sequence":"W6T","letter_input":"TW","number_input":"6","is_correct":true,"presentation_start_time":1713210545262.46,"presentation_end_time":1713210549765.29,"response_time":1713210562573.66},{"stage":"Calibration","trial":4,"sequence":"4D1A","letter_input":"AD","number_input":"14","is_correct":true,"presentation_start_time":1713210564106.26,"presentation_end_time":1713210570105.58,"response_time":1713210574286.45},{"stage":"Calibration","trial":5,"sequence":"V9H6","letter_input":"HV","number_input":"69","is_correct":true,"presentation_start_time":1713210575819.14,"presentation_end_time":1713210581821.36,"response_time":1713210586165.83},{"stage":"Calibration","trial":6,"sequence":"2Y8N4","letter_input":"NY","number_input":"248","is_correct":true,"presentation_start_time":1713210587698.59,"presentation_end_time":1713210595197.46,"response_time":1713210601194.2},{"stage":"Calibration","trial":7,"sequence":"F9C7L","letter_input":"CFL","number_input":"79","is_correct":true,"presentation_start_time":1713210602726.86,"presentation_end_time":1713210610226.37,"response_time":1713210620004.65},{"stage":"Calibration","trial":8,"sequence":"1T8J4V","letter_input":"JTV","number_input":"148","is_correct":true,"presentation_start_time":1713210621537.33,"presentation_end_time":1713210630538.39,"response_time":1713210645412.93},{"stage":"Calibration","trial":9,"sequence":"P7H5Z3","letter_input":"HPZ","number_input":"357","is_correct":true,"presentation_start_time":1713210646945.68,"presentation_end_time":1713210655944.09,"response_time":1713210665223.08},{"stage":"Calibration","trial":10,"sequence":"9K4F1Q6","letter_input":"FKQ","number_input":"1469","is_correct":true,"presentation_start_time":1713210666755.74,"presentation_end_time":1713210677256.47,"response_time":1713210706875.91},{"stage":"Calibration","trial":11,"sequence":"T3P7V5N","letter_input":"NPTV","number_input":"357","is_correct":true,"presentation_start_time":1713210708408.67,"presentation_end_time":1713210718906.6,"response_time":1713210734950.05},{"stage":"Calibration","trial":12,"sequence":"6H4D2Q9L","letter_input":"DHLQ","number_input":"2469","is_correct":true,"presentation_start_time":1713210736482.79,"presentation_end_time":1713210748482.91,"response_time":1713210760641.62},{"stage":"Calibration","trial":13,"sequence":"Z1G5B3W8","letter_input":"BGWZ","number_input":"1358","is_correct":true,"presentation_start_time":1713210762174.32,"presentation_end_time":1713210774174.56,"response_time":1713210784650.41},{"stage":"Calibration","trial":14,"sequence":"4K2F6V1D9","letter_input":"DFKV","number_input":"12469","is_correct":true,"presentation_start_time":1713210786183.03,"presentation_end_time":1713210799682.81,"response_time":1713210827269.62},{"stage":"Calibration","trial":15,"sequence":"G7Y5L4W3S","letter_input":"GLSWY","number_input":"5743","is_correct":false,"presentation_start_time":1713210828802.35,"presentation_end_time":1713210842302.08,"response_time":1713210870705.39},{"stage":"Calibration","trial":16,"sequence":"8C2P6E3Z1A","letter_input":"ACEZ","number_input":"12368","is_correct":false,"presentation_start_time":1713210872237.98,"presentation_end_time":1713210887237.32,"response_time":1713210904310.97},{"stage":"Calibration","trial":17,"sequence":"V9K5Y7T6M4","letter_input":"KMTVY","number_input":"45679","is_correct":true,"presentation_start_time":1713210905843.63,"presentation_end_time":1713210920842.77,"response_time":1713210946463.65},{"stage":"Calibration","trial":18,"sequence":"2W8H5Q1J7S3","letter_input":"HJQSW","number_input":"12358","is_correct":false,"presentation_start_time":1713210947996.38,"presentation_end_time":1713210964495.15,"response_time":1713211001178.91},{"stage":"Calibration","trial":19,"sequence":"M4T9G6E1A8R","letter_input":"AGMRS","number_input":"14689","is_correct":false,"presentation_start_time":1713211002711.65,"presentation_end_time":1713211019210.46,"response_time":1713211052262.08}]}