{"meta_data":{"additional_headers":{},"game_name":"Recollect","version":"2.53.01","user_name":"187","organization":"braingamecenter","study":"mpl2_2022_11","session_number":0,"device_id":"74342D95-EE82-45E3-8ADF-48FB3203C5DD"},"data":[{"trial":0,"action":1,"button_pressed":5,"time_out":false,"dwell_time":81.7109375,"response_time":1713210133334.23},{"trial":0,"action":1,"button_pressed":3,"time_out":false,"dwell_time":30.1279296875,"response_time":1713210133899.94},{"trial":0,"action":9,"button_pressed":-1,"time_out":false,"dwell_time":74.9169921875,"response_time":1713210134544.42},{"trial":1,"action":1,"button_pressed":6,"time_out":false,"dwell_time":63.912109375,"response_time":1713210143913.1},{"trial":1,"action":1,"button_pressed":5,"time_out":false,"dwell_time":80.333984375,"response_time":1713210144346.82},{"trial":1,"action":1,"button_pressed":4,"time_out":false,"dwell_time":81.0888671875,"response_time":1713210144746.67},{"trial":1,"action":9,"button_pressed":-1,"time_out":false,"dwell_time":16.27392578125,"response_time":1713210145395.89},{"trial":2,"action":1,"button_pressed":9,"time_out":false,"dwell_time":47.579833984375,"response_time":1713210157193.23},{"trial":2,"action":1,"button_pressed":11,"time_out":false,"dwell_time":49.138916015625,"response_time":1713210157542.95},{"trial":2,"action":1,"button_pressed":8,"time_out":false,"dwell_time":29.975830078125,"response_time":1713210157942.09},{"trial":2,"action":1,"button_pressed":0,"time_out":false,"dwell_time":29.969970703125,"response_time":1713210158408.65},{"trial":2,"action":0,"button_pressed":-1,"time_out":false,"dwell_time":80.761962890625,"response_time":1713210161374},{"trial":2,"action":1,"button_pressed":11,"time_out":false,"dwell_time":46.600830078125,"response_time":1713210161907.41},{"trial":2,"action":1,"button_pressed":8,"time_out":false,"dwell_time":47.419189453125,"response_time":1713210162357.2},{"trial":2,"action":1,"button_pressed":9,"time_out":false,"dwell_time":47.472900390625,"response_time":1713210162807.96},{"trial":2,"action":0,"button_pressed":-1,"time_out":false,"dwell_time":65.44189453125,"response_time":1713210165521.16},{"trial":2,"action":1,"button_pressed":11,"time_out":false,"dwell_time":62.5009765625,"response_time":1713210169170.4},{"trial":2,"action":1,"button_pressed":8,"time_out":false,"dwell_time":47.235107421875,"response_time":1713210169571.53},{"trial":2,"action":1,"button_pressed":9,"time_out":false,"dwell_time":46.410888671875,"response_time":1713210169954.63},{"trial":2,"action":1,"button_pressed":0,"time_out":false,"dwell_time":64.47509765625,"response_time":1713210170321.51},{"trial":2,"action":0,"button_pressed":-1,"time_out":false,"dwell_time":64.994140625,"response_time":1713210172387.75},{"trial":2,"action":1,"button_pressed":11,"time_out":false,"dwell_time":47.697021484375,"response_time":1713210173020.63},{"trial":2,"action":1,"button_pressed":9,"time_out":false,"dwell_time":46.732177734375,"response_time":1713210173387.05},{"trial":2,"action":0,"button_pressed":-1,"time_out":false,"dwell_time":48.087890625,"response_time":1713210174370.65},{"trial":2,"action":1,"button_pressed":9,"time_out":false,"dwell_time":64.2919921875,"response_time":1713210174936.71},{"trial":2,"action":1,"button_pressed":11,"time_out":false,"dwell_time":48.327880859375,"response_time":1713210175270.52},{"trial":2,"action":1,"button_pressed":8,"time_out":false,"dwell_time":46.738037109375,"response_time":1713210175668.9},{"trial":2,"action":1,"button_pressed":0,"time_out":false,"dwell_time":48.2490234375,"response_time":1713210176020.17},{"trial":2,"action":9,"button_pressed":-1,"time_out":false,"dwell_time":64.72900390625,"response_time":1713210176669.81},{"trial":3,"action":1,"button_pressed":10,"time_out":false,"dwell_time":80.459228515625,"response_time":1713210191614.11},{"trial":3,"action":0,"button_pressed":-1,"time_out":false,"dwell_time":64.090087890625,"response_time":1713210192680.36},{"trial":3,"action":1,"button_pressed":1,"time_out":false,"dwell_time":63.426025390625,"response_time":1713210193263.25},{"trial":3,"action":1,"button_pressed":10,"time_out":false,"dwell_time":62.787109375,"response_time":1713210193696.35},{"trial":3,"action":1,"button_pressed":0,"time_out":false,"dwell_time":63.589111328125,"response_time":1713210194163.6},{"trial":3,"action":1,"button_pressed":9,"time_out":false,"dwell_time":47.34912109375,"response_time":1713210194580.01},{"trial":3,"action":1,"button_pressed":5,"time_out":false,"dwell_time":46.64892578125,"response_time":1713210194996.45},{"trial":3,"action":9,"button_pressed":-1,"time_out":false,"dwell_time":48.189208984375,"response_time":1713210195513.43},{"trial":4,"action":1,"button_pressed":7,"time_out":false,"dwell_time":64.532958984375,"response_time":1713210213240.84},{"trial":4,"action":1,"button_pressed":3,"time_out":false,"dwell_time":47.56201171875,"response_time":1713210213657.75},{"trial":4,"action":1,"button_pressed":10,"time_out":false,"dwell_time":79.56103515625,"response_time":1713210214289.7},{"trial":4,"action":0,"button_pressed":-1,"time_out":false,"dwell_time":97.81396484375,"response_time":1713210216772.57},{"trial":4,"action":1,"button_pressed":7,"time_out":false,"dwell_time":44.886962890625,"response_time":1713210217570.79},{"trial":4,"action":1,"button_pressed":3,"time_out":false,"dwell_time":46.72509765625,"response_time":1713210218005.56},{"trial":4,"action":1,"button_pressed":4,"time_out":false,"dwell_time":63.671875,"response_time":1713210218405.06},{"trial":4,"action":1,"button_pressed":10,"time_out":false,"dwell_time":64.198974609375,"response_time":1713210218788.97},{"trial":4,"action":1,"button_pressed":2,"time_out":false,"dwell_time":63.583984375,"response_time":1713210219238.67},{"trial":4,"action":1,"button_pressed":9,"time_out":false,"dwell_time":47.551025390625,"response_time":1713210219722.54},{"trial":4,"action":9,"button_pressed":-1,"time_out":false,"dwell_time":31.06298828125,"response_time":1713210220338.55},{"trial":5,"action":1,"button_pressed":5,"time_out":false,"dwell_time":80.81005859375,"response_time":1713210237549.01},{"trial":5,"action":1,"button_pressed":10,"time_out":false,"dwell_time":62.825927734375,"response_time":1713210238148.52},{"trial":5,"action":1,"button_pressed":7,"time_out":false,"dwell_time":30.10205078125,"response_time":1713210239315.29},{"trial":5,"action":1,"button_pressed":4,"time_out":false,"dwell_time":63.64404296875,"response_time":1713210239747.89},{"trial":5,"action":1,"button_pressed":0,"time_out":false,"dwell_time":64.281982421875,"response_time":1713210240081.31},{"trial":5,"action":1,"button_pressed":8,"time_out":false,"dwell_time":63.570068359375,"response_time":1713210240498.47},{"trial":5,"action":9,"button_pressed":-1,"time_out":false,"dwell_time":64.538818359375,"response_time":1713210241181.44},{"trial":6,"action":1,"button_pressed":7,"time_out":false,"dwell_time":113.236083984375,"response_time":1713210260658.24},{"trial":6,"action":1,"button_pressed":11,"time_out":false,"dwell_time":64.2509765625,"response_time":1713210261008.62},{"trial":6,"action":1,"button_pressed":0,"time_out":false,"dwell_time":97.112060546875,"response_time":1713210261541.78},{"trial":6,"action":1,"button_pressed":3,"time_out":false,"dwell_time":63.51904296875,"response_time":1713210261908.27},{"trial":6,"action":1,"button_pressed":9,"time_out":false,"dwell_time":63.4541015625,"response_time":1713210262240.76},{"trial":6,"action":1,"button_pressed":5,"time_out":false,"dwell_time":64.3359375,"response_time":1713210262641.32},{"trial":6,"action":1,"button_pressed":6,"time_out":false,"dwell_time":47.294189453125,"response_time":1713210263091.65},{"trial":6,"action":0,"button_pressed":-1,"time_out":false,"dwell_time":47.949951171875,"response_time":1713210264040.69},{"trial":6,"action":1,"button_pressed":7,"time_out":false,"dwell_time":64.3291015625,"response_time":1713210265990.01},{"trial":6,"action":1,"button_pressed":11,"time_out":false,"dwell_time":63.621826171875,"response_time":1713210266339.18},{"trial":6,"action":1,"button_pressed":0,"time_out":false,"dwell_time":63.64013671875,"response_time":1713210268472.81},{"trial":6,"action":1,"button_pressed":3,"time_out":false,"dwell_time":46.50390625,"response_time":1713210268972.25},{"trial":6,"action":1,"button_pressed":5,"time_out":false,"dwell_time":63.533935546875,"response_time":1713210269455.51},{"trial":6,"action":1,"button_pressed":9,"time_out":false,"dwell_time":63.497802734375,"response_time":1713210269938.07},{"trial":6,"action":1,"button_pressed":6,"time_out":false,"dwell_time":47.468994140625,"response_time":1713210270205.52},{"trial":6,"action":1,"button_pressed":5,"time_out":false,"dwell_time":80.823974609375,"response_time":1713210272171.46},{"trial":6,"action":1,"button_pressed":5,"time_out":false,"dwell_time":47.708984375,"response_time":1713210273853.88},{"trial":6,"action":0,"button_pressed":-1,"time_out":false,"dwell_time":64.330078125,"response_time":1713210274553.71},{"trial":6,"action":1,"button_pressed":7,"time_out":false,"dwell_time":46.175048828125,"response_time":1713210275253.48},{"trial":6,"action":1,"button_pressed":11,"time_out":false,"dwell_time":64.14794921875,"response_time":1713210275636.96},{"trial":6,"action":1,"button_pressed":0,"time_out":false,"dwell_time":81.201171875,"response_time":1713210276303.49},{"trial":6,"action":1,"button_pressed":3,"time_out":false,"dwell_time":64.850830078125,"response_time":1713210282067.32},{"trial":6,"action":1,"button_pressed":9,"time_out":false,"dwell_time":96.636962890625,"response_time":1713210284233.52},{"trial":6,"action":1,"button_pressed":5,"time_out":false,"dwell_time":63.719970703125,"response_time":1713210285900.34},{"trial":6,"action":1,"button_pressed":6,"time_out":false,"dwell_time":80.23095703125,"response_time":1713210286550.18},{"trial":6,"action":9,"button_pressed":-1,"time_out":false,"dwell_time":16.428955078125,"response_time":1713210287532.6},{"trial":7,"action":1,"button_pressed":3,"time_out":false,"dwell_time":63.1669921875,"response_time":1713210309625.16},{"trial":7,"action":1,"button_pressed":1,"time_out":false,"dwell_time":67.578125,"response_time":1713210309958.97},{"trial":7,"action":1,"button_pressed":8,"time_out":false,"dwell_time":46.804931640625,"response_time":1713210310558.61},{"trial":7,"action":1,"button_pressed":5,"time_out":false,"dwell_time":64.52783203125,"response_time":1713210310908.93},{"trial":7,"action":1,"button_pressed":7,"time_out":false,"dwell_time":64.352783203125,"response_time":1713210314324.18},{"trial":7,"action":1,"button_pressed":0,"time_out":false,"dwell_time":97.89990234375,"response_time":1713210314907.43},{"trial":7,"action":1,"button_pressed":9,"time_out":false,"dwell_time":47.5419921875,"response_time":1713210315391.09},{"trial":7,"action":1,"button_pressed":10,"time_out":false,"dwell_time":46.77001953125,"response_time":1713210315656.91},{"trial":7,"action":9,"button_pressed":-1,"time_out":false,"dwell_time":48.171142578125,"response_time":1713210316556.96},{"trial":8,"action":1,"button_pressed":8,"time_out":false,"dwell_time":47.028076171875,"response_time":1713210341831.85},{"trial":8,"action":1,"button_pressed":10,"time_out":false,"dwell_time":45.544921875,"response_time":1713210342147.4},{"trial":8,"action":1,"button_pressed":4,"time_out":false,"dwell_time":80.35595703125,"response_time":1713210342514.92},{"trial":8,"action":1,"button_pressed":1,"time_out":false,"dwell_time":46.698974609375,"response_time":1713210343131.16},{"trial":8,"action":1,"button_pressed":6,"time_out":false,"dwell_time":80.946044921875,"response_time":1713210343498.05},{"trial":8,"action":1,"button_pressed":3,"time_out":false,"dwell_time":63.654052734375,"response_time":1713210343847.9},{"trial":8,"action":1,"button_pressed":9,"time_out":false,"dwell_time":46.734130859375,"response_time":1713210344780.5},{"trial":8,"action":1,"button_pressed":2,"time_out":false,"dwell_time":63.77099609375,"response_time":1713210345379.85},{"trial":8,"action":1,"button_pressed":7,"time_out":false,"dwell_time":47.18505859375,"response_time":1713210345914.17},{"trial":8,"action":9,"button_pressed":-1,"time_out":false,"dwell_time":63.699951171875,"response_time":1713210346763.26},{"trial":9,"action":1,"button_pressed":2,"time_out":false,"dwell_time":64.655029296875,"response_time":1713210371488.73},{"trial":9,"action":1,"button_pressed":4,"time_out":false,"dwell_time":63.074951171875,"response_time":1713210371821.28},{"trial":9,"action":1,"button_pressed":7,"time_out":false,"dwell_time":47.455078125,"response_time":1713210372271.48},{"trial":9,"action":1,"button_pressed":9,"time_out":false,"dwell_time":63.592041015625,"response_time":1713210372604.97},{"trial":9,"action":1,"button_pressed":1,"time_out":false,"dwell_time":83.195068359375,"response_time":1713210375837.24},{"trial":9,"action":1,"button_pressed":3,"time_out":false,"dwell_time":63.737060546875,"response_time":1713210376137.13},{"trial":9,"action":1,"button_pressed":6,"time_out":false,"dwell_time":79.43798828125,"response_time":1713210378935.5},{"trial":9,"action":1,"button_pressed":5,"time_out":false,"dwell_time":49.26708984375,"response_time":1713210380268.83},{"trial":9,"action":1,"button_pressed":11,"time_out":false,"dwell_time":47.785888671875,"response_time":1713210380669.82},{"trial":9,"action":9,"button_pressed":-1,"time_out":false,"dwell_time":81.203125,"response_time":1713210381651.85},{"trial":10,"action":1,"button_pressed":6,"time_out":false,"dwell_time":63.964111328125,"response_time":1713210402478.02},{"trial":10,"action":1,"button_pressed":11,"time_out":false,"dwell_time":81.130126953125,"response_time":1713210403111.71},{"trial":10,"action":0,"button_pressed":-1,"time_out":false,"dwell_time":14.593017578125,"response_time":1713210404710.74},{"trial":10,"action":1,"button_pressed":6,"time_out":false,"dwell_time":62.629150390625,"response_time":1713210405310.14},{"trial":10,"action":1,"button_pressed":10,"time_out":false,"dwell_time":46.846923828125,"response_time":1713210405710.69},{"trial":10,"action":1,"button_pressed":11,"time_out":false,"dwell_time":63.739013671875,"response_time":1713210406176.5},{"trial":10,"action":1,"button_pressed":4,"time_out":false,"dwell_time":46.81005859375,"response_time":1713210406726.85},{"trial":10,"action":1,"button_pressed":8,"time_out":false,"dwell_time":64.447021484375,"response_time":1713210407077.03},{"trial":10,"action":1,"button_pressed":3,"time_out":false,"dwell_time":64.465087890625,"response_time":1713210407426.89},{"trial":10,"action":9,"button_pressed":-1,"time_out":false,"dwell_time":80.381103515625,"response_time":1713210407909.79},{"trial":11,"action":1,"button_pressed":6,"time_out":false,"dwell_time":30.131103515625,"response_time":1713210428819.83},{"trial":11,"action":1,"button_pressed":9,"time_out":false,"dwell_time":48.323974609375,"response_time":1713210429387},{"trial":11,"action":1,"button_pressed":2,"time_out":false,"dwell_time":62.135986328125,"response_time":1713210431400.87},{"trial":11,"action":1,"button_pressed":0,"time_out":false,"dwell_time":62.003173828125,"response_time":1713210431750.63},{"trial":11,"action":1,"button_pressed":3,"time_out":false,"dwell_time":33.958984375,"response_time":1713210432019.45},{"trial":11,"action":1,"button_pressed":10,"time_out":false,"dwell_time":63.9140625,"response_time":1713210432385.32},{"trial":11,"action":0,"button_pressed":-1,"time_out":false,"dwell_time":47.1640625,"response_time":1713210434434.66},{"trial":11,"action":1,"button_pressed":6,"time_out":false,"dwell_time":47.115966796875,"response_time":1713210434968.32},{"trial":11,"action":1,"button_pressed":9,"time_out":false,"dwell_time":63.638916015625,"response_time":1713210435267.8},{"trial":11,"action":1,"button_pressed":0,"time_out":false,"dwell_time":97.39697265625,"response_time":1713210436667.27},{"trial":11,"action":1,"button_pressed":3,"time_out":false,"dwell_time":47.35693359375,"response_time":1713210436917.77},{"trial":11,"action":1,"button_pressed":10,"time_out":false,"dwell_time":80.300048828125,"response_time":1713210437250.62},{"trial":11,"action":1,"button_pressed":7,"time_out":false,"dwell_time":47.260986328125,"response_time":1713210438400.57},{"trial":11,"action":9,"button_pressed":-1,"time_out":false,"dwell_time":64.407958984375,"response_time":1713210438950.46}]}