{"meta_data":{"additional_headers":{},"game_name":"Recollect","version":"2.53.01","user_name":"188","organization":"braingamecenter","study":"mpl2_2022_11","session_number":0,"device_id":"74342D95-EE82-45E3-8ADF-48FB3203C5DD"},"data":[{"trial":0,"action":1,"button_pressed":9,"time_out":false,"dwell_time":64.115966796875,"response_time":1713459125113.72},{"trial":0,"action":1,"button_pressed":1,"time_out":false,"dwell_time":46.857177734375,"response_time":1713459125813.18},{"trial":0,"action":9,"button_pressed":-1,"time_out":false,"dwell_time":57.3359375,"response_time":1713459126640.14},{"trial":1,"action":1,"button_pressed":4,"time_out":false,"dwell_time":64.22705078125,"response_time":1713459136376.02},{"trial":1,"action":1,"button_pressed":7,"time_out":false,"dwell_time":29.927001953125,"response_time":1713459137009.19},{"trial":1,"action":1,"button_pressed":10,"time_out":false,"dwell_time":64.390869140625,"response_time":1713459137659.5},{"trial":1,"action":9,"button_pressed":-1,"time_out":false,"dwell_time":48.0751953125,"response_time":1713459138492.49},{"trial":2,"action":1,"button_pressed":8,"time_out":false,"dwell_time":46.922119140625,"response_time":1713459150704.93},{"trial":2,"action":1,"button_pressed":1,"time_out":false,"dwell_time":48.0439453125,"response_time":1713459151255.38},{"trial":2,"action":1,"button_pressed":3,"time_out":false,"dwell_time":48.2080078125,"response_time":1713459151655.18},{"trial":2,"action":1,"button_pressed":11,"time_out":false,"dwell_time":63.925048828125,"response_time":1713459152221.05},{"trial":2,"action":9,"button_pressed":-1,"time_out":false,"dwell_time":65.12890625,"response_time":1713459153104.61},{"trial":3,"action":1,"button_pressed":1,"time_out":false,"dwell_time":31.343017578125,"response_time":1713459167815.84},{"trial":3,"action":1,"button_pressed":10,"time_out":false,"dwell_time":64.18310546875,"response_time":1713459168332.23},{"trial":3,"action":1,"button_pressed":0,"time_out":false,"dwell_time":47.51611328125,"response_time":1713459169215.18},{"trial":3,"action":1,"button_pressed":9,"time_out":false,"dwell_time":64.406982421875,"response_time":1713459169748.6},{"trial":3,"action":1,"button_pressed":5,"time_out":false,"dwell_time":47.60986328125,"response_time":1713459170248.92},{"trial":3,"action":9,"button_pressed":-1,"time_out":false,"dwell_time":48.18505859375,"response_time":1713459171048.27},{"trial":4,"action":1,"button_pressed":9,"time_out":false,"dwell_time":47.724853515625,"response_time":1713459188576.18},{"trial":4,"action":1,"button_pressed":1,"time_out":false,"dwell_time":63.197998046875,"response_time":1713459189074.87},{"trial":4,"action":1,"button_pressed":2,"time_out":false,"dwell_time":47.482177734375,"response_time":1713459189624.87},{"trial":4,"action":1,"button_pressed":8,"time_out":false,"dwell_time":62.718994140625,"response_time":1713459190140.96},{"trial":4,"action":1,"button_pressed":6,"time_out":false,"dwell_time":47.27197265625,"response_time":1713459190657.98},{"trial":4,"action":1,"button_pressed":11,"time_out":false,"dwell_time":47.844970703125,"response_time":1713459191141.88},{"trial":4,"action":9,"button_pressed":-1,"time_out":false,"dwell_time":47.554931640625,"response_time":1713459192024.73},{"trial":5,"action":1,"button_pressed":10,"time_out":false,"dwell_time":80.5048828125,"response_time":1713459211751.25},{"trial":5,"action":1,"button_pressed":1,"time_out":false,"dwell_time":47.487060546875,"response_time":1713459212233.97},{"trial":5,"action":1,"button_pressed":2,"time_out":false,"dwell_time":47.486083984375,"response_time":1713459212934.46},{"trial":5,"action":1,"button_pressed":7,"time_out":false,"dwell_time":63.574951171875,"response_time":1713459214099.63},{"trial":5,"action":1,"button_pressed":6,"time_out":false,"dwell_time":64.14501953125,"response_time":1713459214633.37},{"trial":5,"action":1,"button_pressed":4,"time_out":false,"dwell_time":64.38720703125,"response_time":1713459216049.59},{"trial":5,"action":1,"button_pressed":3,"time_out":false,"dwell_time":30.256103515625,"response_time":1713459216266.15},{"trial":5,"action":9,"button_pressed":-1,"time_out":false,"dwell_time":64.298095703125,"response_time":1713459216933.07},{"trial":6,"action":1,"button_pressed":2,"time_out":false,"dwell_time":64.754150390625,"response_time":1713459236592.82},{"trial":6,"action":1,"button_pressed":9,"time_out":false,"dwell_time":46.22802734375,"response_time":1713459238291.73},{"trial":6,"action":1,"button_pressed":6,"time_out":false,"dwell_time":62.993896484375,"response_time":1713459238591.56},{"trial":6,"action":1,"button_pressed":4,"time_out":false,"dwell_time":46.580078125,"response_time":1713459238941.59},{"trial":6,"action":1,"button_pressed":0,"time_out":false,"dwell_time":80.98388671875,"response_time":1713459239808.24},{"trial":6,"action":1,"button_pressed":10,"time_out":false,"dwell_time":46.8798828125,"response_time":1713459240675.1},{"trial":6,"action":1,"button_pressed":10,"time_out":false,"dwell_time":30.343017578125,"response_time":1713459241091.27},{"trial":6,"action":1,"button_pressed":7,"time_out":false,"dwell_time":48.0810546875,"response_time":1713459242291.28},{"trial":6,"action":9,"button_pressed":-1,"time_out":false,"dwell_time":47.564208984375,"response_time":1713459243057.6},{"trial":7,"action":1,"button_pressed":5,"time_out":false,"dwell_time":64.702880859375,"response_time":1713459257802.62},{"trial":7,"action":1,"button_pressed":9,"time_out":false,"dwell_time":47.327880859375,"response_time":1713459258336.02},{"trial":7,"action":1,"button_pressed":6,"time_out":false,"dwell_time":30.73486328125,"response_time":1713459258735.9},{"trial":7,"action":1,"button_pressed":8,"time_out":false,"dwell_time":47.867919921875,"response_time":1713459259152.2},{"trial":7,"action":1,"button_pressed":7,"time_out":false,"dwell_time":64.406005859375,"response_time":1713459259768.45},{"trial":7,"action":9,"button_pressed":-1,"time_out":false,"dwell_time":64.994873046875,"response_time":1713459260501.87},{"trial":8,"action":1,"button_pressed":11,"time_out":false,"dwell_time":29.859130859375,"response_time":1713459277678.91},{"trial":8,"action":1,"button_pressed":8,"time_out":false,"dwell_time":46.487060546875,"response_time":1713459278261.84},{"trial":8,"action":1,"button_pressed":6,"time_out":false,"dwell_time":29.930908203125,"response_time":1713459278828.33},{"trial":8,"action":1,"button_pressed":4,"time_out":false,"dwell_time":46.09716796875,"response_time":1713459279243.58},{"trial":8,"action":1,"button_pressed":1,"time_out":false,"dwell_time":47.50390625,"response_time":1713459279645.58},{"trial":8,"action":1,"button_pressed":10,"time_out":false,"dwell_time":64.088134765625,"response_time":1713459280044.69},{"trial":8,"action":9,"button_pressed":-1,"time_out":false,"dwell_time":64.683837890625,"response_time":1713459280711.61},{"trial":9,"action":1,"button_pressed":11,"time_out":false,"dwell_time":63.7041015625,"response_time":1713459300487.63},{"trial":9,"action":1,"button_pressed":3,"time_out":false,"dwell_time":47.421875,"response_time":1713459301287.41},{"trial":9,"action":1,"button_pressed":4,"time_out":false,"dwell_time":46.783935546875,"response_time":1713459302836.96},{"trial":9,"action":1,"button_pressed":2,"time_out":false,"dwell_time":64.47314453125,"response_time":1713459303270.39},{"trial":9,"action":1,"button_pressed":8,"time_out":false,"dwell_time":29.794189453125,"response_time":1713459303603.23},{"trial":9,"action":1,"button_pressed":1,"time_out":false,"dwell_time":29.953857421875,"response_time":1713459304003.05},{"trial":9,"action":1,"button_pressed":6,"time_out":false,"dwell_time":47.34814453125,"response_time":1713459304836.98},{"trial":9,"action":9,"button_pressed":-1,"time_out":false,"dwell_time":48.18701171875,"response_time":1713459305387.26},{"trial":10,"action":1,"button_pressed":1,"time_out":false,"dwell_time":65.089111328125,"response_time":1713459325063.6},{"trial":10,"action":1,"button_pressed":9,"time_out":false,"dwell_time":31.35498046875,"response_time":1713459325480.03},{"trial":10,"action":1,"button_pressed":7,"time_out":false,"dwell_time":47.02197265625,"response_time":1713459325962.4},{"trial":10,"action":1,"button_pressed":2,"time_out":false,"dwell_time":63.51806640625,"response_time":1713459328044.66},{"trial":10,"action":1,"button_pressed":5,"time_out":false,"dwell_time":47.686767578125,"response_time":1713459328428.22},{"trial":10,"action":1,"button_pressed":11,"time_out":false,"dwell_time":48.02099609375,"response_time":1713459328995.59},{"trial":10,"action":1,"button_pressed":3,"time_out":false,"dwell_time":30.04296875,"response_time":1713459329394.6},{"trial":10,"action":9,"button_pressed":-1,"time_out":false,"dwell_time":64.48388671875,"response_time":1713459330111.95},{"trial":11,"action":1,"button_pressed":3,"time_out":false,"dwell_time":46.843994140625,"response_time":1713459352353.65},{"trial":11,"action":1,"button_pressed":1,"time_out":false,"dwell_time":81.0791015625,"response_time":1713459353736.72},{"trial":11,"action":1,"button_pressed":8,"time_out":false,"dwell_time":47.573974609375,"response_time":1713459354186.21},{"trial":11,"action":1,"button_pressed":5,"time_out":false,"dwell_time":63.7041015625,"response_time":1713459354868.8},{"trial":11,"action":1,"button_pressed":0,"time_out":false,"dwell_time":63.89404296875,"response_time":1713459359451.01},{"trial":11,"action":1,"button_pressed":7,"time_out":false,"dwell_time":47.763916015625,"response_time":1713459360817.68},{"trial":11,"action":1,"button_pressed":2,"time_out":false,"dwell_time":63.0419921875,"response_time":1713459362483.05},{"trial":11,"action":1,"button_pressed":6,"time_out":false,"dwell_time":47.447998046875,"response_time":1713459363183.24},{"trial":11,"action":1,"button_pressed":9,"time_out":false,"dwell_time":48.323974609375,"response_time":1713459363450.71},{"trial":11,"action":9,"button_pressed":-1,"time_out":false,"dwell_time":64.493896484375,"response_time":1713459364632.86},{"trial":12,"action":1,"button_pressed":10,"time_out":false,"dwell_time":63.180908203125,"response_time":1713459386858.34},{"trial":12,"action":1,"button_pressed":2,"time_out":false,"dwell_time":79.64501953125,"response_time":1713459390740.13},{"trial":12,"action":1,"button_pressed":1,"time_out":false,"dwell_time":48.451171875,"response_time":1713459391324.79},{"trial":12,"action":1,"button_pressed":9,"time_out":false,"dwell_time":63.43310546875,"response_time":1713459391940.58},{"trial":12,"action":1,"button_pressed":5,"time_out":false,"dwell_time":63.64697265625,"response_time":1713459393489.21},{"trial":12,"action":1,"button_pressed":11,"time_out":false,"dwell_time":47.0498046875,"response_time":1713459396555.24},{"trial":12,"action":1,"button_pressed":4,"time_out":false,"dwell_time":63.467041015625,"response_time":1713459397804.98},{"trial":12,"action":1,"button_pressed":8,"time_out":false,"dwell_time":48.05712890625,"response_time":1713459398172.37},{"trial":12,"action":9,"button_pressed":-1,"time_out":false,"dwell_time":64.696044921875,"response_time":1713459398772.09}]}