{"meta_data":{"additional_headers":{},"game_name":"Recollect","version":"2.53.01","user_name":"188","organization":"braingamecenter","study":"mpl2_2022_11","session_number":0,"device_id":"74342D95-EE82-45E3-8ADF-48FB3203C5DD"},"data":[{"stage":"Practice","trial":0,"sequence":"6F","letter_input":"F","number_input":"6","is_correct":true,"presentation_start_time":1713459432757.73,"presentation_end_time":1713459435760.88,"response_time":1713459442822.63},{"stage":"Practice","trial":1,"sequence":"G4","letter_input":"G","number_input":"4","is_correct":true,"presentation_start_time":1713459444353.78,"presentation_end_time":1713459447356.99,"response_time":1713459452251.27},{"stage":"Practice","trial":2,"sequence":"3W5","letter_input":"W","number_input":"35","is_correct":true,"presentation_start_time":1713459453783.98,"presentation_end_time":1713459458286.64,"response_time":1713459463763.97},{"stage":"Practice","trial":3,"sequence":"T7L","letter_input":"LT","number_input":"7","is_correct":true,"presentation_start_time":1713459465296.77,"presentation_end_time":1713459469799.53,"response_time":1713459475233.65},{"stage":"Practice","trial":4,"sequence":"9J1","letter_input":"J","number_input":"19","is_correct":true,"presentation_start_time":1713459476768.62,"presentation_end_time":1713459481276.73,"response_time":1713459486375.44},{"stage":"Calibration","trial":0,"sequence":"3T","letter_input":"T","number_input":"3","is_correct":true,"presentation_start_time":1713459495794.19,"presentation_end_time":1713459498798.45,"response_time":1713459503110.88},{"stage":"Calibration","trial":1,"sequence":"C5","letter_input":"C","number_input":"5","is_correct":true,"presentation_start_time":1713459504644.1,"presentation_end_time":1713459507648.07,"response_time":1713459512559.62},{"stage":"Calibration","trial":2,"sequence":"7P4","letter_input":"P","number_input":"47","is_correct":true,"presentation_start_time":1713459514092.55,"presentation_end_time":1713459518595.6,"response_time":1713459522890.6},{"stage":"Calibration","trial":3,"sequence":"T8F","letter_input":"FT","number_input":"8","is_correct":true,"presentation_start_time":1713459524423.4,"presentation_end_time":1713459528926.3,"response_time":1713459533137.87},{"stage":"Calibration","trial":4,"sequence":"9R3E","letter_input":"ER","number_input":"39","is_correct":true,"presentation_start_time":1713459534670.61,"presentation_end_time":1713459540672.89,"response_time":1713459546483.9},{"stage":"Calibration","trial":5,"sequence":"P5H1","letter_input":"HP","number_input":"15","is_correct":true,"presentation_start_time":1713459548016.51,"presentation_end_time":1713459554018.82,"response_time":1713459559179.82},{"stage":"Calibration","trial":6,"sequence":"4Q2M7","letter_input":"MQ","number_input":"247","is_correct":true,"presentation_start_time":1713459560712.5,"presentation_end_time":1713459568214.3,"response_time":1713459575024.68},{"stage":"Calibration","trial":7,"sequence":"P9E6W","letter_input":"EWP","number_input":"69","is_correct":false,"presentation_start_time":1713459576557.41,"presentation_end_time":1713459584059.14,"response_time":1713459598000.53},{"stage":"Calibration","trial":8,"sequence":"5A3V1L","letter_input":"ALV","number_input":"135","is_correct":true,"presentation_start_time":1713459599533.26,"presentation_end_time":1713459608534.42,"response_time":1713459615728.09},{"stage":"Calibration","trial":9,"sequence":"F2Z7J4","letter_input":"FPZ","number_input":"247","is_correct":false,"presentation_start_time":1713459617260.87,"presentation_end_time":1713459626261.96,"response_time":1713459633355.7},{"stage":"Calibration","trial":10,"sequence":"9V1N5E3","letter_input":"VN","number_input":"1359","is_correct":false,"presentation_start_time":1713459634888.53,"presentation_end_time":1713459645389.23,"response_time":1713459653049.19},{"stage":"Calibration","trial":11,"sequence":"K6Y2W8T","letter_input":"KWY","number_input":"169","is_correct":false,"presentation_start_time":1713459654582.01,"presentation_end_time":1713459665082.69,"response_time":1713459677941.23}]}