{"meta_data":{"additional_headers":{},"game_name":"Recollect","version":"2.53.01","user_name":"189","organization":"braingamecenter","study":"mpl2_2022_11","session_number":0,"device_id":"74342D95-EE82-45E3-8ADF-48FB3203C5DD"},"data":[{"stage":"Practice","trial":0,"sequence":"6F","letter_input":"F","number_input":"6","is_correct":true,"presentation_start_time":1713477812200.2,"presentation_end_time":1713477815203.45,"response_time":1713477822548.5},{"stage":"Practice","trial":1,"sequence":"G4","letter_input":"G","number_input":"4","is_correct":true,"presentation_start_time":1713477824079.71,"presentation_end_time":1713477827082.91,"response_time":1713477831777.34},{"stage":"Practice","trial":2,"sequence":"3W5","letter_input":"W","number_input":"35","is_correct":true,"presentation_start_time":1713477833309.97,"presentation_end_time":1713477837812.86,"response_time":1713477842640.43},{"stage":"Practice","trial":3,"sequence":"T7L","letter_input":"LT","number_input":"7","is_correct":true,"presentation_start_time":1713477844173.09,"presentation_end_time":1713477848675.77,"response_time":1713477853620.13},{"stage":"Practice","trial":4,"sequence":"9J1","letter_input":"J","number_input":"19","is_correct":true,"presentation_start_time":1713477855152.81,"presentation_end_time":1713477859655.53,"response_time":1713477863550.18},{"stage":"Calibration","trial":0,"sequence":"P2","letter_input":"P","number_input":"2","is_correct":true,"presentation_start_time":1713477880161.29,"presentation_end_time":1713477883164.3,"response_time":1713477887675.71},{"stage":"Calibration","trial":1,"sequence":"6B","letter_input":"B","number_input":"6","is_correct":true,"presentation_start_time":1713477889208.36,"presentation_end_time":1713477892211.71,"response_time":1713477896106.21},{"stage":"Calibration","trial":2,"sequence":"J1E","letter_input":"EJ","number_input":"1","is_correct":true,"presentation_start_time":1713477897638.98,"presentation_end_time":1713477902141.72,"response_time":1713477909318.69},{"stage":"Calibration","trial":3,"sequence":"9F6","letter_input":"F","number_input":"69","is_correct":true,"presentation_start_time":1713477910851.32,"presentation_end_time":1713477915353.94,"response_time":1713477919798.49},{"stage":"Calibration","trial":4,"sequence":"Z4C2","letter_input":"CZ","number_input":"24","is_correct":true,"presentation_start_time":1713477921331.2,"presentation_end_time":1713477927333.39,"response_time":1713477933810.6},{"stage":"Calibration","trial":5,"sequence":"6D3B","letter_input":"BD","number_input":"36","is_correct":true,"presentation_start_time":1713477935343.29,"presentation_end_time":1713477941345.44,"response_time":1713477948739.07},{"stage":"Calibration","trial":6,"sequence":"A4Q2M","letter_input":"AMQ","number_input":"24","is_correct":true,"presentation_start_time":1713477950271.81,"presentation_end_time":1713477957773.46,"response_time":1713477969282.3},{"stage":"Calibration","trial":7,"sequence":"6W3J9","letter_input":"JW","number_input":"369","is_correct":true,"presentation_start_time":1713477970815.01,"presentation_end_time":1713477978316.74,"response_time":1713477988059.47},{"stage":"Calibration","trial":8,"sequence":"P1V8T5","letter_input":"PTV","number_input":"158","is_correct":true,"presentation_start_time":1713477989592.15,"presentation_end_time":1713477998593.37,"response_time":1713478009735.7},{"stage":"Calibration","trial":9,"sequence":"2D9S7H","letter_input":"DHS","number_input":"279","is_correct":true,"presentation_start_time":1713478011268.45,"presentation_end_time":1713478020269.75,"response_time":1713478033244.64},{"stage":"Calibration","trial":10,"sequence":"P3J1Y8M","letter_input":"PJMY","number_input":"138","is_correct":false,"presentation_start_time":1713478034777.42,"presentation_end_time":1713478045278.18,"response_time":1713478074514.53},{"stage":"Calibration","trial":11,"sequence":"2D7Z4T9","letter_input":"DYZ","number_input":"2479","is_correct":false,"presentation_start_time":1713478076047.26,"presentation_end_time":1713478086547.9,"response_time":1713478112335.52}]}