{"meta_data":{"additional_headers":{},"game_name":"Recollect","version":"2.53.01","user_name":"189","organization":"braingamecenter","study":"mpl2_2022_11","session_number":0,"device_id":"74342D95-EE82-45E3-8ADF-48FB3203C5DD"},"data":[{"trial":0,"action":1,"button_pressed":10,"time_out":false,"dwell_time":47.56298828125,"response_time":1713477383292.63},{"trial":0,"action":1,"button_pressed":7,"time_out":false,"dwell_time":64.2998046875,"response_time":1713477383892.45},{"trial":0,"action":9,"button_pressed":-1,"time_out":false,"dwell_time":40.6171875,"response_time":1713477384618.9},{"trial":1,"action":1,"button_pressed":4,"time_out":false,"dwell_time":30.427978515625,"response_time":1713477394122.46},{"trial":1,"action":1,"button_pressed":7,"time_out":false,"dwell_time":47.44189453125,"response_time":1713477394622.16},{"trial":1,"action":1,"button_pressed":10,"time_out":false,"dwell_time":30.044921875,"response_time":1713477395088.65},{"trial":1,"action":9,"button_pressed":-1,"time_out":false,"dwell_time":32.27685546875,"response_time":1713477395906.28},{"trial":2,"action":1,"button_pressed":10,"time_out":false,"dwell_time":47.6630859375,"response_time":1713477408002.03},{"trial":2,"action":1,"button_pressed":3,"time_out":false,"dwell_time":63.72802734375,"response_time":1713477408317.2},{"trial":2,"action":1,"button_pressed":6,"time_out":false,"dwell_time":64.388916015625,"response_time":1713477408551.23},{"trial":2,"action":1,"button_pressed":8,"time_out":false,"dwell_time":30.51220703125,"response_time":1713477408918.15},{"trial":2,"action":9,"button_pressed":-1,"time_out":false,"dwell_time":48.85205078125,"response_time":1713477409901.61},{"trial":3,"action":1,"button_pressed":2,"time_out":false,"dwell_time":47.06689453125,"response_time":1713477424512.58},{"trial":3,"action":1,"button_pressed":6,"time_out":false,"dwell_time":62.802978515625,"response_time":1713477424928.41},{"trial":3,"action":1,"button_pressed":7,"time_out":false,"dwell_time":64.385986328125,"response_time":1713477425162.58},{"trial":3,"action":1,"button_pressed":0,"time_out":false,"dwell_time":49.826904296875,"response_time":1713477425612.22},{"trial":3,"action":1,"button_pressed":8,"time_out":false,"dwell_time":48.385986328125,"response_time":1713477425996.14},{"trial":3,"action":9,"button_pressed":-1,"time_out":false,"dwell_time":65.06298828125,"response_time":1713477429994.65},{"trial":4,"action":1,"button_pressed":7,"time_out":false,"dwell_time":47.816162109375,"response_time":1713477447255.9},{"trial":4,"action":1,"button_pressed":3,"time_out":false,"dwell_time":30.06298828125,"response_time":1713477447604.78},{"trial":4,"action":1,"button_pressed":8,"time_out":false,"dwell_time":46.575927734375,"response_time":1713477447937.97},{"trial":4,"action":1,"button_pressed":0,"time_out":false,"dwell_time":63.756103515625,"response_time":1713477448287.41},{"trial":4,"action":1,"button_pressed":4,"time_out":false,"dwell_time":29.9619140625,"response_time":1713477448504.45},{"trial":4,"action":1,"button_pressed":1,"time_out":false,"dwell_time":31.031982421875,"response_time":1713477448871.91},{"trial":4,"action":9,"button_pressed":-1,"time_out":false,"dwell_time":47.398193359375,"response_time":1713477450520.88},{"trial":5,"action":1,"button_pressed":7,"time_out":false,"dwell_time":64.650146484375,"response_time":1713477470247.79},{"trial":5,"action":1,"button_pressed":4,"time_out":false,"dwell_time":63.72314453125,"response_time":1713477470614.2},{"trial":5,"action":1,"button_pressed":9,"time_out":false,"dwell_time":47.024169921875,"response_time":1713477470881.13},{"trial":5,"action":1,"button_pressed":1,"time_out":false,"dwell_time":47.511962890625,"response_time":1713477471214.51},{"trial":5,"action":1,"button_pressed":11,"time_out":false,"dwell_time":46.56005859375,"response_time":1713477471530.42},{"trial":5,"action":1,"button_pressed":6,"time_out":false,"dwell_time":47.9150390625,"response_time":1713477471797.48},{"trial":5,"action":1,"button_pressed":8,"time_out":false,"dwell_time":48.29296875,"response_time":1713477472164.3},{"trial":5,"action":9,"button_pressed":-1,"time_out":false,"dwell_time":48.170166015625,"response_time":1713477473580.06},{"trial":6,"action":1,"button_pressed":2,"time_out":false,"dwell_time":48.537841796875,"response_time":1713477493973.94},{"trial":6,"action":1,"button_pressed":6,"time_out":false,"dwell_time":48.131103515625,"response_time":1713477494373.64},{"trial":6,"action":1,"button_pressed":9,"time_out":false,"dwell_time":47.27392578125,"response_time":1713477494622.76},{"trial":6,"action":1,"button_pressed":0,"time_out":false,"dwell_time":81.251953125,"response_time":1713477494972.96},{"trial":6,"action":1,"button_pressed":3,"time_out":false,"dwell_time":48.2080078125,"response_time":1713477495206.69},{"trial":6,"action":1,"button_pressed":10,"time_out":false,"dwell_time":47.39111328125,"response_time":1713477495489.9},{"trial":6,"action":1,"button_pressed":7,"time_out":false,"dwell_time":48.116943359375,"response_time":1713477495806.44},{"trial":6,"action":9,"button_pressed":-1,"time_out":false,"dwell_time":48.05810546875,"response_time":1713477497023.21},{"trial":7,"action":1,"button_pressed":4,"time_out":false,"dwell_time":47.572998046875,"response_time":1713477519131.5},{"trial":7,"action":1,"button_pressed":11,"time_out":false,"dwell_time":81.236083984375,"response_time":1713477519515.24},{"trial":7,"action":1,"button_pressed":7,"time_out":false,"dwell_time":30.02490234375,"response_time":1713477519731.3},{"trial":7,"action":1,"button_pressed":0,"time_out":false,"dwell_time":47.384033203125,"response_time":1713477520197.74},{"trial":7,"action":1,"button_pressed":2,"time_out":false,"dwell_time":63.829833984375,"response_time":1713477520498.18},{"trial":7,"action":1,"button_pressed":1,"time_out":false,"dwell_time":63.60791015625,"response_time":1713477520931.18},{"trial":7,"action":1,"button_pressed":3,"time_out":false,"dwell_time":64.72705078125,"response_time":1713477521147.96},{"trial":7,"action":1,"button_pressed":9,"time_out":false,"dwell_time":47.597900390625,"response_time":1713477522081.38},{"trial":7,"action":9,"button_pressed":-1,"time_out":false,"dwell_time":48.365966796875,"response_time":1713477528012.55},{"trial":8,"action":1,"button_pressed":5,"time_out":false,"dwell_time":47.820068359375,"response_time":1713477552688.1},{"trial":8,"action":1,"button_pressed":11,"time_out":false,"dwell_time":63.380126953125,"response_time":1713477553203.89},{"trial":8,"action":1,"button_pressed":7,"time_out":false,"dwell_time":46.724853515625,"response_time":1713477553503.67},{"trial":8,"action":1,"button_pressed":4,"time_out":false,"dwell_time":80.47509765625,"response_time":1713477554053.88},{"trial":8,"action":1,"button_pressed":6,"time_out":false,"dwell_time":46.362060546875,"response_time":1713477554603.07},{"trial":8,"action":1,"button_pressed":3,"time_out":false,"dwell_time":63.72998046875,"response_time":1713477555120.1},{"trial":8,"action":1,"button_pressed":8,"time_out":false,"dwell_time":80.8330078125,"response_time":1713477556286.28},{"trial":8,"action":1,"button_pressed":8,"time_out":false,"dwell_time":65.5849609375,"response_time":1713477557751.94},{"trial":8,"action":1,"button_pressed":0,"time_out":false,"dwell_time":46.68603515625,"response_time":1713477559534.9},{"trial":8,"action":0,"button_pressed":-1,"time_out":false,"dwell_time":13.742919921875,"response_time":1713477563067.29},{"trial":8,"action":1,"button_pressed":5,"time_out":false,"dwell_time":47.467041015625,"response_time":1713477563583.67},{"trial":8,"action":1,"button_pressed":11,"time_out":false,"dwell_time":47.52197265625,"response_time":1713477564084.18},{"trial":8,"action":1,"button_pressed":7,"time_out":false,"dwell_time":46.635986328125,"response_time":1713477564316.76},{"trial":8,"action":1,"button_pressed":4,"time_out":false,"dwell_time":30.154052734375,"response_time":1713477564783.23},{"trial":8,"action":1,"button_pressed":3,"time_out":false,"dwell_time":47.47998046875,"response_time":1713477567416.35},{"trial":8,"action":1,"button_pressed":6,"time_out":false,"dwell_time":47.452880859375,"response_time":1713477567632.47},{"trial":8,"action":1,"button_pressed":9,"time_out":false,"dwell_time":47.31298828125,"response_time":1713477568198.73},{"trial":8,"action":1,"button_pressed":8,"time_out":false,"dwell_time":47.328125,"response_time":1713477568549.57},{"trial":8,"action":1,"button_pressed":0,"time_out":false,"dwell_time":30.260986328125,"response_time":1713477568798.89},{"trial":8,"action":9,"button_pressed":-1,"time_out":false,"dwell_time":49.21484375,"response_time":1713477571215.75},{"trial":9,"action":1,"button_pressed":2,"time_out":false,"dwell_time":47.8798828125,"response_time":1713477597190.26},{"trial":9,"action":1,"button_pressed":11,"time_out":false,"dwell_time":47.406982421875,"response_time":1713477597788.99},{"trial":9,"action":1,"button_pressed":0,"time_out":false,"dwell_time":81.1298828125,"response_time":1713477598372.58},{"trial":9,"action":1,"button_pressed":1,"time_out":false,"dwell_time":62.89599609375,"response_time":1713477598871.6},{"trial":9,"action":1,"button_pressed":3,"time_out":false,"dwell_time":97.941162109375,"response_time":1713477599305.78},{"trial":9,"action":1,"button_pressed":8,"time_out":false,"dwell_time":97.423828125,"response_time":1713477604453.85},{"trial":9,"action":1,"button_pressed":5,"time_out":false,"dwell_time":80.10595703125,"response_time":1713477604936.27},{"trial":9,"action":1,"button_pressed":7,"time_out":false,"dwell_time":30.14892578125,"response_time":1713477605753.22},{"trial":9,"action":9,"button_pressed":-1,"time_out":false,"dwell_time":64.527099609375,"response_time":1713477607669.48},{"trial":10,"action":1,"button_pressed":8,"time_out":false,"dwell_time":47.448974609375,"response_time":1713477627546.93},{"trial":10,"action":1,"button_pressed":5,"time_out":false,"dwell_time":64.533935546875,"response_time":1713477627796.33},{"trial":10,"action":1,"button_pressed":1,"time_out":false,"dwell_time":63.821044921875,"response_time":1713477629861.5},{"trial":10,"action":1,"button_pressed":7,"time_out":false,"dwell_time":64.35693359375,"response_time":1713477630262.18},{"trial":10,"action":1,"button_pressed":0,"time_out":false,"dwell_time":63.319091796875,"response_time":1713477631544.98},{"trial":10,"action":1,"button_pressed":11,"time_out":false,"dwell_time":47.2490234375,"response_time":1713477633228.33},{"trial":10,"action":0,"button_pressed":-1,"time_out":false,"dwell_time":64.093994140625,"response_time":1713477637675.81},{"trial":10,"action":1,"button_pressed":8,"time_out":false,"dwell_time":61.991943359375,"response_time":1713477638141.44},{"trial":10,"action":1,"button_pressed":5,"time_out":false,"dwell_time":64.31494140625,"response_time":1713477638509.4},{"trial":10,"action":1,"button_pressed":1,"time_out":false,"dwell_time":63.468017578125,"response_time":1713477639075.71},{"trial":10,"action":1,"button_pressed":6,"time_out":false,"dwell_time":47.305908203125,"response_time":1713477639576.2},{"trial":10,"action":1,"button_pressed":0,"time_out":false,"dwell_time":66.26416015625,"response_time":1713477641275.1},{"trial":10,"action":1,"button_pressed":7,"time_out":false,"dwell_time":46.55712890625,"response_time":1713477641791.25},{"trial":10,"action":1,"button_pressed":11,"time_out":false,"dwell_time":30.76904296875,"response_time":1713477641975.55},{"trial":10,"action":9,"button_pressed":-1,"time_out":false,"dwell_time":65.34912109375,"response_time":1713477644024.88},{"trial":11,"action":1,"button_pressed":6,"time_out":false,"dwell_time":64.929931640625,"response_time":1713477666750.43},{"trial":11,"action":1,"button_pressed":0,"time_out":false,"dwell_time":63.695068359375,"response_time":1713477667199.26},{"trial":11,"action":1,"button_pressed":5,"time_out":false,"dwell_time":97.56787109375,"response_time":1713477669399.24},{"trial":11,"action":1,"button_pressed":3,"time_out":false,"dwell_time":46.488037109375,"response_time":1713477669998.65},{"trial":11,"action":1,"button_pressed":10,"time_out":false,"dwell_time":63.723876953125,"response_time":1713477671548.02},{"trial":11,"action":1,"button_pressed":8,"time_out":false,"dwell_time":63.6259765625,"response_time":1713477672065.12},{"trial":11,"action":1,"button_pressed":1,"time_out":false,"dwell_time":47.476806640625,"response_time":1713477673031.15},{"trial":11,"action":1,"button_pressed":7,"time_out":false,"dwell_time":63.37109375,"response_time":1713477680878.07},{"trial":11,"action":9,"button_pressed":-1,"time_out":false,"dwell_time":65.0380859375,"response_time":1713477683728.52},{"trial":12,"action":1,"button_pressed":2,"time_out":false,"dwell_time":80.66796875,"response_time":1713477716717.44},{"trial":12,"action":0,"button_pressed":-1,"time_out":false,"dwell_time":48.630126953125,"response_time":1713477721366.07},{"trial":12,"action":1,"button_pressed":7,"time_out":false,"dwell_time":29.5791015625,"response_time":1713477721898.29},{"trial":12,"action":1,"button_pressed":2,"time_out":false,"dwell_time":29.958984375,"response_time":1713477722381.58},{"trial":12,"action":1,"button_pressed":4,"time_out":false,"dwell_time":64.344970703125,"response_time":1713477722881.36},{"trial":12,"action":0,"button_pressed":-1,"time_out":false,"dwell_time":63.170166015625,"response_time":1713477727113.14},{"trial":12,"action":1,"button_pressed":4,"time_out":false,"dwell_time":46.592041015625,"response_time":1713477731345.4},{"trial":12,"action":1,"button_pressed":2,"time_out":false,"dwell_time":48.42919921875,"response_time":1713477731729.52},{"trial":12,"action":1,"button_pressed":7,"time_out":false,"dwell_time":63.767822265625,"response_time":1713477732312.23},{"trial":12,"action":1,"button_pressed":9,"time_out":false,"dwell_time":63.597900390625,"response_time":1713477732711.13},{"trial":12,"action":1,"button_pressed":1,"time_out":false,"dwell_time":47.60595703125,"response_time":1713477733128.24},{"trial":12,"action":1,"button_pressed":3,"time_out":false,"dwell_time":63.14599609375,"response_time":1713477733577.71},{"trial":12,"action":1,"button_pressed":5,"time_out":false,"dwell_time":47.34912109375,"response_time":1713477742575.75},{"trial":12,"action":1,"button_pressed":6,"time_out":false,"dwell_time":47.52490234375,"response_time":1713477743075.78},{"trial":12,"action":9,"button_pressed":-1,"time_out":false,"dwell_time":48.619140625,"response_time":1713477748424.78},{"trial":13,"action":1,"button_pressed":11,"time_out":false,"dwell_time":63.623046875,"response_time":1713477774764.91},{"trial":13,"action":1,"button_pressed":8,"time_out":false,"dwell_time":63.530029296875,"response_time":1713477775364.59},{"trial":13,"action":1,"button_pressed":2,"time_out":false,"dwell_time":63.71923828125,"response_time":1713477775830.41},{"trial":13,"action":1,"button_pressed":6,"time_out":false,"dwell_time":47.184814453125,"response_time":1713477776363.97},{"trial":13,"action":1,"button_pressed":5,"time_out":false,"dwell_time":64.26806640625,"response_time":1713477776947.36},{"trial":13,"action":1,"button_pressed":3,"time_out":false,"dwell_time":46.698974609375,"response_time":1713477779663.73},{"trial":13,"action":1,"button_pressed":10,"time_out":false,"dwell_time":64.6650390625,"response_time":1713477780113.11},{"trial":13,"action":1,"button_pressed":1,"time_out":false,"dwell_time":47.986083984375,"response_time":1713477780596.5},{"trial":13,"action":9,"button_pressed":-1,"time_out":false,"dwell_time":48.18994140625,"response_time":1713477783696.05}]}