{"meta_data":{"additional_headers":{},"game_name":"Recollect","version":"2.53.01","user_name":"18","organization":"braingamecenter","study":"mpl2_2022_11","session_number":0,"device_id":"74342D95-EE82-45E3-8ADF-48FB3203C5DD"},"data":[{"stage":"Practice","trial":0,"sequence":"6F","letter_input":"F","number_input":"6","is_correct":true,"presentation_start_time":1676419662056.03,"presentation_end_time":1676419665056.36,"response_time":1676419670839.78},{"stage":"Practice","trial":1,"sequence":"G4","letter_input":"G","number_input":"4","is_correct":true,"presentation_start_time":1676419672369.29,"presentation_end_time":1676419675369.5,"response_time":1676419679466.94},{"stage":"Practice","trial":2,"sequence":"3W5","letter_input":"W","number_input":"35","is_correct":true,"presentation_start_time":1676419680999.77,"presentation_end_time":1676419685499.49,"response_time":1676419690330.12},{"stage":"Practice","trial":3,"sequence":"T7L","letter_input":"LT","number_input":"7","is_correct":true,"presentation_start_time":1676419691862.85,"presentation_end_time":1676419696362.53,"response_time":1676419708124.27},{"stage":"Practice","trial":4,"sequence":"9J1","letter_input":"J","number_input":"19","is_correct":true,"presentation_start_time":1676419709656.98,"presentation_end_time":1676419714156.67,"response_time":1676419723335.85},{"stage":"Calibration","trial":0,"sequence":"2B","letter_input":"B","number_input":"2","is_correct":true,"presentation_start_time":1676419734615.34,"presentation_end_time":1676419737615.59,"response_time":1676419742246.25},{"stage":"Calibration","trial":1,"sequence":"S5","letter_input":"S","number_input":"5","is_correct":true,"presentation_start_time":1676419743778.99,"presentation_end_time":1676419746779.16,"response_time":1676419750743.46},{"stage":"Calibration","trial":2,"sequence":"9E4","letter_input":"E","number_input":"49","is_correct":true,"presentation_start_time":1676419752276.16,"presentation_end_time":1676419756775.89,"response_time":1676419762289.82},{"stage":"Calibration","trial":3,"sequence":"Z7J","letter_input":"JZ","number_input":"7","is_correct":true,"presentation_start_time":1676419763822.35,"presentation_end_time":1676419768322.12,"response_time":1676419773535.96},{"stage":"Calibration","trial":4,"sequence":"9S6D","letter_input":"DS","number_input":"69","is_correct":true,"presentation_start_time":1676419775068.62,"presentation_end_time":1676419781066.99,"response_time":1676419786714.88},{"stage":"Calibration","trial":5,"sequence":"Q5M1","letter_input":"MQ","number_input":"15","is_correct":true,"presentation_start_time":1676419788247.64,"presentation_end_time":1676419794246.89,"response_time":1676419800010.6},{"stage":"Calibration","trial":6,"sequence":"4R2H9","letter_input":"HR","number_input":"249","is_correct":true,"presentation_start_time":1676419801543.33,"presentation_end_time":1676419809041.94,"response_time":1676419815805.27},{"stage":"Calibration","trial":7,"sequence":"A6J3F","letter_input":"AFJ","number_input":"36","is_correct":true,"presentation_start_time":1676419817337.98,"presentation_end_time":1676419824836.68,"response_time":1676419838014.64},{"stage":"Calibration","trial":8,"sequence":"5H2C8R","letter_input":"CHR","number_input":"258","is_correct":true,"presentation_start_time":1676419839547.31,"presentation_end_time":1676419848545.57,"response_time":1676419861290.25},{"stage":"Calibration","trial":9,"sequence":"L6F4Y1","letter_input":"FLY","number_input":"146","is_correct":true,"presentation_start_time":1676419862823,"presentation_end_time":1676419871821.23,"response_time":1676419887931.43},{"stage":"Calibration","trial":10,"sequence":"8W2D5B3","letter_input":"WDB","number_input":"836","is_correct":false,"presentation_start_time":1676419889464.17,"presentation_end_time":1676419899961.81,"response_time":1676419914905.84},{"stage":"Calibration","trial":11,"sequence":"T6N4V1G","letter_input":"MNV","number_input":"1246","is_correct":false,"presentation_start_time":1676419916438.57,"presentation_end_time":1676419926936.33,"response_time":1676419981717.08}]}