{"meta_data":{"additional_headers":{},"game_name":"Recollect","version":"2.53.01","user_name":"190","organization":"braingamecenter","study":"mpl2_2022_11","session_number":0,"device_id":"74342D95-EE82-45E3-8ADF-48FB3203C5DD"},"data":[{"trial":0,"action":1,"button_pressed":3,"time_out":false,"dwell_time":80.051025390625,"response_time":1713540944257.56},{"trial":0,"action":1,"button_pressed":2,"time_out":false,"dwell_time":63.382080078125,"response_time":1713540944773.69},{"trial":0,"action":9,"button_pressed":-1,"time_out":false,"dwell_time":72.44287109375,"response_time":1713540945432.8},{"trial":1,"action":1,"button_pressed":11,"time_out":false,"dwell_time":80.22216796875,"response_time":1713540955421.14},{"trial":1,"action":1,"button_pressed":2,"time_out":false,"dwell_time":81.2509765625,"response_time":1713540955937.51},{"trial":1,"action":1,"button_pressed":9,"time_out":false,"dwell_time":30.60400390625,"response_time":1713540956571.18},{"trial":1,"action":9,"button_pressed":-1,"time_out":false,"dwell_time":114.955078125,"response_time":1713540957320.71},{"trial":2,"action":1,"button_pressed":0,"time_out":false,"dwell_time":80.048095703125,"response_time":1713540969699.2},{"trial":2,"action":1,"button_pressed":10,"time_out":false,"dwell_time":79.64697265625,"response_time":1713540970148.77},{"trial":2,"action":1,"button_pressed":2,"time_out":false,"dwell_time":114.47607421875,"response_time":1713540970665.91},{"trial":2,"action":1,"button_pressed":6,"time_out":false,"dwell_time":79.406005859375,"response_time":1713540971231.7},{"trial":2,"action":9,"button_pressed":-1,"time_out":false,"dwell_time":97.617919921875,"response_time":1713540971882.64},{"trial":3,"action":1,"button_pressed":8,"time_out":false,"dwell_time":79.857177734375,"response_time":1713540986993.43},{"trial":3,"action":1,"button_pressed":4,"time_out":false,"dwell_time":114.52392578125,"response_time":1713540987593.81},{"trial":3,"action":1,"button_pressed":1,"time_out":false,"dwell_time":130.546875,"response_time":1713540988226.21},{"trial":3,"action":1,"button_pressed":5,"time_out":false,"dwell_time":81.263916015625,"response_time":1713540988809.97},{"trial":3,"action":1,"button_pressed":3,"time_out":false,"dwell_time":80.348876953125,"response_time":1713540989475.68},{"trial":3,"action":9,"button_pressed":-1,"time_out":false,"dwell_time":131.699951171875,"response_time":1713540990343.24},{"trial":4,"action":1,"button_pressed":9,"time_out":false,"dwell_time":80.404052734375,"response_time":1713541007603.28},{"trial":4,"action":1,"button_pressed":1,"time_out":false,"dwell_time":113.720947265625,"response_time":1713541008203.62},{"trial":4,"action":1,"button_pressed":8,"time_out":false,"dwell_time":63.531982421875,"response_time":1713541008720.04},{"trial":4,"action":1,"button_pressed":2,"time_out":false,"dwell_time":114.30908203125,"response_time":1713541009286.58},{"trial":4,"action":1,"button_pressed":6,"time_out":false,"dwell_time":113.56396484375,"response_time":1713541009786.43},{"trial":4,"action":1,"button_pressed":11,"time_out":false,"dwell_time":62.804931640625,"response_time":1713541010285.48},{"trial":4,"action":9,"button_pressed":-1,"time_out":false,"dwell_time":47.528076171875,"response_time":1713541011052.99},{"trial":5,"action":1,"button_pressed":8,"time_out":false,"dwell_time":98.027099609375,"response_time":1713541028480.4},{"trial":5,"action":1,"button_pressed":0,"time_out":false,"dwell_time":63.276123046875,"response_time":1713541029029.62},{"trial":5,"action":1,"button_pressed":1,"time_out":false,"dwell_time":96.89404296875,"response_time":1713541029663.13},{"trial":5,"action":1,"button_pressed":9,"time_out":false,"dwell_time":96.81591796875,"response_time":1713541030363},{"trial":5,"action":1,"button_pressed":3,"time_out":false,"dwell_time":113.2451171875,"response_time":1713541030912.43},{"trial":5,"action":1,"button_pressed":2,"time_out":false,"dwell_time":48.1220703125,"response_time":1713541031813.04},{"trial":5,"action":9,"button_pressed":-1,"time_out":false,"dwell_time":115.01806640625,"response_time":1713541032462.73},{"trial":6,"action":1,"button_pressed":11,"time_out":false,"dwell_time":113.885009765625,"response_time":1713541044825.01},{"trial":6,"action":1,"button_pressed":0,"time_out":false,"dwell_time":113.532958984375,"response_time":1713541045308.06},{"trial":6,"action":1,"button_pressed":4,"time_out":false,"dwell_time":80.4189453125,"response_time":1713541045741.34},{"trial":6,"action":1,"button_pressed":1,"time_out":false,"dwell_time":97.68017578125,"response_time":1713541046241},{"trial":6,"action":9,"button_pressed":-1,"time_out":false,"dwell_time":81.31005859375,"response_time":1713541046741.7},{"trial":7,"action":1,"button_pressed":11,"time_out":false,"dwell_time":97.343994140625,"response_time":1713541061552.95},{"trial":7,"action":1,"button_pressed":4,"time_out":false,"dwell_time":47.56787109375,"response_time":1713541062053.05},{"trial":7,"action":1,"button_pressed":5,"time_out":false,"dwell_time":64.51318359375,"response_time":1713541062585.66},{"trial":7,"action":1,"button_pressed":3,"time_out":false,"dwell_time":81.26318359375,"response_time":1713541063002.31},{"trial":7,"action":1,"button_pressed":9,"time_out":false,"dwell_time":64.2578125,"response_time":1713541063468.69},{"trial":7,"action":9,"button_pressed":-1,"time_out":false,"dwell_time":63.68603515625,"response_time":1713541064168.23},{"trial":8,"action":1,"button_pressed":11,"time_out":false,"dwell_time":31.053955078125,"response_time":1713541078746.98},{"trial":8,"action":1,"button_pressed":1,"time_out":false,"dwell_time":97.782958984375,"response_time":1713541079296.85},{"trial":8,"action":1,"button_pressed":9,"time_out":false,"dwell_time":63.253173828125,"response_time":1713541079929.88},{"trial":8,"action":1,"button_pressed":7,"time_out":false,"dwell_time":113.7138671875,"response_time":1713541080363.19},{"trial":8,"action":1,"button_pressed":4,"time_out":false,"dwell_time":64.260986328125,"response_time":1713541080812.99},{"trial":8,"action":9,"button_pressed":-1,"time_out":false,"dwell_time":48.091064453125,"response_time":1713541081529.63},{"trial":9,"action":1,"button_pressed":3,"time_out":false,"dwell_time":114.14501953125,"response_time":1713541098906.66},{"trial":9,"action":1,"button_pressed":7,"time_out":false,"dwell_time":164.454833984375,"response_time":1713541100156.75},{"trial":9,"action":1,"button_pressed":10,"time_out":false,"dwell_time":96.951171875,"response_time":1713541101239.61},{"trial":9,"action":1,"button_pressed":2,"time_out":false,"dwell_time":97.09912109375,"response_time":1713541101855.36},{"trial":9,"action":1,"button_pressed":7,"time_out":false,"dwell_time":147.600830078125,"response_time":1713541103072.41},{"trial":9,"action":1,"button_pressed":7,"time_out":false,"dwell_time":112.5810546875,"response_time":1713541104187.95},{"trial":9,"action":1,"button_pressed":5,"time_out":false,"dwell_time":62.56201171875,"response_time":1713541107286.96},{"trial":9,"action":1,"button_pressed":9,"time_out":false,"dwell_time":80.967041015625,"response_time":1713541110070.06},{"trial":9,"action":9,"button_pressed":-1,"time_out":false,"dwell_time":147.760009765625,"response_time":1713541112602.43},{"trial":10,"action":1,"button_pressed":10,"time_out":false,"dwell_time":63.89794921875,"response_time":1713541129962.92},{"trial":10,"action":1,"button_pressed":2,"time_out":false,"dwell_time":114.514892578125,"response_time":1713541130513.42},{"trial":10,"action":1,"button_pressed":9,"time_out":false,"dwell_time":62.52587890625,"response_time":1713541131762.15},{"trial":10,"action":1,"button_pressed":5,"time_out":false,"dwell_time":80.284912109375,"response_time":1713541132429.29},{"trial":10,"action":1,"button_pressed":0,"time_out":false,"dwell_time":62.93603515625,"response_time":1713541132895.13},{"trial":10,"action":1,"button_pressed":11,"time_out":false,"dwell_time":63.19189453125,"response_time":1713541134278.7},{"trial":10,"action":9,"button_pressed":-1,"time_out":false,"dwell_time":16.672119140625,"response_time":1713541136844.33}]}