{"meta_data":{"additional_headers":{},"game_name":"Recollect","version":"2.53.01","user_name":"190","organization":"braingamecenter","study":"mpl2_2022_11","session_number":0,"device_id":"74342D95-EE82-45E3-8ADF-48FB3203C5DD"},"data":[{"stage":"Practice","trial":0,"sequence":"6F","letter_input":"F","number_input":"6","is_correct":true,"presentation_start_time":1713541165916.11,"presentation_end_time":1713541168919.16,"response_time":1713541175349.65},{"stage":"Practice","trial":1,"sequence":"G4","letter_input":"G","number_input":"4","is_correct":true,"presentation_start_time":1713541176879.15,"presentation_end_time":1713541179882.39,"response_time":1713541185459.77},{"stage":"Practice","trial":2,"sequence":"3W5","letter_input":"W","number_input":"35","is_correct":true,"presentation_start_time":1713541186992.44,"presentation_end_time":1713541191495.23,"response_time":1713541198488.85},{"stage":"Practice","trial":3,"sequence":"T7L","letter_input":"LT","number_input":"7","is_correct":true,"presentation_start_time":1713541200021.58,"presentation_end_time":1713541204524.35,"response_time":1713541213233.92},{"stage":"Practice","trial":4,"sequence":"9J1","letter_input":"J","number_input":"19","is_correct":true,"presentation_start_time":1713541214766.73,"presentation_end_time":1713541219269.63,"response_time":1713541223830.51},{"stage":"Calibration","trial":0,"sequence":"A4","letter_input":"A","number_input":"4","is_correct":true,"presentation_start_time":1713541233976.99,"presentation_end_time":1713541236980.33,"response_time":1713541242474.37},{"stage":"Calibration","trial":1,"sequence":"1P","letter_input":"P","number_input":"1","is_correct":true,"presentation_start_time":1713541244007.09,"presentation_end_time":1713541247010.25,"response_time":1713541251104.85},{"stage":"Calibration","trial":2,"sequence":"Q2N","letter_input":"NQ","number_input":"2","is_correct":true,"presentation_start_time":1713541252637.65,"presentation_end_time":1713541257140.3,"response_time":1713541263600.72},{"stage":"Calibration","trial":3,"sequence":"7J5","letter_input":"J","number_input":"57","is_correct":true,"presentation_start_time":1713541265133.49,"presentation_end_time":1713541269636.22,"response_time":1713541274763.71},{"stage":"Calibration","trial":4,"sequence":"P6K2","letter_input":"KP","number_input":"26","is_correct":true,"presentation_start_time":1713541276296.42,"presentation_end_time":1713541282298.81,"response_time":1713541289342.18},{"stage":"Calibration","trial":5,"sequence":"9J3B","letter_input":"BJ","number_input":"39","is_correct":true,"presentation_start_time":1713541290875.03,"presentation_end_time":1713541296877.16,"response_time":1713541303554.24},{"stage":"Calibration","trial":6,"sequence":"S8G4Z","letter_input":"GSZ","number_input":"48","is_correct":true,"presentation_start_time":1713541305086.93,"presentation_end_time":1713541312588.72,"response_time":1713541320748.61},{"stage":"Calibration","trial":7,"sequence":"9N7E1","letter_input":"EIN","number_input":"179","is_correct":false,"presentation_start_time":1713541322281.27,"presentation_end_time":1713541329783.03,"response_time":1713541339092.53},{"stage":"Calibration","trial":8,"sequence":"M3Y8P5","letter_input":"MNPY","number_input":"35","is_correct":false,"presentation_start_time":1713541340625.22,"presentation_end_time":1713541349626.49,"response_time":1713541367366.52},{"stage":"Calibration","trial":9,"sequence":"9F7D2S","letter_input":"DFNS","number_input":"279","is_correct":false,"presentation_start_time":1713541368899.3,"presentation_end_time":1713541377900.59,"response_time":1713541395840.51}]}