{"meta_data":{"additional_headers":{},"game_name":"Recollect","version":"2.53.01","user_name":"19","organization":"braingamecenter","study":"mpl2_2022_11","session_number":0,"device_id":"74342D95-EE82-45E3-8ADF-48FB3203C5DD"},"data":[{"stage":"Practice","trial":0,"sequence":"6F","letter_input":"F","number_input":"6","is_correct":true,"presentation_start_time":1676428315730.83,"presentation_end_time":1676428318731,"response_time":1676428324296.29},{"stage":"Practice","trial":1,"sequence":"G4","letter_input":"G","number_input":"4","is_correct":true,"presentation_start_time":1676428325827.4,"presentation_end_time":1676428328827.6,"response_time":1676428332275.54},{"stage":"Practice","trial":2,"sequence":"3W5","letter_input":"W","number_input":"35","is_correct":true,"presentation_start_time":1676428333808.16,"presentation_end_time":1676428338307.87,"response_time":1676428341722.37},{"stage":"Practice","trial":3,"sequence":"T7L","letter_input":"LT","number_input":"7","is_correct":true,"presentation_start_time":1676428343254.97,"presentation_end_time":1676428347754.74,"response_time":1676428351935.63},{"stage":"Practice","trial":4,"sequence":"9J1","letter_input":"J","number_input":"19","is_correct":true,"presentation_start_time":1676428353468.26,"presentation_end_time":1676428357967.96,"response_time":1676428361482.41},{"stage":"Calibration","trial":0,"sequence":"2N","letter_input":"N","number_input":"2","is_correct":true,"presentation_start_time":1676428366647.21,"presentation_end_time":1676428369647.45,"response_time":1676428373211.8},{"stage":"Calibration","trial":1,"sequence":"K5","letter_input":"K","number_input":"5","is_correct":true,"presentation_start_time":1676428374744.52,"presentation_end_time":1676428377744.71,"response_time":1676428380542.66},{"stage":"Calibration","trial":2,"sequence":"4C1","letter_input":"C","number_input":"14","is_correct":true,"presentation_start_time":1676428382075.42,"presentation_end_time":1676428386575.12,"response_time":1676428390056.22},{"stage":"Calibration","trial":3,"sequence":"T3M","letter_input":"MT","number_input":"3","is_correct":true,"presentation_start_time":1676428391588.9,"presentation_end_time":1676428396088.52,"response_time":1676428403251.75},{"stage":"Calibration","trial":4,"sequence":"8S2B","letter_input":"BS","number_input":"28","is_correct":true,"presentation_start_time":1676428404784.48,"presentation_end_time":1676428410783.71,"response_time":1676428415764.29},{"stage":"Calibration","trial":5,"sequence":"N6G4","letter_input":"GN","number_input":"46","is_correct":true,"presentation_start_time":1676428417296.9,"presentation_end_time":1676428423296.23,"response_time":1676428427043.83},{"stage":"Calibration","trial":6,"sequence":"5Y2E9","letter_input":"EY","number_input":"259","is_correct":true,"presentation_start_time":1676428428576.52,"presentation_end_time":1676428436074.91,"response_time":1676428440522.65},{"stage":"Calibration","trial":7,"sequence":"J6F1N","letter_input":"FJT","number_input":"16","is_correct":false,"presentation_start_time":1676428442055.32,"presentation_end_time":1676428449553.99,"response_time":1676428462548.64},{"stage":"Calibration","trial":8,"sequence":"7E5A2Q","letter_input":"AEQ","number_input":"257","is_correct":true,"presentation_start_time":1676428464081.35,"presentation_end_time":1676428473079.53,"response_time":1676428481742.38},{"stage":"Calibration","trial":9,"sequence":"H4W8K6","letter_input":"HW","number_input":"468","is_correct":false,"presentation_start_time":1676428483274.9,"presentation_end_time":1676428492273.1,"response_time":1676428501119.21},{"stage":"Calibration","trial":10,"sequence":"2C9A7Z5","letter_input":"ACE","number_input":"2579","is_correct":false,"presentation_start_time":1676428502651.76,"presentation_end_time":1676428513149.53,"response_time":1676428525477.66},{"stage":"Calibration","trial":11,"sequence":"R1E8J6G","letter_input":"ERJ","number_input":"268","is_correct":false,"presentation_start_time":1676428527010.36,"presentation_end_time":1676428537508.11,"response_time":1676428542055.37}]}