{"meta_data":{"additional_headers":{},"game_name":"Recollect","version":"2.53.01","user_name":"19","organization":"braingamecenter","study":"mpl2_2022_11","session_number":0,"device_id":"74342D95-EE82-45E3-8ADF-48FB3203C5DD"},"data":[{"trial":0,"action":1,"button_pressed":6,"time_out":false,"dwell_time":31.51416015625,"response_time":1676428047938.1},{"trial":0,"action":1,"button_pressed":10,"time_out":false,"dwell_time":48.217041015625,"response_time":1676428048237.78},{"trial":0,"action":9,"button_pressed":-1,"time_out":false,"dwell_time":58.02783203125,"response_time":1676428048814.87},{"trial":1,"action":1,"button_pressed":6,"time_out":false,"dwell_time":48.337890625,"response_time":1676428058151.36},{"trial":1,"action":1,"button_pressed":5,"time_out":false,"dwell_time":14.409912109375,"response_time":1676428058501.23},{"trial":1,"action":1,"button_pressed":4,"time_out":false,"dwell_time":30.845947265625,"response_time":1676428058900.97},{"trial":1,"action":9,"button_pressed":-1,"time_out":false,"dwell_time":64.762939453125,"response_time":1676428059284.82},{"trial":2,"action":1,"button_pressed":9,"time_out":false,"dwell_time":48.26904296875,"response_time":1676428071197.64},{"trial":2,"action":1,"button_pressed":11,"time_out":false,"dwell_time":48.093017578125,"response_time":1676428071497.53},{"trial":2,"action":1,"button_pressed":8,"time_out":false,"dwell_time":30.72998046875,"response_time":1676428071880},{"trial":2,"action":1,"button_pressed":0,"time_out":false,"dwell_time":48.22607421875,"response_time":1676428072313.8},{"trial":2,"action":9,"button_pressed":-1,"time_out":false,"dwell_time":48.389892578125,"response_time":1676428072630.77},{"trial":3,"action":1,"button_pressed":2,"time_out":false,"dwell_time":47.737060546875,"response_time":1676428086991.77},{"trial":3,"action":1,"button_pressed":6,"time_out":false,"dwell_time":64.139892578125,"response_time":1676428087325.07},{"trial":3,"action":1,"button_pressed":7,"time_out":false,"dwell_time":48.804931640625,"response_time":1676428087625.35},{"trial":3,"action":1,"button_pressed":0,"time_out":false,"dwell_time":47.593994140625,"response_time":1676428087974.65},{"trial":3,"action":1,"button_pressed":8,"time_out":false,"dwell_time":48.152099609375,"response_time":1676428088407.84},{"trial":3,"action":9,"button_pressed":-1,"time_out":false,"dwell_time":31.927978515625,"response_time":1676428089025.33},{"trial":4,"action":1,"button_pressed":7,"time_out":false,"dwell_time":64.965087890625,"response_time":1676428105968.95},{"trial":4,"action":1,"button_pressed":3,"time_out":false,"dwell_time":48.06396484375,"response_time":1676428106335.85},{"trial":4,"action":1,"button_pressed":8,"time_out":false,"dwell_time":47.427978515625,"response_time":1676428106701.72},{"trial":4,"action":1,"button_pressed":0,"time_out":false,"dwell_time":48.219970703125,"response_time":1676428107084.81},{"trial":4,"action":1,"button_pressed":4,"time_out":false,"dwell_time":31.561767578125,"response_time":1676428107352.17},{"trial":4,"action":1,"button_pressed":1,"time_out":false,"dwell_time":31.47509765625,"response_time":1676428107702.01},{"trial":4,"action":9,"button_pressed":-1,"time_out":false,"dwell_time":49.205078125,"response_time":1676428108286.31},{"trial":5,"action":1,"button_pressed":11,"time_out":false,"dwell_time":30.736083984375,"response_time":1676428127894.66},{"trial":5,"action":1,"button_pressed":4,"time_out":false,"dwell_time":64.541015625,"response_time":1676428128360.76},{"trial":5,"action":1,"button_pressed":3,"time_out":false,"dwell_time":47.64306640625,"response_time":1676428128811.1},{"trial":5,"action":1,"button_pressed":10,"time_out":false,"dwell_time":48.85498046875,"response_time":1676428129144.94},{"trial":5,"action":1,"button_pressed":2,"time_out":false,"dwell_time":47.300048828125,"response_time":1676428129544.13},{"trial":5,"action":1,"button_pressed":8,"time_out":false,"dwell_time":48.14111328125,"response_time":1676428129860.72},{"trial":5,"action":1,"button_pressed":1,"time_out":false,"dwell_time":30.958984375,"response_time":1676428130260.6},{"trial":5,"action":9,"button_pressed":-1,"time_out":false,"dwell_time":16.926025390625,"response_time":1676428130826.78},{"trial":6,"action":1,"button_pressed":11,"time_out":false,"dwell_time":64.402099609375,"response_time":1676428152986.56},{"trial":6,"action":1,"button_pressed":4,"time_out":false,"dwell_time":48.41796875,"response_time":1676428153219.78},{"trial":6,"action":1,"button_pressed":7,"time_out":false,"dwell_time":63.7109375,"response_time":1676428153635.7},{"trial":6,"action":1,"button_pressed":2,"time_out":false,"dwell_time":65.033935546875,"response_time":1676428154019.5},{"trial":6,"action":1,"button_pressed":0,"time_out":false,"dwell_time":48.26513671875,"response_time":1676428154852.33},{"trial":6,"action":1,"button_pressed":1,"time_out":false,"dwell_time":64.25390625,"response_time":1676428155235.65},{"trial":6,"action":1,"button_pressed":3,"time_out":false,"dwell_time":64.566162109375,"response_time":1676428155518.35},{"trial":6,"action":1,"button_pressed":9,"time_out":false,"dwell_time":13.8701171875,"response_time":1676428155852.06},{"trial":6,"action":9,"button_pressed":-1,"time_out":false,"dwell_time":48.02490234375,"response_time":1676428157202.15},{"trial":7,"action":1,"button_pressed":11,"time_out":false,"dwell_time":64.532958984375,"response_time":1676428179644.51},{"trial":7,"action":1,"button_pressed":3,"time_out":false,"dwell_time":80.89697265625,"response_time":1676428179927.67},{"trial":7,"action":1,"button_pressed":9,"time_out":false,"dwell_time":63.56005859375,"response_time":1676428182842.66},{"trial":7,"action":1,"button_pressed":7,"time_out":false,"dwell_time":63.7578125,"response_time":1676428183742.52},{"trial":7,"action":1,"button_pressed":4,"time_out":false,"dwell_time":81.69921875,"response_time":1676428184492.85},{"trial":7,"action":1,"button_pressed":10,"time_out":false,"dwell_time":47.885009765625,"response_time":1676428185309.65},{"trial":7,"action":1,"button_pressed":1,"time_out":false,"dwell_time":48.10302734375,"response_time":1676428185842.75},{"trial":7,"action":9,"button_pressed":-1,"time_out":false,"dwell_time":32.632080078125,"response_time":1676428188742.42},{"trial":8,"action":1,"button_pressed":3,"time_out":false,"dwell_time":114.571044921875,"response_time":1676428206985.5},{"trial":8,"action":1,"button_pressed":7,"time_out":false,"dwell_time":113.55908203125,"response_time":1676428207417.81},{"trial":8,"action":1,"button_pressed":4,"time_out":false,"dwell_time":63.7431640625,"response_time":1676428211483.15},{"trial":8,"action":1,"button_pressed":10,"time_out":false,"dwell_time":64.98193359375,"response_time":1676428212583.34},{"trial":8,"action":1,"button_pressed":2,"time_out":false,"dwell_time":48.19091796875,"response_time":1676428213017.02},{"trial":8,"action":1,"button_pressed":9,"time_out":false,"dwell_time":31.400146484375,"response_time":1676428213499.49},{"trial":8,"action":9,"button_pressed":-1,"time_out":false,"dwell_time":32.843017578125,"response_time":1676428214167.34},{"trial":9,"action":1,"button_pressed":9,"time_out":false,"dwell_time":114.256103515625,"response_time":1676428234059.23},{"trial":9,"action":1,"button_pressed":7,"time_out":false,"dwell_time":81.498046875,"response_time":1676428234242.74},{"trial":9,"action":1,"button_pressed":4,"time_out":false,"dwell_time":64.403076171875,"response_time":1676428234692.11},{"trial":9,"action":1,"button_pressed":1,"time_out":false,"dwell_time":64.839111328125,"response_time":1676428235958.92},{"trial":9,"action":1,"button_pressed":11,"time_out":false,"dwell_time":63.595947265625,"response_time":1676428236341.47},{"trial":9,"action":1,"button_pressed":6,"time_out":false,"dwell_time":64.48388671875,"response_time":1676428236758.85},{"trial":9,"action":1,"button_pressed":8,"time_out":false,"dwell_time":31.380126953125,"response_time":1676428237325.66},{"trial":9,"action":9,"button_pressed":-1,"time_out":false,"dwell_time":65.094970703125,"response_time":1676428238175.28},{"trial":10,"action":1,"button_pressed":10,"time_out":false,"dwell_time":80.422119140625,"response_time":1676428261333.56},{"trial":10,"action":1,"button_pressed":2,"time_out":false,"dwell_time":114.29296875,"response_time":1676428261817},{"trial":10,"action":1,"button_pressed":1,"time_out":false,"dwell_time":81.251953125,"response_time":1676428262882.82},{"trial":10,"action":1,"button_pressed":8,"time_out":false,"dwell_time":80.18408203125,"response_time":1676428263532.42},{"trial":10,"action":1,"button_pressed":9,"time_out":false,"dwell_time":64.947021484375,"response_time":1676428264099.62},{"trial":10,"action":1,"button_pressed":11,"time_out":false,"dwell_time":64.721923828125,"response_time":1676428264582.72},{"trial":10,"action":1,"button_pressed":5,"time_out":false,"dwell_time":64.64697265625,"response_time":1676428265598.73},{"trial":10,"action":1,"button_pressed":0,"time_out":false,"dwell_time":64.8759765625,"response_time":1676428265965.71},{"trial":10,"action":9,"button_pressed":-1,"time_out":false,"dwell_time":65.3798828125,"response_time":1676428266465.87},{"trial":11,"action":1,"button_pressed":9,"time_out":false,"dwell_time":63.123046875,"response_time":1676428288874.11},{"trial":11,"action":1,"button_pressed":7,"time_out":false,"dwell_time":97.308837890625,"response_time":1676428289190.58},{"trial":11,"action":1,"button_pressed":10,"time_out":false,"dwell_time":48.1640625,"response_time":1676428289724.14},{"trial":11,"action":1,"button_pressed":4,"time_out":false,"dwell_time":65.002197265625,"response_time":1676428290640.76},{"trial":11,"action":1,"button_pressed":8,"time_out":false,"dwell_time":80.929931640625,"response_time":1676428291007.42},{"trial":11,"action":1,"button_pressed":3,"time_out":false,"dwell_time":63.635986328125,"response_time":1676428291689.81},{"trial":11,"action":1,"button_pressed":5,"time_out":false,"dwell_time":48.39208984375,"response_time":1676428292140.82},{"trial":11,"action":1,"button_pressed":11,"time_out":false,"dwell_time":64.526123046875,"response_time":1676428292456.22},{"trial":11,"action":9,"button_pressed":-1,"time_out":false,"dwell_time":48.465087890625,"response_time":1676428293174.11}]}