{"meta_data":{"additional_headers":{},"game_name":"Recollect","version":"2.53.01","user_name":"20","organization":"braingamecenter","study":"mpl2_2022_11","session_number":0,"device_id":"74342D95-EE82-45E3-8ADF-48FB3203C5DD"},"data":[{"stage":"Practice","trial":0,"sequence":"6F","letter_input":"F","number_input":"6","is_correct":true,"presentation_start_time":1676491555675.51,"presentation_end_time":1676491558675.83,"response_time":1676491566475.25},{"stage":"Practice","trial":1,"sequence":"G4","letter_input":"G","number_input":"4","is_correct":true,"presentation_start_time":1676491568004.83,"presentation_end_time":1676491571005.09,"response_time":1676491577351.85},{"stage":"Practice","trial":2,"sequence":"3W5","letter_input":"W","number_input":"35","is_correct":true,"presentation_start_time":1676491578884.56,"presentation_end_time":1676491583384.41,"response_time":1676491590147.74},{"stage":"Practice","trial":3,"sequence":"T7L","letter_input":"LT","number_input":"7","is_correct":true,"presentation_start_time":1676491591680.39,"presentation_end_time":1676491596180.15,"response_time":1676491601560.58},{"stage":"Practice","trial":4,"sequence":"9J1","letter_input":"J","number_input":"19","is_correct":true,"presentation_start_time":1676491603093.38,"presentation_end_time":1676491607593.13,"response_time":1676491613340.12},{"stage":"Calibration","trial":0,"sequence":"5T","letter_input":"T","number_input":"5","is_correct":true,"presentation_start_time":1676491622220.41,"presentation_end_time":1676491625220.73,"response_time":1676491629634.76},{"stage":"Calibration","trial":1,"sequence":"H7","letter_input":"H","number_input":"7","is_correct":true,"presentation_start_time":1676491631167.48,"presentation_end_time":1676491634167.86,"response_time":1676491637782.09},{"stage":"Calibration","trial":2,"sequence":"8A3","letter_input":"A","number_input":"38","is_correct":true,"presentation_start_time":1676491639314.81,"presentation_end_time":1676491643814.62,"response_time":1676491647912.13},{"stage":"Calibration","trial":3,"sequence":"M5D","letter_input":"DM","number_input":"5","is_correct":true,"presentation_start_time":1676491649444.92,"presentation_end_time":1676491653944.57,"response_time":1676491657775.61},{"stage":"Calibration","trial":4,"sequence":"9W3B","letter_input":"BW","number_input":"39","is_correct":true,"presentation_start_time":1676491659308.27,"presentation_end_time":1676491665307.63,"response_time":1676491671854.32},{"stage":"Calibration","trial":5,"sequence":"Y7R4","letter_input":"RY","number_input":"47","is_correct":true,"presentation_start_time":1676491673387.09,"presentation_end_time":1676491679386.3,"response_time":1676491689848.48},{"stage":"Calibration","trial":6,"sequence":"6J2G8","letter_input":"GJ","number_input":"268","is_correct":true,"presentation_start_time":1676491691381.23,"presentation_end_time":1676491698879.88,"response_time":1676491715889.9},{"stage":"Calibration","trial":7,"sequence":"P4N1L","letter_input":"LNP","number_input":"14","is_correct":true,"presentation_start_time":1676491717422.71,"presentation_end_time":1676491724921.45,"response_time":1676491736716.48},{"stage":"Calibration","trial":8,"sequence":"7Z5F9C","letter_input":"CFZ","number_input":"7","is_correct":false,"presentation_start_time":1676491738249.17,"presentation_end_time":1676491747247.42,"response_time":1676491772838.03},{"stage":"Calibration","trial":9,"sequence":"K3T1N8","letter_input":"KT","number_input":"138","is_correct":false,"presentation_start_time":1676491774370.73,"presentation_end_time":1676491783369.02,"response_time":1676491797596.53}]}