{"meta_data":{"additional_headers":{},"game_name":"Recollect","version":"2.53.01","user_name":"20","organization":"braingamecenter","study":"mpl2_2022_11","session_number":0,"device_id":"74342D95-EE82-45E3-8ADF-48FB3203C5DD"},"data":[{"trial":0,"action":1,"button_pressed":5,"time_out":false,"dwell_time":81.385986328125,"response_time":1676491247577.92},{"trial":0,"action":1,"button_pressed":3,"time_out":false,"dwell_time":81.18701171875,"response_time":1676491248044.27},{"trial":0,"action":9,"button_pressed":-1,"time_out":false,"dwell_time":42.494873046875,"response_time":1676491248538.85},{"trial":1,"action":1,"button_pressed":3,"time_out":false,"dwell_time":82.4990234375,"response_time":1676491260106.53},{"trial":1,"action":1,"button_pressed":9,"time_out":false,"dwell_time":80.989013671875,"response_time":1676491260572.82},{"trial":1,"action":1,"button_pressed":7,"time_out":false,"dwell_time":48.121826171875,"response_time":1676491261073.05},{"trial":1,"action":9,"button_pressed":-1,"time_out":false,"dwell_time":31.994873046875,"response_time":1676491261740.66},{"trial":2,"action":1,"button_pressed":10,"time_out":false,"dwell_time":114.60791015625,"response_time":1676491273818.59},{"trial":2,"action":1,"button_pressed":3,"time_out":false,"dwell_time":131.137939453125,"response_time":1676491274251.74},{"trial":2,"action":1,"button_pressed":6,"time_out":false,"dwell_time":130.881103515625,"response_time":1676491274685.43},{"trial":2,"action":1,"button_pressed":8,"time_out":false,"dwell_time":98.399169921875,"response_time":1676491275018.7},{"trial":2,"action":9,"button_pressed":-1,"time_out":false,"dwell_time":64.89111328125,"response_time":1676491275834.92},{"trial":3,"action":1,"button_pressed":9,"time_out":false,"dwell_time":97.176025390625,"response_time":1676491290246.55},{"trial":3,"action":1,"button_pressed":0,"time_out":false,"dwell_time":114.4580078125,"response_time":1676491290779.58},{"trial":3,"action":1,"button_pressed":2,"time_out":false,"dwell_time":114.526123046875,"response_time":1676491291212.79},{"trial":3,"action":1,"button_pressed":1,"time_out":false,"dwell_time":97.843994140625,"response_time":1676491291779.96},{"trial":3,"action":1,"button_pressed":6,"time_out":false,"dwell_time":98.51611328125,"response_time":1676491292179.88},{"trial":3,"action":9,"button_pressed":-1,"time_out":false,"dwell_time":48.55078125,"response_time":1676491292829.66},{"trial":4,"action":1,"button_pressed":0,"time_out":false,"dwell_time":115.214111328125,"response_time":1676491309990.73},{"trial":4,"action":1,"button_pressed":4,"time_out":false,"dwell_time":63.7919921875,"response_time":1676491310339.91},{"trial":4,"action":1,"button_pressed":11,"time_out":false,"dwell_time":97.0009765625,"response_time":1676491310989.58},{"trial":4,"action":1,"button_pressed":3,"time_out":false,"dwell_time":80.38818359375,"response_time":1676491312822.36},{"trial":4,"action":1,"button_pressed":5,"time_out":false,"dwell_time":63.487060546875,"response_time":1676491313338.82},{"trial":4,"action":1,"button_pressed":7,"time_out":false,"dwell_time":64.279052734375,"response_time":1676491314005.23},{"trial":4,"action":9,"button_pressed":-1,"time_out":false,"dwell_time":49.2490234375,"response_time":1676491314640.13},{"trial":5,"action":1,"button_pressed":4,"time_out":false,"dwell_time":98.676025390625,"response_time":1676491334349.44},{"trial":5,"action":1,"button_pressed":2,"time_out":false,"dwell_time":131.178955078125,"response_time":1676491334899.25},{"trial":5,"action":1,"button_pressed":8,"time_out":false,"dwell_time":214.10498046875,"response_time":1676491336665.13},{"trial":5,"action":1,"button_pressed":1,"time_out":false,"dwell_time":97.791015625,"response_time":1676491337764.24},{"trial":5,"action":1,"button_pressed":9,"time_out":false,"dwell_time":114.302001953125,"response_time":1676491338430.58},{"trial":5,"action":1,"button_pressed":0,"time_out":false,"dwell_time":64.3359375,"response_time":1676491339097.7},{"trial":5,"action":9,"button_pressed":-1,"time_out":false,"dwell_time":48.6328125,"response_time":1676491339631.14},{"trial":6,"action":1,"button_pressed":7,"time_out":false,"dwell_time":131.83984375,"response_time":1676491359407.87},{"trial":6,"action":1,"button_pressed":11,"time_out":false,"dwell_time":114.514892578125,"response_time":1676491359907.03},{"trial":6,"action":1,"button_pressed":0,"time_out":false,"dwell_time":114.844970703125,"response_time":1676491360373.73},{"trial":6,"action":1,"button_pressed":9,"time_out":false,"dwell_time":198.379150390625,"response_time":1676491360857.37},{"trial":6,"action":1,"button_pressed":5,"time_out":false,"dwell_time":114.467041015625,"response_time":1676491361723.03},{"trial":6,"action":1,"button_pressed":3,"time_out":false,"dwell_time":197.134033203125,"response_time":1676491362322.89},{"trial":6,"action":1,"button_pressed":6,"time_out":false,"dwell_time":114.14697265625,"response_time":1676491363006.7},{"trial":6,"action":9,"button_pressed":-1,"time_out":false,"dwell_time":13.864013671875,"response_time":1676491363772.69},{"trial":7,"action":1,"button_pressed":3,"time_out":false,"dwell_time":130.6279296875,"response_time":1676491378650.99},{"trial":7,"action":1,"button_pressed":10,"time_out":false,"dwell_time":97.635009765625,"response_time":1676491379984.38},{"trial":7,"action":1,"button_pressed":8,"time_out":false,"dwell_time":97.589111328125,"response_time":1676491380400.2},{"trial":7,"action":1,"button_pressed":4,"time_out":false,"dwell_time":47.321044921875,"response_time":1676491382883.12},{"trial":7,"action":1,"button_pressed":11,"time_out":false,"dwell_time":47.52294921875,"response_time":1676491383449.72},{"trial":7,"action":9,"button_pressed":-1,"time_out":false,"dwell_time":65.676025390625,"response_time":1676491384850.02},{"trial":8,"action":1,"button_pressed":7,"time_out":false,"dwell_time":81.226806640625,"response_time":1676491399461.05},{"trial":8,"action":1,"button_pressed":4,"time_out":false,"dwell_time":96.994140625,"response_time":1676491399960.66},{"trial":8,"action":1,"button_pressed":11,"time_out":false,"dwell_time":81.68408203125,"response_time":1676491400444.5},{"trial":8,"action":1,"button_pressed":3,"time_out":false,"dwell_time":131.791015625,"response_time":1676491400894.44},{"trial":8,"action":1,"button_pressed":10,"time_out":false,"dwell_time":80.905029296875,"response_time":1676491401244.27},{"trial":8,"action":9,"button_pressed":-1,"time_out":false,"dwell_time":65.305908203125,"response_time":1676491401811.07},{"trial":9,"action":1,"button_pressed":9,"time_out":false,"dwell_time":98.460205078125,"response_time":1676491419588.36},{"trial":9,"action":1,"button_pressed":1,"time_out":false,"dwell_time":48.22021484375,"response_time":1676491419987.94},{"trial":9,"action":1,"button_pressed":0,"time_out":false,"dwell_time":64.361083984375,"response_time":1676491420454.61},{"trial":9,"action":1,"button_pressed":8,"time_out":false,"dwell_time":97.506103515625,"response_time":1676491420954.48},{"trial":9,"action":1,"button_pressed":6,"time_out":false,"dwell_time":64.8759765625,"response_time":1676491421487.65},{"trial":9,"action":1,"button_pressed":6,"time_out":false,"dwell_time":64.177978515625,"response_time":1676491422287.21},{"trial":9,"action":1,"button_pressed":11,"time_out":false,"dwell_time":47.217041015625,"response_time":1676491422870.24},{"trial":9,"action":1,"button_pressed":6,"time_out":false,"dwell_time":31.469970703125,"response_time":1676491423503.31},{"trial":9,"action":0,"button_pressed":-1,"time_out":false,"dwell_time":65.4638671875,"response_time":1676491425869.67},{"trial":9,"action":1,"button_pressed":1,"time_out":false,"dwell_time":65.06494140625,"response_time":1676491426685.77},{"trial":9,"action":1,"button_pressed":8,"time_out":false,"dwell_time":63.702880859375,"response_time":1676491427218.39},{"trial":9,"action":1,"button_pressed":0,"time_out":false,"dwell_time":131.7939453125,"response_time":1676491428851.8},{"trial":9,"action":1,"button_pressed":11,"time_out":false,"dwell_time":80.406005859375,"response_time":1676491429934.07},{"trial":9,"action":1,"button_pressed":6,"time_out":false,"dwell_time":48.131103515625,"response_time":1676491430301.88},{"trial":9,"action":9,"button_pressed":-1,"time_out":false,"dwell_time":64.982177734375,"response_time":1676491431084.2},{"trial":10,"action":1,"button_pressed":4,"time_out":false,"dwell_time":64.5859375,"response_time":1676491448062.26},{"trial":10,"action":1,"button_pressed":11,"time_out":false,"dwell_time":64.910888671875,"response_time":1676491448445.27},{"trial":10,"action":1,"button_pressed":3,"time_out":false,"dwell_time":63.920166015625,"response_time":1676491448795.13},{"trial":10,"action":1,"button_pressed":2,"time_out":false,"dwell_time":64.43212890625,"response_time":1676491449144.4},{"trial":10,"action":1,"button_pressed":10,"time_out":false,"dwell_time":31.43994140625,"response_time":1676491449828.69},{"trial":10,"action":1,"button_pressed":6,"time_out":false,"dwell_time":80.969970703125,"response_time":1676491450194.87},{"trial":10,"action":9,"button_pressed":-1,"time_out":false,"dwell_time":16.825927734375,"response_time":1676491450844.29},{"trial":11,"action":1,"button_pressed":6,"time_out":false,"dwell_time":97.48486328125,"response_time":1676491470354.71},{"trial":11,"action":1,"button_pressed":10,"time_out":false,"dwell_time":114.306884765625,"response_time":1676491470721.39},{"trial":11,"action":1,"button_pressed":11,"time_out":false,"dwell_time":114.23095703125,"response_time":1676491471170.53},{"trial":11,"action":1,"button_pressed":4,"time_out":false,"dwell_time":98.60009765625,"response_time":1676491471721.11},{"trial":11,"action":1,"button_pressed":8,"time_out":false,"dwell_time":131.699951171875,"response_time":1676491472104.31},{"trial":11,"action":1,"button_pressed":3,"time_out":false,"dwell_time":81.19189453125,"response_time":1676491472503.53},{"trial":11,"action":1,"button_pressed":5,"time_out":false,"dwell_time":81.8310546875,"response_time":1676491472903.98},{"trial":11,"action":9,"button_pressed":-1,"time_out":false,"dwell_time":82.259033203125,"response_time":1676491473404.25},{"trial":12,"action":1,"button_pressed":3,"time_out":false,"dwell_time":131.24609375,"response_time":1676491495480.13},{"trial":12,"action":1,"button_pressed":9,"time_out":false,"dwell_time":97.272216796875,"response_time":1676491497812.5},{"trial":12,"action":1,"button_pressed":11,"time_out":false,"dwell_time":114.491943359375,"response_time":1676491498594.99},{"trial":12,"action":1,"button_pressed":7,"time_out":false,"dwell_time":114.31201171875,"response_time":1676491499544.58},{"trial":12,"action":1,"button_pressed":2,"time_out":false,"dwell_time":97.75,"response_time":1676491500828.19},{"trial":12,"action":1,"button_pressed":10,"time_out":false,"dwell_time":113.38720703125,"response_time":1676491501410.73},{"trial":12,"action":1,"button_pressed":1,"time_out":false,"dwell_time":114.087890625,"response_time":1676491501927.83},{"trial":12,"action":9,"button_pressed":-1,"time_out":false,"dwell_time":16.93701171875,"response_time":1676491503476.96},{"trial":13,"action":1,"button_pressed":7,"time_out":false,"dwell_time":81.736083984375,"response_time":1676491525520.23},{"trial":13,"action":1,"button_pressed":4,"time_out":false,"dwell_time":63.833984375,"response_time":1676491526002.72},{"trial":13,"action":1,"button_pressed":5,"time_out":false,"dwell_time":131.87890625,"response_time":1676491526369.91},{"trial":13,"action":1,"button_pressed":1,"time_out":false,"dwell_time":114.543212890625,"response_time":1676491526986.52},{"trial":13,"action":1,"button_pressed":3,"time_out":false,"dwell_time":97.72705078125,"response_time":1676491527352.87},{"trial":13,"action":1,"button_pressed":10,"time_out":false,"dwell_time":98.392822265625,"response_time":1676491527886.04},{"trial":13,"action":1,"button_pressed":8,"time_out":false,"dwell_time":98.385986328125,"response_time":1676491528269.28},{"trial":13,"action":1,"button_pressed":2,"time_out":false,"dwell_time":81.837890625,"response_time":1676491528619.18},{"trial":13,"action":9,"button_pressed":-1,"time_out":false,"dwell_time":83.1162109375,"response_time":1676491528952.9}]}