{"meta_data":{"additional_headers":{},"game_name":"Recollect","version":"2.53.01","user_name":"21","organization":"braingamecenter","study":"mpl2_2022_11","session_number":0,"device_id":"74342D95-EE82-45E3-8ADF-48FB3203C5DD"},"data":[{"stage":"Practice","trial":0,"sequence":"6F","letter_input":"F","number_input":"6","is_correct":true,"presentation_start_time":1676502557681.37,"presentation_end_time":1676502560681.55,"response_time":1676502568862.91},{"stage":"Practice","trial":1,"sequence":"G4","letter_input":"G","number_input":"4","is_correct":true,"presentation_start_time":1676502570393.75,"presentation_end_time":1676502573393.99,"response_time":1676502578074.73},{"stage":"Practice","trial":2,"sequence":"3W5","letter_input":"W","number_input":"35","is_correct":true,"presentation_start_time":1676502579607.38,"presentation_end_time":1676502584107.17,"response_time":1676502589454.22},{"stage":"Practice","trial":3,"sequence":"T7L","letter_input":"LT","number_input":"7","is_correct":true,"presentation_start_time":1676502590986.9,"presentation_end_time":1676502595486.65,"response_time":1676502602133.42},{"stage":"Practice","trial":4,"sequence":"9J1","letter_input":"J","number_input":"19","is_correct":true,"presentation_start_time":1676502603666.08,"presentation_end_time":1676502608165.72,"response_time":1676502612413.33},{"stage":"Calibration","trial":0,"sequence":"4K","letter_input":"K","number_input":"4","is_correct":true,"presentation_start_time":1676502620860.38,"presentation_end_time":1676502623860.59,"response_time":1676502627891.44},{"stage":"Calibration","trial":1,"sequence":"H6","letter_input":"H","number_input":"6","is_correct":true,"presentation_start_time":1676502629424.2,"presentation_end_time":1676502632424.42,"response_time":1676502636288.73},{"stage":"Calibration","trial":2,"sequence":"9G2","letter_input":"G","number_input":"29","is_correct":true,"presentation_start_time":1676502637821.48,"presentation_end_time":1676502642321.22,"response_time":1676502646685.3},{"stage":"Calibration","trial":3,"sequence":"K4A","letter_input":"AK","number_input":"4","is_correct":true,"presentation_start_time":1676502648217.97,"presentation_end_time":1676502652717.68,"response_time":1676502657181.76},{"stage":"Calibration","trial":4,"sequence":"5Z2S","letter_input":"SZ","number_input":"25","is_correct":true,"presentation_start_time":1676502658714.5,"presentation_end_time":1676502664713.69,"response_time":1676502671343.77},{"stage":"Calibration","trial":5,"sequence":"T8N4","letter_input":"NT","number_input":"48","is_correct":true,"presentation_start_time":1676502672876.48,"presentation_end_time":1676502678875.72,"response_time":1676502685655.67},{"stage":"Calibration","trial":6,"sequence":"5S1Q7","letter_input":"QS","number_input":"157","is_correct":true,"presentation_start_time":1676502687188.41,"presentation_end_time":1676502694687.28,"response_time":1676502702866.68},{"stage":"Calibration","trial":7,"sequence":"E6B3W","letter_input":"BEW","number_input":"36","is_correct":true,"presentation_start_time":1676502704399.39,"presentation_end_time":1676502711898.11,"response_time":1676502726575.43},{"stage":"Calibration","trial":8,"sequence":"7G4V2R","letter_input":"GQR","number_input":"247","is_correct":false,"presentation_start_time":1676502728108.21,"presentation_end_time":1676502737106.36,"response_time":1676502751267.28},{"stage":"Calibration","trial":9,"sequence":"S5K1W8","letter_input":"JKSW","number_input":"158","is_correct":false,"presentation_start_time":1676502752800.1,"presentation_end_time":1676502761798.14,"response_time":1676502793453.37}]}