{"meta_data":{"additional_headers":{},"game_name":"Recollect","version":"2.53.01","user_name":"22","organization":"braingamecenter","study":"mpl2_2022_11","session_number":0,"device_id":"74342D95-EE82-45E3-8ADF-48FB3203C5DD"},"data":[{"stage":"Practice","trial":0,"sequence":"6F","letter_input":"F","number_input":"6","is_correct":true,"presentation_start_time":1676516091072.85,"presentation_end_time":1676516094073.09,"response_time":1676516100921.28},{"stage":"Practice","trial":1,"sequence":"G4","letter_input":"G","number_input":"4","is_correct":true,"presentation_start_time":1676516102452.34,"presentation_end_time":1676516105452.62,"response_time":1676516109583.4},{"stage":"Practice","trial":2,"sequence":"3W5","letter_input":"W","number_input":"35","is_correct":true,"presentation_start_time":1676516111116.2,"presentation_end_time":1676516115615.8,"response_time":1676516120563.14},{"stage":"Practice","trial":3,"sequence":"T7L","letter_input":"LT","number_input":"7","is_correct":true,"presentation_start_time":1676516122095.85,"presentation_end_time":1676516126595.62,"response_time":1676516130210.05},{"stage":"Practice","trial":4,"sequence":"9J1","letter_input":"J","number_input":"19","is_correct":true,"presentation_start_time":1676516131742.65,"presentation_end_time":1676516136242.47,"response_time":1676516139890.1},{"stage":"Calibration","trial":0,"sequence":"2Z","letter_input":"Z","number_input":"2","is_correct":true,"presentation_start_time":1676516146754.34,"presentation_end_time":1676516149754.73,"response_time":1676516153868.83},{"stage":"Calibration","trial":1,"sequence":"E5","letter_input":"E","number_input":"5","is_correct":true,"presentation_start_time":1676516155401.56,"presentation_end_time":1676516158401.7,"response_time":1676516162599.31},{"stage":"Calibration","trial":2,"sequence":"9H2","letter_input":"H","number_input":"29","is_correct":true,"presentation_start_time":1676516164131.99,"presentation_end_time":1676516168631.71,"response_time":1676516171779.55},{"stage":"Calibration","trial":3,"sequence":"P5C","letter_input":"CP","number_input":"5","is_correct":true,"presentation_start_time":1676516173312.26,"presentation_end_time":1676516177811.97,"response_time":1676516181193.07},{"stage":"Calibration","trial":4,"sequence":"3S1J","letter_input":"JS","number_input":"13","is_correct":true,"presentation_start_time":1676516182725.85,"presentation_end_time":1676516188725.03,"response_time":1676516193322.45},{"stage":"Calibration","trial":5,"sequence":"E6C2","letter_input":"CE","number_input":"26","is_correct":true,"presentation_start_time":1676516194855.18,"presentation_end_time":1676516200854.34,"response_time":1676516206351.45},{"stage":"Calibration","trial":6,"sequence":"8Q5F3","letter_input":"FQ","number_input":"358","is_correct":true,"presentation_start_time":1676516207884.18,"presentation_end_time":1676516215382.89,"response_time":1676516232959.3},{"stage":"Calibration","trial":7,"sequence":"H9E4Z","letter_input":"EHZ","number_input":"49","is_correct":true,"presentation_start_time":1676516234492.1,"presentation_end_time":1676516241990.78,"response_time":1676516252552.85},{"stage":"Calibration","trial":8,"sequence":"5S3G8V","letter_input":"GSV","number_input":"358","is_correct":true,"presentation_start_time":1676516254085.49,"presentation_end_time":1676516263083.77,"response_time":1676516273245.99},{"stage":"Calibration","trial":9,"sequence":"D7A2Q9","letter_input":"ADQ","number_input":"279","is_correct":true,"presentation_start_time":1676516274778.7,"presentation_end_time":1676516283776.9,"response_time":1676516293472.64},{"stage":"Calibration","trial":10,"sequence":"6S4G8W1","letter_input":"GSW","number_input":"1468","is_correct":true,"presentation_start_time":1676516295005.3,"presentation_end_time":1676516305503.05,"response_time":1676516317581.27},{"stage":"Calibration","trial":11,"sequence":"V7L3F9P","letter_input":"FLPV","number_input":"379","is_correct":true,"presentation_start_time":1676516319114,"presentation_end_time":1676516329611.8,"response_time":1676516339740.63},{"stage":"Calibration","trial":12,"sequence":"8Q6H4W2M","letter_input":"HMQW","number_input":"2468","is_correct":true,"presentation_start_time":1676516341273.32,"presentation_end_time":1676516353270.67,"response_time":1676516364649.14},{"stage":"Calibration","trial":13,"sequence":"K9A5Y3N1","letter_input":"AKNY","number_input":"1359","is_correct":true,"presentation_start_time":1676516366181.77,"presentation_end_time":1676516378178.93,"response_time":1676516391240.33},{"stage":"Calibration","trial":14,"sequence":"2S6J4Z9F8","letter_input":"FJSZ","number_input":"24689","is_correct":true,"presentation_start_time":1676516392773.07,"presentation_end_time":1676516406269.71,"response_time":1676516421013.71},{"stage":"Calibration","trial":15,"sequence":"Q5L3A7Y1E","letter_input":"AELQY","number_input":"1357","is_correct":true,"presentation_start_time":1676516422546.46,"presentation_end_time":1676516436043.21,"response_time":1676516452053.49},{"stage":"Calibration","trial":16,"sequence":"8C2S6J5Z4W","letter_input":"CJSWZ","number_input":"24568","is_correct":true,"presentation_start_time":1676516453586.18,"presentation_end_time":1676516468582.38,"response_time":1676516501403.78},{"stage":"Calibration","trial":17,"sequence":"G3T1E7N9K8","letter_input":"EGKNT","number_input":"35789","is_correct":false,"presentation_start_time":1676516502936.49,"presentation_end_time":1676516517932.66,"response_time":1676516535592.47},{"stage":"Calibration","trial":18,"sequence":"6B4S2M8W3J1","letter_input":"BJMSW","number_input":"123468","is_correct":true,"presentation_start_time":1676516537125.18,"presentation_end_time":1676516553620.92,"response_time":1676516572380.31},{"stage":"Calibration","trial":19,"sequence":"C7Y5E9T4R2A","letter_input":"ACERTY","number_input":"123457","is_correct":false,"presentation_start_time":1676516573912.97,"presentation_end_time":1676516590408.7,"response_time":1676516621997.15},{"stage":"Calibration","trial":20,"sequence":"3K6P1D8S4M9W","letter_input":"DKMPSW","number_input":"1234689","is_correct":false,"presentation_start_time":1676516623529.89,"presentation_end_time":1676516641525.2,"response_time":1676516677562.08},{"stage":"Calibration","trial":21,"sequence":"H2F5A7Q4C6N8","letter_input":"ACFHMQ","number_input":"234568","is_correct":false,"presentation_start_time":1676516679094.76,"presentation_end_time":1676516697090.08,"response_time":1676516728378.65}]}