{"meta_data":{"additional_headers":{},"game_name":"Recollect","version":"2.53.01","user_name":"23","organization":"braingamecenter","study":"mpl2_2022_11","session_number":0,"device_id":"74342D95-EE82-45E3-8ADF-48FB3203C5DD"},"data":[{"stage":"Practice","trial":0,"sequence":"6F","letter_input":"F","number_input":"6","is_correct":true,"presentation_start_time":1676577276325.38,"presentation_end_time":1676577279325.74,"response_time":1676577287125.09},{"stage":"Practice","trial":1,"sequence":"G4","letter_input":"G","number_input":"4","is_correct":true,"presentation_start_time":1676577288654.62,"presentation_end_time":1676577291654.97,"response_time":1676577303083.44},{"stage":"Practice","trial":2,"sequence":"3W5","letter_input":"W","number_input":"35","is_correct":true,"presentation_start_time":1676577304616.17,"presentation_end_time":1676577309115.94,"response_time":1676577318994.83},{"stage":"Practice","trial":3,"sequence":"T7L","letter_input":"LT","number_input":"7","is_correct":true,"presentation_start_time":1676577320527.63,"presentation_end_time":1676577325027.55,"response_time":1676577334523.21},{"stage":"Practice","trial":4,"sequence":"9J1","letter_input":"J","number_input":"19","is_correct":true,"presentation_start_time":1676577336055.91,"presentation_end_time":1676577340555.72,"response_time":1676577349634.88},{"stage":"Calibration","trial":0,"sequence":"W6","letter_input":"W","number_input":"6","is_correct":true,"presentation_start_time":1676577358082.05,"presentation_end_time":1676577361082.25,"response_time":1676577366346.22},{"stage":"Calibration","trial":1,"sequence":"3H","letter_input":"H","number_input":"3","is_correct":true,"presentation_start_time":1676577367878.85,"presentation_end_time":1676577370879.1,"response_time":1676577375193.21},{"stage":"Calibration","trial":2,"sequence":"W2F","letter_input":"FW","number_input":"2","is_correct":true,"presentation_start_time":1676577376725.96,"presentation_end_time":1676577381225.73,"response_time":1676577390504.95},{"stage":"Calibration","trial":3,"sequence":"4N1","letter_input":"N","number_input":"14","is_correct":true,"presentation_start_time":1676577392037.64,"presentation_end_time":1676577396537.41,"response_time":1676577410015.13},{"stage":"Calibration","trial":4,"sequence":"D9B7","letter_input":"BD","number_input":"79","is_correct":true,"presentation_start_time":1676577411547.93,"presentation_end_time":1676577417547.18,"response_time":1676577435056.96},{"stage":"Calibration","trial":5,"sequence":"6L3C","letter_input":"CL","number_input":"36","is_correct":true,"presentation_start_time":1676577436589.75,"presentation_end_time":1676577442589.04,"response_time":1676577461731.65},{"stage":"Calibration","trial":6,"sequence":"Z4F2A","letter_input":"AFZ","number_input":"24","is_correct":true,"presentation_start_time":1676577463264.35,"presentation_end_time":1676577470763.21,"response_time":1676577497903.19},{"stage":"Calibration","trial":7,"sequence":"5P3J8","letter_input":"APZ","number_input":"358","is_correct":false,"presentation_start_time":1676577499435.84,"presentation_end_time":1676577506934.61,"response_time":1676577585674.65},{"stage":"Calibration","trial":8,"sequence":"A7Y4H1","letter_input":"AHY","number_input":"147","is_correct":true,"presentation_start_time":1676577587207.26,"presentation_end_time":1676577596205.53,"response_time":1676577615181.52},{"stage":"Calibration","trial":9,"sequence":"2V9K5F","letter_input":"FKV","number_input":"259","is_correct":true,"presentation_start_time":1676577616714.26,"presentation_end_time":1676577625712.52,"response_time":1676577666048.3},{"stage":"Calibration","trial":10,"sequence":"S4D1L6G","letter_input":"GLNS","number_input":"146","is_correct":false,"presentation_start_time":1676577667581,"presentation_end_time":1676577678078.73,"response_time":1676577764449.45},{"stage":"Calibration","trial":11,"sequence":"8Q3M5W4","letter_input":"QW","number_input":"345","is_correct":false,"presentation_start_time":1676577765982.19,"presentation_end_time":1676577776480.03,"response_time":1676577842057.49}]}