Audio_Only_Files,Video_Files,Original_Word_List,noiseLevelCode,conditionCodes,noiseLevelFile1,noiseLevelFile2,InstrTextVar,practiceTrials.thisRepN,practiceTrials.thisTrialN,practiceTrials.thisN,practiceTrials.thisIndex,trials.thisRepN,trials.thisTrialN,trials.thisN,trials.thisIndex,letsGoAlready.keys,letsGoAlready.rt,letsGoAlready.started,letsGoAlready.stopped,text_2.started,text_2.stopped,text_3.started,text_3.stopped,key_resp_2.keys,key_resp_2.rt,key_resp_2.started,key_resp_2.stopped,text_5.started,text_5.stopped,fixCross.started,fixCross.stopped,fixCross2.started,fixCross2.stopped,answerPrompt.started,answerPrompt.stopped,getAnswer.text,getAnswer.started,getAnswer.stopped,goToNext.keys,goToNext.rt,goToNext.started,goToNext.stopped,stretchBreakTxrt.started,stretchBreakTxrt.stopped,key_resp_3.keys,key_resp_3.rt,key_resp_3.started,key_resp_3.stopped,exitTxt.started,exitTxt.stopped,key_resp.keys,key_resp.rt,key_resp.started,key_resp.stopped,participant,session,date,expName,psychopyVersion,frameRate,
,,,,,,,,,,,,,,,,space,1.9613849889719859,10.18636949500069,None,,,,,,,,,,,,,,,,,,,,,,,,,,,,,,,,,,,,23,001,2023_Feb_16_1322,SpeechDraft1Carolyn_lessNoise,2021.2.3,60.01316114714144,
,,,,,,,,,,,,,,,,,,,,10.18636949500069,None,12.172109739971347,None,space,7.011870677000843,12.351890643010847,None,,,,,,,,,,,,,,,,,,,,,,,,,,,,23,001,2023_Feb_16_1322,SpeechDraft1Carolyn_lessNoise,2021.2.3,60.01316114714144,
ash.wav,ash.mpg,ash,1,A,Pink_Noise_1_1.wav,Pink_Noise_1_2.wav,"This is an example of an

AUDIO trial",0,0,0,0,,,,,,,,,,,,,,,,,19.418307009036653,None,20.40195039997343,None,23.57024253497366,None,24.951868640026078,None,ash,24.951868640026078,None,return,3.6085235530044883,25.035221020923927,None,,,,,,,,,,,,,23,001,2023_Feb_16_1322,SpeechDraft1Carolyn_lessNoise,2021.2.3,60.01316114714144,
ash.wav,ash.mpg,ash,1,AV,Pink_Noise_1_1.wav,Pink_Noise_1_2.wav,"This is an example of an

AUDIO + VIDEO  trial",0,1,1,1,,,,,,,,,,,,,,,,,28.684956701938063,None,29.685274419025518,None,31.168447877978906,None,32.5519722920144,None,ash,32.5519722920144,None,return,2.7205131279770285,32.63523158302996,None,,,,,,,,,,,,,23,001,2023_Feb_16_1322,SpeechDraft1Carolyn_lessNoise,2021.2.3,60.01316114714144,
,,,,,,,,,,,,,,,,,,,,,,,,,,,,,,,,,,,,,,,,,,,35.418426338001154,None,space,6.105733735952526,35.602035754942335,None,,,,,,,23,001,2023_Feb_16_1322,SpeechDraft1Carolyn_lessNoise,2021.2.3,60.01316114714144,
flex.wav,flex.mpg,flex,4,AV,Pink_Noise_4_1.wav,Pink_Noise_4_2.wav,,,,,,0,0,0,119,,,,,,,,,,,,,,,41.768367465934716,None,43.251663369941525,None,44.63524181593675,None,reflect,44.63524181593675,None,return,8.445154568064027,44.71860344999004,None,,,,,,,,,,,,,23,001,2023_Feb_16_1322,SpeechDraft1Carolyn_lessNoise,2021.2.3,60.01316114714144,
blast.wav,blast.mpg,blast,6,A,Pink_Noise_6_1.wav,Pink_Noise_6_2.wav,,,,,,0,1,1,43,,,,,,,,,,,,,,,53.18519472703338,None,54.68516076100059,None,56.06865521194413,None,"hash
",56.06865521194413,None,return,9.851705387001857,56.152049188967794,None,,,,,,,,,,,,,23,001,2023_Feb_16_1322,SpeechDraft1Carolyn_lessNoise,2021.2.3,60.01316114714144,
thief.wav,thief.mpg,thief,2,AV,Pink_Noise_2_1.wav,Pink_Noise_2_2.wav,,,,,,0,2,2,116,,,,,,,,,,,,,,,66.03534397098701,None,67.53502326901071,None,68.91858068900183,None,thief,68.91858068900183,None,return,1.8899294519796968,69.00195954798255,None,,,,,,,,,,,,,23,001,2023_Feb_16_1322,SpeechDraft1Carolyn_lessNoise,2021.2.3,60.01316114714144,
clap.wav,clap.mpg,clap,1,A,Pink_Noise_1_1.wav,Pink_Noise_1_2.wav,,,,,,0,3,3,2,,,,,,,,,,,,,,,70.91865597397555,None,72.41845439502504,None,73.80204001697712,None,clap,73.80204001697712,None,return,0.8466604789718986,73.88528010400478,None,,,,,,,,,,,,,23,001,2023_Feb_16_1322,SpeechDraft1Carolyn_lessNoise,2021.2.3,60.01316114714144,
edge.wav,edge.mpg,edge,6,A,Pink_Noise_6_1.wav,Pink_Noise_6_2.wav,,,,,,0,4,4,34,,,,,,,,,,,,,,,74.75196443498135,None,76.25174956396222,None,77.63532415195368,None,edge,77.63532415195368,None,return,3.1570863709785044,77.71873920201324,None,,,,,,,,,,,,,23,001,2023_Feb_16_1322,SpeechDraft1Carolyn_lessNoise,2021.2.3,60.01316114714144,
due.wav,due.mpg,due,3,AV,Pink_Noise_3_1.wav,Pink_Noise_3_2.wav,,,,,,0,5,5,92,,,,,,,,,,,,,,,80.90213719103485,None,82.38546447292902,None,83.76861936494242,None,"do
",83.76861936494242,None,return,0.9357356670079753,83.85200627800077,None,,,,,,,,,,,,,23,001,2023_Feb_16_1322,SpeechDraft1Carolyn_lessNoise,2021.2.3,60.01316114714144,
cloud.wav,cloud.mpg,cloud,3,AV,Pink_Noise_3_1.wav,Pink_Noise_3_2.wav,,,,,,0,6,6,67,,,,,,,,,,,,,,,84.81868144194596,None,86.31850431195926,None,87.70189461903647,None,cloud,87.70189461903647,None,return,0.9704523199470714,87.78530469001271,None,,,,,,,,,,,,,23,001,2023_Feb_16_1322,SpeechDraft1Carolyn_lessNoise,2021.2.3,60.01316114714144,
client.wav,client.mpg,client,1,AV,Pink_Noise_1_1.wav,Pink_Noise_1_2.wav,,,,,,0,7,7,60,,,,,,,,,,,,,,,88.78535668901168,None,90.27067757502664,None,91.6519426649902,None,client,91.6519426649902,None,return,1.444367346004583,91.73538447695319,None,,,,,,,,,,,,,23,001,2023_Feb_16_1322,SpeechDraft1Carolyn_lessNoise,2021.2.3,60.01316114714144,
calm.wav,calm.mpg,calm,6,A,Pink_Noise_6_1.wav,Pink_Noise_6_2.wav,,,,,,0,8,8,55,,,,,,,,,,,,,,,93.2020265199244,None,94.68531226599589,None,96.06874922302086,None,hall,96.06874922302086,None,return,5.171807524049655,96.15201498102397,None,,,,,,,,,,,,,23,001,2023_Feb_16_1322,SpeechDraft1Carolyn_lessNoise,2021.2.3,60.01316114714144,
book.wav,book.mpg,book,6,AV,Pink_Noise_6_1.wav,Pink_Noise_6_2.wav,,,,,,0,9,9,74,,,,,,,,,,,,,,,101.35207186895423,None,102.83521462394856,None,104.2186839459464,None,book,104.2186839459464,None,return,1.813694132026285,104.30212992592715,None,,,,,,,,,,,,,23,001,2023_Feb_16_1322,SpeechDraft1Carolyn_lessNoise,2021.2.3,60.01316114714144,
deed.wav,deed.mpg,deed,3,A,Pink_Noise_3_1.wav,Pink_Noise_3_2.wav,,,,,,0,10,10,45,,,,,,,,,,,,,,,106.13540126895532,None,107.61855647701304,None,109.00203321303707,None,thief,109.00203321303707,None,return,4.766440373961814,109.08538915892132,None,,,,,,,,,,,,,23,001,2023_Feb_16_1322,SpeechDraft1Carolyn_lessNoise,2021.2.3,60.01316114714144,
lost.wav,lost.mpg,lost,4,A,Pink_Noise_4_1.wav,Pink_Noise_4_2.wav,,,,,,0,11,11,4,,,,,,,,,,,,,,,113.86875585501548,None,115.35185921902303,None,116.73541685892269,None,lost,116.73541685892269,None,return,1.2971211490221322,116.81872355600353,None,,,,,,,,,,,,,23,001,2023_Feb_16_1322,SpeechDraft1Carolyn_lessNoise,2021.2.3,60.01316114714144,
cab.wav,cab.mpg,cab,3,AV,Pink_Noise_3_1.wav,Pink_Noise_3_2.wav,,,,,,0,12,12,114,,,,,,,,,,,,,,,118.13540384103544,None,119.61858073703479,None,121.00212960795034,None,"cab
",121.00212960795034,None,return,1.1023454410023987,121.08540935500059,None,,,,,,,,,,,,,23,001,2023_Feb_16_1322,SpeechDraft1Carolyn_lessNoise,2021.2.3,60.01316114714144,
bill.wav,bill.mpg,bill,2,AV,Pink_Noise_2_1.wav,Pink_Noise_2_2.wav,,,,,,0,13,13,106,,,,,,,,,,,,,,,122.21877618494909,None,123.7018493260257,None,125.08539120503701,None,"bill
",125.08539120503701,None,return,1.0510975330835208,125.16865775396582,None,,,,,,,,,,,,,23,001,2023_Feb_16_1322,SpeechDraft1Carolyn_lessNoise,2021.2.3,60.01316114714144,
quart.wav,quart.mpg,quart,2,A,Pink_Noise_2_1.wav,Pink_Noise_2_2.wav,,,,,,0,14,14,44,,,,,,,,,,,,,,,126.25204589997884,None,127.7351814849535,None,129.1187560899416,None,"quart
",129.1187560899416,None,return,1.7856625990243629,129.2020976030035,None,,,,,,,,,,,,,23,001,2023_Feb_16_1322,SpeechDraft1Carolyn_lessNoise,2021.2.3,60.01316114714144,
snake.wav,snake.mpg,snake,4,A,Pink_Noise_4_1.wav,Pink_Noise_4_2.wav,,,,,,0,15,15,0,,,,,,,,,,,,,,,131.01878590893466,None,132.50195679801982,None,133.88544067100156,None,"snake
",133.88544067100156,None,return,3.2509229419520125,133.96882921701763,None,,,,,,,,,,,,,23,001,2023_Feb_16_1322,SpeechDraft1Carolyn_lessNoise,2021.2.3,60.01316114714144,
fable.wav,fable.mpg,fable,1,A,Pink_Noise_1_1.wav,Pink_Noise_1_2.wav,,,,,,0,16,16,3,,,,,,,,,,,,,,,137.25211409502663,None,138.7352508379845,None,140.1187688569771,None,fable,140.1187688569771,None,return,0.9617007919587195,140.20202128903475,None,,,,,,,,,,,,,23,001,2023_Feb_16_1322,SpeechDraft1Carolyn_lessNoise,2021.2.3,60.01316114714144,
roar.wav,roar.mpg,roar,5,AV,Pink_Noise_5_1.wav,Pink_Noise_5_2.wav,,,,,,0,17,17,85,,,,,,,,,,,,,,,141.1854609149741,None,142.68532667902764,None,144.06881389394403,None,"roll
",144.06881389394403,None,return,2.883622730965726,144.15213116200175,None,,,,,,,,,,,,,23,001,2023_Feb_16_1322,SpeechDraft1Carolyn_lessNoise,2021.2.3,60.01316114714144,
bell.wav,bell.mpg,bell,2,A,Pink_Noise_2_1.wav,Pink_Noise_2_2.wav,,,,,,0,18,18,46,,,,,,,,,,,,,,,147.06884282792453,None,148.56872754800133,None,149.95211479696445,None,bell,149.95211479696445,None,return,1.1123786359094083,150.0353942719521,None,,,,,,,,,,,,,23,001,2023_Feb_16_1322,SpeechDraft1Carolyn_lessNoise,2021.2.3,60.01316114714144,
gush.wav,gush.mpg,gush,6,A,Pink_Noise_6_1.wav,Pink_Noise_6_2.wav,,,,,,0,19,19,20,,,,,,,,,,,,,,,151.16886308195535,None,152.65184787497856,None,154.03547043702565,None,gush,154.03547043702565,None,return,4.75706957699731,154.11879151395988,None,,,,,,,,,,,,,23,001,2023_Feb_16_1322,SpeechDraft1Carolyn_lessNoise,2021.2.3,60.01316114714144,
bat.wav,bat.mpg,bat,5,AV,Pink_Noise_5_1.wav,Pink_Noise_5_2.wav,,,,,,0,20,20,118,,,,,,,,,,,,,,,158.90210928500164,None,160.38523316092324,None,161.76871621096507,None,"bat
",161.76871621096507,None,return,0.7195331599796191,161.85222022701055,None,,,,,,,,,,,,,23,001,2023_Feb_16_1322,SpeechDraft1Carolyn_lessNoise,2021.2.3,60.01316114714144,
forth.wav,forth.mpg,forth,3,A,Pink_Noise_3_1.wav,Pink_Noise_3_2.wav,,,,,,0,21,21,25,,,,,,,,,,,,,,,162.6020989579847,None,164.10199756897055,None,165.48536966601387,None,"fort
",165.48536966601387,None,return,2.0509941880591214,165.56876055093016,None,,,,,,,,,,,,,23,001,2023_Feb_16_1322,SpeechDraft1Carolyn_lessNoise,2021.2.3,60.01316114714144,
barge.wav,barge.mpg,barge,5,A,Pink_Noise_5_1.wav,Pink_Noise_5_2.wav,,,,,,0,22,22,38,,,,,,,,,,,,,,,167.6520669219317,None,169.15195494599175,None,170.5188320199959,None,"large
",170.5188320199959,None,return,1.6176654660375789,170.60209229099564,None,,,,,,,,,,,,,23,001,2023_Feb_16_1322,SpeechDraft1Carolyn_lessNoise,2021.2.3,60.01316114714144,
crash.wav,crash.mpg,crash,1,A,Pink_Noise_1_1.wav,Pink_Noise_1_2.wav,,,,,,0,23,23,30,,,,,,,,,,,,,,,172.25206884602085,None,173.7354568359442,None,175.1188047080068,None,crash,175.1188047080068,None,return,2.7455702390288934,175.20219167892355,None,,,,,,,,,,,,,23,001,2023_Feb_16_1322,SpeechDraft1Carolyn_lessNoise,2021.2.3,60.01316114714144,
chase.wav,chase.mpg,chase,3,AV,Pink_Noise_3_1.wav,Pink_Noise_3_2.wav,,,,,,0,24,24,75,,,,,,,,,,,,,,,177.96883476502262,None,179.45318717695773,None,180.8354686619714,None,chase,180.8354686619714,None,return,0.7890963529935107,180.9187773859594,None,,,,,,,,,,,,,23,001,2023_Feb_16_1322,SpeechDraft1Carolyn_lessNoise,2021.2.3,60.01316114714144,
tart.wav,tart.mpg,tart,1,AV,Pink_Noise_1_1.wav,Pink_Noise_1_2.wav,,,,,,0,25,25,69,,,,,,,,,,,,,,,181.73553275503218,None,183.22059459995944,None,184.6020712800091,None,tarte,184.6020712800091,None,return,2.246377628063783,184.6854212989565,None,,,,,,,,,,,,,23,001,2023_Feb_16_1322,SpeechDraft1Carolyn_lessNoise,2021.2.3,60.01316114714144,
gap.wav,gap.mpg,gap,5,AV,Pink_Noise_5_1.wav,Pink_Noise_5_2.wav,,,,,,0,26,26,68,,,,,,,,,,,,,,,186.95213775499724,None,188.43701440293808,None,189.81876327900682,None,gap,189.81876327900682,None,return,1.0935866399668157,189.902155197924,None,,,,,,,,,,,,,23,001,2023_Feb_16_1322,SpeechDraft1Carolyn_lessNoise,2021.2.3,60.01316114714144,
creep.wav,creep.mpg,creep,6,AV,Pink_Noise_6_1.wav,Pink_Noise_6_2.wav,,,,,,0,27,27,78,,,,,,,,,,,,,,,191.0188544759294,None,192.51876919495407,None,193.90212662692647,None,"dream
",193.90212662692647,None,return,1.8340308630140498,193.98572417302057,None,,,,,,,,,,,,,23,001,2023_Feb_16_1322,SpeechDraft1Carolyn_lessNoise,2021.2.3,60.01316114714144,
crop.wav,crop.mpg,crop,3,AV,Pink_Noise_3_1.wav,Pink_Noise_3_2.wav,,,,,,0,28,28,87,,,,,,,,,,,,,,,195.85214943101164,None,197.35198224894702,None,198.7354253019439,None,crumb,198.7354253019439,None,return,1.2489489269210026,198.81891313393135,None,,,,,,,,,,,,,23,001,2023_Feb_16_1322,SpeechDraft1Carolyn_lessNoise,2021.2.3,60.01316114714144,
bail.wav,bail.mpg,bail,6,A,Pink_Noise_6_1.wav,Pink_Noise_6_2.wav,,,,,,0,29,29,10,,,,,,,,,,,,,,,200.08551516092848,None,201.58520673494786,None,202.95228441199288,None,"an
",202.95228441199288,None,return,7.0002422229154035,203.0355226569809,None,,,,,,,,,,,,,23,001,2023_Feb_16_1322,SpeechDraft1Carolyn_lessNoise,2021.2.3,60.01316114714144,
duet.wav,duet.mpg,duet,2,AV,Pink_Noise_2_1.wav,Pink_Noise_2_2.wav,,,,,,0,30,30,62,,,,,,,,,,,,,,,210.06886146694887,None,211.56865854898933,None,212.95213404495735,None,duet,212.95213404495735,None,return,0.8164113370003179,213.0354528769385,None,,,,,,,,,,,,,23,001,2023_Feb_16_1322,SpeechDraft1Carolyn_lessNoise,2021.2.3,60.01316114714144,
game.wav,game.mpg,game,5,A,Pink_Noise_5_1.wav,Pink_Noise_5_2.wav,,,,,,0,31,31,18,,,,,,,,,,,,,,,213.8689057859592,None,215.35373834194615,None,216.7355307909893,None,gay,216.7355307909893,None,return,1.864961871993728,216.81884491699748,None,,,,,,,,,,,,,23,001,2023_Feb_16_1322,SpeechDraft1Carolyn_lessNoise,2021.2.3,60.01316114714144,
curb.wav,curb.mpg,curb,1,A,Pink_Noise_1_1.wav,Pink_Noise_1_2.wav,,,,,,0,32,32,8,,,,,,,,,,,,,,,218.70226129202638,None,220.20191298192367,None,221.56895155494567,None,curb,221.56895155494567,None,return,0.7915403370279819,221.65220397501253,None,,,,,,,,,,,,,23,001,2023_Feb_16_1322,SpeechDraft1Carolyn_lessNoise,2021.2.3,60.01316114714144,
cape.wav,cape.mpg,cape,4,AV,Pink_Noise_4_1.wav,Pink_Noise_4_2.wav,,,,,,0,33,33,107,,,,,,,,,,,,,,,222.4688535919413,None,223.96882083301898,None,225.3522415800253,None,cape,225.3522415800253,None,return,0.6803155830129981,225.4355117479572,None,,,,,,,,,,,,,23,001,2023_Feb_16_1322,SpeechDraft1Carolyn_lessNoise,2021.2.3,60.01316114714144,
flank.wav,flank.mpg,flank,5,AV,Pink_Noise_5_1.wav,Pink_Noise_5_2.wav,,,,,,0,34,34,72,,,,,,,,,,,,,,,226.13570306403562,None,227.6351515399292,None,229.01886559498962,None,flank,229.01886559498962,None,return,1.06151254393626,229.10224091995042,None,,,,,,,,,,,,,23,001,2023_Feb_16_1322,SpeechDraft1Carolyn_lessNoise,2021.2.3,60.01316114714144,
blade.wav,blade.mpg,blade,3,A,Pink_Noise_3_1.wav,Pink_Noise_3_2.wav,,,,,,0,35,35,28,,,,,,,,,,,,,,,230.18557148100808,None,231.68545534892473,None,233.06890700792428,None,blade,233.06890700792428,None,return,1.3076502399053425,233.1522602000041,None,,,,,,,,,,,,,23,001,2023_Feb_16_1322,SpeechDraft1Carolyn_lessNoise,2021.2.3,60.01316114714144,
egg.wav,egg.mpg,egg,1,A,Pink_Noise_1_1.wav,Pink_Noise_1_2.wav,,,,,,0,36,36,21,,,,,,,,,,,,,,,234.48564821400214,None,235.98548349295743,None,237.36891186598223,None,egg,237.36891186598223,None,return,0.6875356439268216,237.45222654298414,None,,,,,,,,,,,,,23,001,2023_Feb_16_1322,SpeechDraft1Carolyn_lessNoise,2021.2.3,60.01316114714144,
cloth.wav,cloth.mpg,cloth,5,A,Pink_Noise_5_1.wav,Pink_Noise_5_2.wav,,,,,,0,37,37,54,,,,,,,,,,,,,,,238.1688855770044,None,239.6526519060135,None,241.03554597392213,None,crumb,241.03554597392213,None,return,1.7248550310032442,241.1189404129982,None,,,,,,,,,,,,,23,001,2023_Feb_16_1322,SpeechDraft1Carolyn_lessNoise,2021.2.3,60.01316114714144,
fifth.wav,fifth.mpg,fifth,6,AV,Pink_Noise_6_1.wav,Pink_Noise_6_2.wav,,,,,,0,38,38,98,,,,,,,,,,,,,,,242.8689714659704,None,244.35376980202273,None,245.73546872392762,None,filth,245.73546872392762,None,return,1.5928685140097514,245.81886641297024,None,,,,,,,,,,,,,23,001,2023_Feb_16_1322,SpeechDraft1Carolyn_lessNoise,2021.2.3,60.01316114714144,
boat.wav,boat.mpg,boat,2,AV,Pink_Noise_2_1.wav,Pink_Noise_2_2.wav,,,,,,0,39,39,88,,,,,,,,,,,,,,,247.43554580002092,None,248.92102429294027,None,250.30219879292417,None,boat,250.30219879292417,None,return,0.9541644749697298,250.3855882670032,None,,,,,,,,,,,,,23,001,2023_Feb_16_1322,SpeechDraft1Carolyn_lessNoise,2021.2.3,60.01316114714144,
grab.wav,grab.mpg,grab,6,AV,Pink_Noise_6_1.wav,Pink_Noise_6_2.wav,,,,,,0,40,40,104,,,,,,,,,,,,,,,251.36896761192475,None,252.86873265192844,None,254.25219023495447,None,crab,254.25219023495447,None,return,2.0600633280118927,254.33568779192865,None,,,,,,,,,,,,,23,001,2023_Feb_16_1322,SpeechDraft1Carolyn_lessNoise,2021.2.3,60.01316114714144,
crawl.wav,crawl.mpg,crawl,6,AV,Pink_Noise_6_1.wav,Pink_Noise_6_2.wav,,,,,,0,41,41,71,,,,,,,,,,,,,,,256.418862008024,None,257.90368763299193,None,259.2855745929992,None,growl,259.2855745929992,None,return,10.090706047951244,259.3691620710306,None,,,,,,,,,,,,,23,001,2023_Feb_16_1322,SpeechDraft1Carolyn_lessNoise,2021.2.3,60.01316114714144,
cube.wav,cube.mpg,cube,3,A,Pink_Noise_3_1.wav,Pink_Noise_3_2.wav,,,,,,0,42,42,35,,,,,,,,,,,,,,,269.4856638950296,None,270.9685853079427,None,272.35226757999044,None,cube,272.35226757999044,None,return,1.6563616949133575,272.43555001099594,None,,,,,,,,,,,,,23,001,2023_Feb_16_1322,SpeechDraft1Carolyn_lessNoise,2021.2.3,60.01316114714144,
chart.wav,chart.mpg,chart,3,A,Pink_Noise_3_1.wav,Pink_Noise_3_2.wav,,,,,,0,43,43,15,,,,,,,,,,,,,,,274.1189707600279,None,275.61867499595974,None,277.00222781300545,None,chart,277.00222781300545,None,return,0.7901303980033845,277.0857138730353,None,,,,,,,,,,,,,23,001,2023_Feb_16_1322,SpeechDraft1Carolyn_lessNoise,2021.2.3,60.01316114714144,
budge.wav,budge.mpg,budge,3,A,Pink_Noise_3_1.wav,Pink_Noise_3_2.wav,,,,,,0,44,44,33,,,,,,,,,,,,,,,277.9023245749995,None,279.385826430982,None,280.76907961897086,None,"budge
",280.76907961897086,None,return,1.1515580749837682,280.85222351399716,None,,,,,,,,,,,,,23,001,2023_Feb_16_1322,SpeechDraft1Carolyn_lessNoise,2021.2.3,60.01316114714144,
broom.wav,broom.mpg,broom,3,AV,Pink_Noise_3_1.wav,Pink_Noise_3_2.wav,,,,,,0,45,45,84,,,,,,,,,,,,,,,282.0355912989471,None,283.5204760800116,None,284.9021401539212,None,broom,284.9021401539212,None,return,1.3940956010483205,284.9856505530188,None,,,,,,,,,,,,,23,001,2023_Feb_16_1322,SpeechDraft1Carolyn_lessNoise,2021.2.3,60.01316114714144,
film.wav,film.mpg,film,4,AV,Pink_Noise_4_1.wav,Pink_Noise_4_2.wav,,,,,,0,46,46,115,,,,,,,,,,,,,,,286.40242708392907,None,287.902110261959,None,289.2855310139712,None,film,289.2855310139712,None,return,2.354856198071502,289.36900510801934,None,,,,,,,,,,,,,23,001,2023_Feb_16_1322,SpeechDraft1Carolyn_lessNoise,2021.2.3,60.01316114714144,
brash.wav,brash.mpg,brash,2,AV,Pink_Noise_2_1.wav,Pink_Noise_2_2.wav,,,,,,0,47,47,83,,,,,,,,,,,,,,,291.7522938270122,None,293.25196529296227,None,294.6188874989748,None,brash,294.6188874989748,None,return,3.0614409709814936,294.7023056090111,None,,,,,,,,,,,,,23,001,2023_Feb_16_1322,SpeechDraft1Carolyn_lessNoise,2021.2.3,60.01316114714144,
clutch.wav,clutch.mpg,clutch,1,A,Pink_Noise_1_1.wav,Pink_Noise_1_2.wav,,,,,,0,48,48,57,,,,,,,,,,,,,,,297.7857333390275,None,299.2853103169473,None,300.6524011869915,None,"clutch
",300.6524011869915,None,return,1.284220522036776,300.7355265750084,None,,,,,,,,,,,,,23,001,2023_Feb_16_1322,SpeechDraft1Carolyn_lessNoise,2021.2.3,60.01316114714144,
fruit.wav,fruit.mpg,fruit,1,A,Pink_Noise_1_1.wav,Pink_Noise_1_2.wav,,,,,,0,49,49,29,,,,,,,,,,,,,,,302.05235006602015,None,303.5524867880158,None,304.9190076770028,None,fruit,304.9190076770028,None,return,0.977449037018232,305.0022712260252,None,,,,,,,,,,,,,23,001,2023_Feb_16_1322,SpeechDraft1Carolyn_lessNoise,2021.2.3,60.01316114714144,
hug.wav,hug.mpg,hug,1,A,Pink_Noise_1_1.wav,Pink_Noise_1_2.wav,,,,,,0,50,50,13,,,,,,,,,,,,,,,306.00236022192985,None,307.4857093419414,None,308.86905524495523,None,"hug
",308.86905524495523,None,return,0.4673917799955234,308.95235344802495,None,,,,,,,,,,,,,23,001,2023_Feb_16_1322,SpeechDraft1Carolyn_lessNoise,2021.2.3,60.01316114714144,
carve.wav,carve.mpg,carve,1,A,Pink_Noise_1_1.wav,Pink_Noise_1_2.wav,,,,,,0,51,51,7,,,,,,,,,,,,,,,309.4522355640074,None,310.95222619199194,None,312.33579565794207,None,"carve
",312.33579565794207,None,return,0.7846993980929255,312.419055826962,None,,,,,,,,,,,,,23,001,2023_Feb_16_1322,SpeechDraft1Carolyn_lessNoise,2021.2.3,60.01316114714144,
deal.wav,deal.mpg,deal,1,AV,Pink_Noise_1_1.wav,Pink_Noise_1_2.wav,,,,,,0,52,52,96,,,,,,,,,,,,,,,313.2357066209661,None,314.71906659402885,None,316.1023030669894,None,deal,316.1023030669894,None,return,0.7460499560693279,316.1857283479767,None,,,,,,,,,,,,,23,001,2023_Feb_16_1322,SpeechDraft1Carolyn_lessNoise,2021.2.3,60.01316114714144,
flat.wav,flat.mpg,flat,6,A,Pink_Noise_6_1.wav,Pink_Noise_6_2.wav,,,,,,0,53,53,36,,,,,,,,,,,,,,,316.9525704960106,None,318.43686072097626,None,319.8190854289569,None,pledge,319.8190854289569,None,return,3.2454376600217074,319.9023149550194,None,,,,,,,,,,,,,23,001,2023_Feb_16_1322,SpeechDraft1Carolyn_lessNoise,2021.2.3,60.01316114714144,
cow.wav,cow.mpg,cow,5,A,Pink_Noise_5_1.wav,Pink_Noise_5_2.wav,,,,,,0,54,54,12,,,,,,,,,,,,,,,323.1690792320296,None,324.6688322050031,None,326.0524514199933,None,cloud,326.0524514199933,None,return,1.0920689629856497,326.1357281600358,None,,,,,,,,,,,,,23,001,2023_Feb_16_1322,SpeechDraft1Carolyn_lessNoise,2021.2.3,60.01316114714144,
stain.wav,stain.mpg,stain,5,A,Pink_Noise_5_1.wav,Pink_Noise_5_2.wav,,,,,,0,55,55,5,,,,,,,,,,,,,,,327.25241399894,None,328.75205686094705,None,330.11913351295516,None,stand,330.11913351295516,None,return,2.0895211760653183,330.2023828999372,None,,,,,,,,,,,,,23,001,2023_Feb_16_1322,SpeechDraft1Carolyn_lessNoise,2021.2.3,60.01316114714144,
stone.wav,stone.mpg,stone,1,AV,Pink_Noise_1_1.wav,Pink_Noise_1_2.wav,,,,,,0,56,56,95,,,,,,,,,,,,,,,332.3190235600341,None,333.81885303603485,None,335.20233056892175,None,"stone
",335.20233056892175,None,return,1.7020043489756063,335.28573103493545,None,,,,,,,,,,,,,23,001,2023_Feb_16_1322,SpeechDraft1Carolyn_lessNoise,2021.2.3,60.01316114714144,
slush.wav,slush.mpg,slush,6,A,Pink_Noise_6_1.wav,Pink_Noise_6_2.wav,,,,,,0,57,57,17,,,,,,,,,,,,,,,337.01907020795625,None,338.5036282510264,None,339.8857257189229,None,slush,339.8857257189229,None,return,1.0828794030239806,339.9689351179404,None,,,,,,,,,,,,,23,001,2023_Feb_16_1322,SpeechDraft1Carolyn_lessNoise,2021.2.3,60.01316114714144,
bow.wav,bow.mpg,bow,3,A,Pink_Noise_3_1.wav,Pink_Noise_3_2.wav,,,,,,0,58,58,59,,,,,,,,,,,,,,,341.0692833479261,None,342.56891825201456,None,343.93581738800276,None,fowl,343.93581738800276,None,return,1.1607368249678984,344.0190061000176,None,,,,,,,,,,,,,23,001,2023_Feb_16_1322,SpeechDraft1Carolyn_lessNoise,2021.2.3,60.01316114714144,
clash.wav,clash.mpg,clash,6,AV,Pink_Noise_6_1.wav,Pink_Noise_6_2.wav,,,,,,0,59,59,103,,,,,,,,,,,,,,,345.2023293359671,None,346.7022712059552,None,348.0857180400053,None,lash,348.0857180400053,None,return,1.1628235910320655,348.1689774399856,None,,,,,,,,,,,,,23,001,2023_Feb_16_1322,SpeechDraft1Carolyn_lessNoise,2021.2.3,60.01316114714144,
burn.wav,burn.mpg,burn,1,A,Pink_Noise_1_1.wav,Pink_Noise_1_2.wav,,,,,,0,60,60,26,,,,,,,,,,,,,,,349.35236132796854,None,350.8522863769904,None,352.23576132394373,None,burn,352.23576132394373,None,return,2.5967963370494545,352.31907247693744,None,,,,,,,,,,,,,23,001,2023_Feb_16_1322,SpeechDraft1Carolyn_lessNoise,2021.2.3,60.01316114714144,
chip.wav,chip.mpg,chip,1,AV,Pink_Noise_1_1.wav,Pink_Noise_1_2.wav,,,,,,0,61,61,101,,,,,,,,,,,,,,,354.9357416370185,None,356.43546424794476,None,357.81903317396063,None,chip,357.81903317396063,None,return,0.9813033980317414,357.9024669090286,None,,,,,,,,,,,,,23,001,2023_Feb_16_1322,SpeechDraft1Carolyn_lessNoise,2021.2.3,60.01316114714144,
fill.wav,fill.mpg,fill,5,A,Pink_Noise_5_1.wav,Pink_Noise_5_2.wav,,,,,,0,62,62,31,,,,,,,,,,,,,,,358.9023399449652,None,360.40235778002534,None,361.78579519398045,None,fill,361.78579519398045,None,return,1.590730300056748,361.8690681270091,None,,,,,,,,,,,,,23,001,2023_Feb_16_1322,SpeechDraft1Carolyn_lessNoise,2021.2.3,60.01316114714144,
stuck.wav,stuck.mpg,stuck,3,A,Pink_Noise_3_1.wav,Pink_Noise_3_2.wav,,,,,,0,63,63,42,,,,,,,,,,,,,,,363.48571710300166,None,364.98546402400825,None,366.35254535393324,None,"stuck
",366.35254535393324,None,return,1.736002508085221,366.435752145946,None,,,,,,,,,,,,,23,001,2023_Feb_16_1322,SpeechDraft1Carolyn_lessNoise,2021.2.3,60.01316114714144,
truce.wav,truce.mpg,truce,2,A,Pink_Noise_2_1.wav,Pink_Noise_2_2.wav,,,,,,0,64,64,40,,,,,,,,,,,,,,,368.20242289698217,None,369.70223920198623,None,371.06928721501026,None,truce,371.06928721501026,None,return,0.8590461800340563,371.1526850099908,None,,,,,,,,,,,,,23,001,2023_Feb_16_1322,SpeechDraft1Carolyn_lessNoise,2021.2.3,60.01316114714144,
blot.wav,blot.mpg,blot,4,A,Pink_Noise_4_1.wav,Pink_Noise_4_2.wav,,,,,,0,65,65,49,,,,,,,,,,,,,,,372.0357619749848,None,373.52050508593675,None,374.9023756419774,None,blot,374.9023756419774,None,return,1.4741579430410638,374.98575087997597,None,,,,,,,,,,,,,23,001,2023_Feb_16_1322,SpeechDraft1Carolyn_lessNoise,2021.2.3,60.01316114714144,
grown.wav,grown.mpg,grown,6,AV,Pink_Noise_6_1.wav,Pink_Noise_6_2.wav,,,,,,0,66,66,113,,,,,,,,,,,,,,,376.48582022695336,None,377.9855614529224,None,379.35235729499254,None,grow,379.35235729499254,None,return,1.1278456180589274,379.4358995530056,None,,,,,,,,,,,,,23,001,2023_Feb_16_1322,SpeechDraft1Carolyn_lessNoise,2021.2.3,60.01316114714144,
dope.wav,dope.mpg,dope,2,AV,Pink_Noise_2_1.wav,Pink_Noise_2_2.wav,,,,,,0,67,67,90,,,,,,,,,,,,,,,380.5857214250136,None,382.08566651598085,None,383.46904383494984,None,dope,383.46904383494984,None,return,0.6993460899684578,383.5524906499777,None,,,,,,,,,,,,,23,001,2023_Feb_16_1322,SpeechDraft1Carolyn_lessNoise,2021.2.3,60.01316114714144,
buff.wav,buff.mpg,buff,6,AV,Pink_Noise_6_1.wav,Pink_Noise_6_2.wav,,,,,,0,68,68,64,,,,,,,,,,,,,,,384.2690449699294,None,385.7545690269908,None,387.1358653969364,None,buff,387.1358653969364,None,return,0.9286480100126937,387.21912403893657,None,,,,,,,,,,,,,23,001,2023_Feb_16_1322,SpeechDraft1Carolyn_lessNoise,2021.2.3,60.01316114714144,
cane.wav,cane.mpg,cane,4,A,Pink_Noise_4_1.wav,Pink_Noise_4_2.wav,,,,,,0,69,69,11,,,,,,,,,,,,,,,388.1691003149608,None,389.66887153103016,None,391.0357753470307,None,cave,391.0357753470307,None,return,1.8445939540397376,391.11914196098223,None,,,,,,,,,,,,,23,001,2023_Feb_16_1322,SpeechDraft1Carolyn_lessNoise,2021.2.3,60.01316114714144,
glass.wav,glass.mpg,glass,1,AV,Pink_Noise_1_1.wav,Pink_Noise_1_2.wav,,,,,,0,70,70,99,,,,,,,,,,,,,,,392.98574063403066,None,394.4856184240198,None,395.8523519770242,None,glass,395.8523519770242,None,return,3.0438853909727186,395.9358640370192,None,,,,,,,,,,,,,23,001,2023_Feb_16_1322,SpeechDraft1Carolyn_lessNoise,2021.2.3,60.01316114714144,
cuff.wav,cuff.mpg,cuff,1,AV,Pink_Noise_1_1.wav,Pink_Noise_1_2.wav,,,,,,0,71,71,89,,,,,,,,,,,,,,,399.0026055449853,None,400.50218820094597,None,401.8857233909657,None,cuff,401.8857233909657,None,return,0.9385842680931091,401.9692902090028,None,,,,,,,,,,,,,23,001,2023_Feb_16_1322,SpeechDraft1Carolyn_lessNoise,2021.2.3,60.01316114714144,
warmth.wav,warmth.mpg,warmth,6,AV,Pink_Noise_6_1.wav,Pink_Noise_6_2.wav,,,,,,0,72,72,79,,,,,,,,,,,,,,,402.9358467570273,None,404.4202025149716,None,405.8024584889645,None,warmth,405.8024584889645,None,return,0.8939669110113755,405.88581495394465,None,,,,,,,,,,,,,23,001,2023_Feb_16_1322,SpeechDraft1Carolyn_lessNoise,2021.2.3,60.01316114714144,
buzz.wav,buzz.mpg,buzz,4,A,Pink_Noise_4_1.wav,Pink_Noise_4_2.wav,,,,,,0,73,73,56,,,,,,,,,,,,,,,406.8024298819946,None,408.3024142800132,None,409.68589129601605,None,buzz,409.68589129601605,None,return,0.6908203740604222,409.7690783429425,None,,,,,,,,,,,,,23,001,2023_Feb_16_1322,SpeechDraft1Carolyn_lessNoise,2021.2.3,60.01316114714144,
frail.wav,frail.mpg,frail,6,A,Pink_Noise_6_1.wav,Pink_Noise_6_2.wav,,,,,,0,74,74,53,,,,,,,,,,,,,,,410.48583277792204,None,411.9855900389375,None,413.3691184089985,None,for,413.3691184089985,None,return,2.6234407499432564,413.45241266698577,None,,,,,,,,,,,,,23,001,2023_Feb_16_1322,SpeechDraft1Carolyn_lessNoise,2021.2.3,60.01316114714144,
cart.wav,cart.mpg,cart,4,AV,Pink_Noise_4_1.wav,Pink_Noise_4_2.wav,,,,,,0,75,75,111,,,,,,,,,,,,,,,416.10247366596013,None,417.60228193202056,None,418.96919103199616,None,cart,418.96919103199616,None,return,0.6714045570697635,419.05237304698676,None,,,,,,,,,,,,,23,001,2023_Feb_16_1322,SpeechDraft1Carolyn_lessNoise,2021.2.3,60.01316114714144,
fuel.wav,fuel.mpg,fuel,3,AV,Pink_Noise_3_1.wav,Pink_Noise_3_2.wav,,,,,,0,76,76,105,,,,,,,,,,,,,,,419.75241698592436,None,421.2524493460078,None,422.61913353099953,None,fuel,422.61913353099953,None,return,1.8771278009517118,422.70261497597676,None,,,,,,,,,,,,,23,001,2023_Feb_16_1322,SpeechDraft1Carolyn_lessNoise,2021.2.3,60.01316114714144,
boost.wav,boost.mpg,boost,5,A,Pink_Noise_5_1.wav,Pink_Noise_5_2.wav,,,,,,0,77,77,58,,,,,,,,,,,,,,,424.60254932101816,None,426.10216648096684,None,427.4857848499669,None,lose,427.4857848499669,None,return,6.7226304720388725,427.56914864992723,None,,,,,,,,,,,,,23,001,2023_Feb_16_1322,SpeechDraft1Carolyn_lessNoise,2021.2.3,60.01316114714144,
clue.wav,clue.mpg,clue,4,A,Pink_Noise_4_1.wav,Pink_Noise_4_2.wav,,,,,,0,78,78,16,,,,,,,,,,,,,,,434.3194222319871,None,435.81898482493125,None,437.20259879203513,None,clue,437.20259879203513,None,return,0.7741006900323555,437.2857827419648,None,,,,,,,,,,,,,23,001,2023_Feb_16_1322,SpeechDraft1Carolyn_lessNoise,2021.2.3,60.01316114714144,
beef.wav,beef.mpg,beef,4,A,Pink_Noise_4_1.wav,Pink_Noise_4_2.wav,,,,,,0,79,79,6,,,,,,,,,,,,,,,438.0859029139392,None,439.58565013995394,None,440.96955751802307,None,thief,440.96955751802307,None,return,1.1832394689554349,441.0526131449733,None,,,,,,,,,,,,,23,001,2023_Feb_16_1322,SpeechDraft1Carolyn_lessNoise,2021.2.3,60.01316114714144,
bring.wav,bring.mpg,bring,4,AV,Pink_Noise_4_1.wav,Pink_Noise_4_2.wav,,,,,,0,80,80,73,,,,,,,,,,,,,,,442.2525289990008,None,443.75223480397835,None,445.1191483939765,None,brim,445.1191483939765,None,return,4.721280114958063,445.202574681025,None,,,,,,,,,,,,,23,001,2023_Feb_16_1322,SpeechDraft1Carolyn_lessNoise,2021.2.3,60.01316114714144,
slick.wav,slick.mpg,slick,6,A,Pink_Noise_6_1.wav,Pink_Noise_6_2.wav,,,,,,0,81,81,9,,,,,,,,,,,,,,,449.95255403092597,None,451.4522918679286,None,452.83584005595185,None,thief,452.83584005595185,None,return,9.292617877945304,452.91914441098925,None,,,,,,,,,,,,,23,001,2023_Feb_16_1322,SpeechDraft1Carolyn_lessNoise,2021.2.3,60.01316114714144,
built.wav,built.mpg,built,2,A,Pink_Noise_2_1.wav,Pink_Noise_2_2.wav,,,,,,0,82,82,24,,,,,,,,,,,,,,,462.2358106030151,None,463.7207471699221,None,465.1026018569246,None,built,465.1026018569246,None,return,0.9300248509971425,465.18582229095045,None,,,,,,,,,,,,,23,001,2023_Feb_16_1322,SpeechDraft1Carolyn_lessNoise,2021.2.3,60.01316114714144,
drop.wav,drop.mpg,drop,1,AV,Pink_Noise_1_1.wav,Pink_Noise_1_2.wav,,,,,,0,83,83,80,,,,,,,,,,,,,,,466.13595394894946,None,467.63567894801963,None,469.01913136499934,None,drop,469.01913136499934,None,return,0.5652859550900757,469.1025972949574,None,,,,,,,,,,,,,23,001,2023_Feb_16_1322,SpeechDraft1Carolyn_lessNoise,2021.2.3,60.01316114714144,
awe.wav,awe.mpg,awe,1,AV,Pink_Noise_1_1.wav,Pink_Noise_1_2.wav,,,,,,0,84,84,110,,,,,,,,,,,,,,,469.6859588929219,None,471.18580154899973,None,472.5691990710329,None,awe,472.5691990710329,None,return,1.4153699059970677,472.6525053229416,None,,,,,,,,,,,,,23,001,2023_Feb_16_1322,SpeechDraft1Carolyn_lessNoise,2021.2.3,60.01316114714144,
dwell.wav,dwell.mpg,dwell,5,AV,Pink_Noise_5_1.wav,Pink_Noise_5_2.wav,,,,,,0,85,85,76,,,,,,,,,,,,,,,474.0858887869399,None,475.5858783599688,None,476.9691545269452,None,"dwell
",476.9691545269452,None,return,1.91919823596254,477.05255283100996,None,,,,,,,,,,,,,23,001,2023_Feb_16_1322,SpeechDraft1Carolyn_lessNoise,2021.2.3,60.01316114714144,
stove.wav,stove.mpg,stove,3,AV,Pink_Noise_3_1.wav,Pink_Noise_3_2.wav,,,,,,0,86,86,65,,,,,,,,,,,,,,,479.00259161996655,None,480.51907253602985,None,481.9024600679986,None,stove,481.9024600679986,None,return,0.8741671049501747,481.98574671696406,None,,,,,,,,,,,,,23,001,2023_Feb_16_1322,SpeechDraft1Carolyn_lessNoise,2021.2.3,60.01316114714144,
glue.wav,glue.mpg,glue,4,AV,Pink_Noise_4_1.wav,Pink_Noise_4_2.wav,,,,,,0,87,87,117,,,,,,,,,,,,,,,482.8859119199915,None,484.385826510028,None,485.7691572200274,None,glue,485.7691572200274,None,return,1.0712786869844422,485.85255505598616,None,,,,,,,,,,,,,23,001,2023_Feb_16_1322,SpeechDraft1Carolyn_lessNoise,2021.2.3,60.01316114714144,
fix.wav,fix.mpg,fix,2,AV,Pink_Noise_2_1.wav,Pink_Noise_2_2.wav,,,,,,0,88,88,77,,,,,,,,,,,,,,,486.9526253580116,None,488.4525385949528,None,489.8358643410029,None,fix,489.8358643410029,None,return,0.6765329800546169,489.9192268960178,None,,,,,,,,,,,,,23,001,2023_Feb_16_1322,SpeechDraft1Carolyn_lessNoise,2021.2.3,60.01316114714144,
bait.wav,bait.mpg,bait,4,AV,Pink_Noise_4_1.wav,Pink_Noise_4_2.wav,,,,,,0,89,89,70,,,,,,,,,,,,,,,490.6193609399488,None,492.1357916239649,None,493.51929556799587,None,bait,493.51929556799587,None,return,0.736972738057375,493.60276128794067,None,,,,,,,,,,,,,23,001,2023_Feb_16_1322,SpeechDraft1Carolyn_lessNoise,2021.2.3,60.01316114714144,
fun.wav,fun.mpg,fun,2,A,Pink_Noise_2_1.wav,Pink_Noise_2_2.wav,,,,,,0,90,90,14,,,,,,,,,,,,,,,494.3692463990301,None,495.86900057597086,None,497.2526201939909,None,fun,497.2526201939909,None,return,2.363685628050007,497.3361515039578,None,,,,,,,,,,,,,23,001,2023_Feb_16_1322,SpeechDraft1Carolyn_lessNoise,2021.2.3,60.01316114714144,
code.wav,code.mpg,code,4,A,Pink_Noise_4_1.wav,Pink_Noise_4_2.wav,,,,,,0,91,91,48,,,,,,,,,,,,,,,499.7192368080141,None,501.21909644594416,None,502.602611748036,None,"cone
",502.602611748036,None,return,1.3017547680065036,502.6859915489331,None,,,,,,,,,,,,,23,001,2023_Feb_16_1322,SpeechDraft1Carolyn_lessNoise,2021.2.3,60.01316114714144,
groom.wav,groom.mpg,groom,4,AV,Pink_Noise_4_1.wav,Pink_Noise_4_2.wav,,,,,,0,92,92,97,,,,,,,,,,,,,,,504.0191670230124,None,505.51896468701307,None,506.902545970981,None,groom,506.902545970981,None,return,0.8739667199552059,506.98590355401393,None,,,,,,,,,,,,,23,001,2023_Feb_16_1322,SpeechDraft1Carolyn_lessNoise,2021.2.3,60.01316114714144,
smack.wav,smack.mpg,smack,4,AV,Pink_Noise_4_1.wav,Pink_Noise_4_2.wav,,,,,,0,93,93,93,,,,,,,,,,,,,,,507.8859357429901,None,509.387778564007,None,510.76935086003505,None,"smack
",510.76935086003505,None,return,0.7671505489852279,510.8525950110052,None,,,,,,,,,,,,,23,001,2023_Feb_16_1322,SpeechDraft1Carolyn_lessNoise,2021.2.3,60.01316114714144,
chill.wav,chill.mpg,chill,2,AV,Pink_Noise_2_1.wav,Pink_Noise_2_2.wav,,,,,,0,94,94,109,,,,,,,,,,,,,,,511.65268708893564,None,513.1525309929857,None,514.5358372930204,None,chill,514.5358372930204,None,return,1.192400873056613,514.6193347770022,None,,,,,,,,,,,,,23,001,2023_Feb_16_1322,SpeechDraft1Carolyn_lessNoise,2021.2.3,60.01316114714144,
barn.wav,barn.mpg,barn,3,A,Pink_Noise_3_1.wav,Pink_Noise_3_2.wav,,,,,,0,95,95,47,,,,,,,,,,,,,,,515.8359344189521,None,517.3357209849637,None,518.7193269599229,None,"fire
",518.7193269599229,None,return,1.7850440110778436,518.8027173359878,None,,,,,,,,,,,,,23,001,2023_Feb_16_1322,SpeechDraft1Carolyn_lessNoise,2021.2.3,60.01316114714144,
fierce.wav,fierce.mpg,fierce,5,AV,Pink_Noise_5_1.wav,Pink_Noise_5_2.wav,,,,,,0,96,96,81,,,,,,,,,,,,,,,520.6192474269774,None,522.1356503689894,None,523.5192785640247,None,fierce,523.5192785640247,None,return,4.441120155039243,523.602689221967,None,,,,,,,,,,,,,23,001,2023_Feb_16_1322,SpeechDraft1Carolyn_lessNoise,2021.2.3,60.01316114714144,
thorn.wav,thorn.mpg,thorn,3,A,Pink_Noise_3_1.wav,Pink_Noise_3_2.wav,,,,,,0,97,97,19,,,,,,,,,,,,,,,528.0693896260345,None,529.5690629580058,None,530.9526848539244,None,door,530.9526848539244,None,return,0.9918636709917337,531.0359707829775,None,,,,,,,,,,,,,23,001,2023_Feb_16_1322,SpeechDraft1Carolyn_lessNoise,2021.2.3,60.01316114714144,
grind.wav,grind.mpg,grind,4,A,Pink_Noise_4_1.wav,Pink_Noise_4_2.wav,,,,,,0,98,98,1,,,,,,,,,,,,,,,532.0527251779567,None,533.5523981589358,None,534.9360809799982,None,grind,534.9360809799982,None,return,2.464442905038595,535.0193156809546,None,,,,,,,,,,,,,23,001,2023_Feb_16_1322,SpeechDraft1Carolyn_lessNoise,2021.2.3,60.01316114714144,
please.wav,please.mpg,please,4,A,Pink_Noise_4_1.wav,Pink_Noise_4_2.wav,,,,,,0,99,99,52,,,,,,,,,,,,,,,537.5026613569353,None,539.0190401920117,None,540.3859686109936,None,base,540.3859686109936,None,return,1.3424144459422678,540.4693356439238,None,,,,,,,,,,,,,23,001,2023_Feb_16_1322,SpeechDraft1Carolyn_lessNoise,2021.2.3,60.01316114714144,
blue.wav,blue.mpg,blue,5,AV,Pink_Noise_5_1.wav,Pink_Noise_5_2.wav,,,,,,0,100,100,94,,,,,,,,,,,,,,,541.8359222300351,None,543.3359568900196,None,544.7192839969648,None,bloom,544.7192839969648,None,return,1.4250229729805142,544.8027192179579,None,,,,,,,,,,,,,23,001,2023_Feb_16_1322,SpeechDraft1Carolyn_lessNoise,2021.2.3,60.01316114714144,
golf.wav,golf.mpg,golf,4,AV,Pink_Noise_4_1.wav,Pink_Noise_4_2.wav,,,,,,0,101,101,100,,,,,,,,,,,,,,,546.2528117239708,None,547.7375338069396,None,549.1193298529834,None,gol,549.1193298529834,None,return,0.6810000719269738,549.2027715699514,None,,,,,,,,,,,,,23,001,2023_Feb_16_1322,SpeechDraft1Carolyn_lessNoise,2021.2.3,60.01316114714144,
mars.wav,mars.mpg,mars,2,A,Pink_Noise_2_1.wav,Pink_Noise_2_2.wav,,,,,,0,102,102,32,,,,,,,,,,,,,,,549.9026258470258,None,551.4024637800176,None,552.769340949948,None,mars,552.769340949948,None,return,1.6152032080572098,552.8526622919599,None,,,,,,,,,,,,,23,001,2023_Feb_16_1322,SpeechDraft1Carolyn_lessNoise,2021.2.3,60.01316114714144,
beer.wav,beer.mpg,beer,2,A,Pink_Noise_2_1.wav,Pink_Noise_2_2.wav,,,,,,0,103,103,41,,,,,,,,,,,,,,,554.4859629980056,None,555.9858308179537,None,557.369308350957,None,beer,557.369308350957,None,return,0.9110403390368447,557.4527204550104,None,,,,,,,,,,,,,23,001,2023_Feb_16_1322,SpeechDraft1Carolyn_lessNoise,2021.2.3,60.01316114714144,
dove.wav,dove.mpg,dove,5,A,Pink_Noise_5_1.wav,Pink_Noise_5_2.wav,,,,,,0,104,104,51,,,,,,,,,,,,,,,558.3859811889706,None,559.8859422740061,None,561.2692422289401,None,duck,561.2692422289401,None,return,0.9790990770561621,561.352691996959,None,,,,,,,,,,,,,23,001,2023_Feb_16_1322,SpeechDraft1Carolyn_lessNoise,2021.2.3,60.01316114714144,
gang.wav,gang.mpg,gang,6,A,Pink_Noise_6_1.wav,Pink_Noise_6_2.wav,,,,,,0,105,105,27,,,,,,,,,,,,,,,562.3526714929612,None,563.8693561949767,None,565.2526790970005,None,gan,565.2526790970005,None,return,11.739760318072513,565.3361009459477,None,,,,,,,,,,,,,23,001,2023_Feb_16_1322,SpeechDraft1Carolyn_lessNoise,2021.2.3,60.01316114714144,
bar.wav,bar.mpg,bar,5,A,Pink_Noise_5_1.wav,Pink_Noise_5_2.wav,,,,,,0,106,106,37,,,,,,,,,,,,,,,577.1026881119469,None,578.6193474519532,None,579.9861970660277,None,bar,579.9861970660277,None,return,0.49428961507510394,580.0694625410251,None,,,,,,,,,,,,,23,001,2023_Feb_16_1322,SpeechDraft1Carolyn_lessNoise,2021.2.3,60.01316114714144,
fail.wav,fail.mpg,fail,5,AV,Pink_Noise_5_1.wav,Pink_Noise_5_2.wav,,,,,,0,107,107,66,,,,,,,,,,,,,,,580.5860418280354,None,582.0857917739777,None,583.469341089949,None,"fai;
",583.469341089949,None,return,1.0670748099219054,583.5526894680224,None,,,,,,,,,,,,,23,001,2023_Feb_16_1322,SpeechDraft1Carolyn_lessNoise,2021.2.3,60.01316114714144,
fame.wav,fame.mpg,fame,5,AV,Pink_Noise_5_1.wav,Pink_Noise_5_2.wav,,,,,,0,108,108,82,,,,,,,,,,,,,,,584.6526692250045,None,586.1525596820284,None,587.5360839469358,None,fame,587.5360839469358,None,return,1.0804388310061768,587.6193979509408,None,,,,,,,,,,,,,23,001,2023_Feb_16_1322,SpeechDraft1Carolyn_lessNoise,2021.2.3,60.01316114714144,
bomb.wav,bomb.mpg,bomb,5,AV,Pink_Noise_5_1.wav,Pink_Noise_5_2.wav,,,,,,0,109,109,102,,,,,,,,,,,,,,,588.7194139190251,None,590.2191400219453,None,591.6026399369584,None,bomb,591.6026399369584,None,return,1.6615312549984083,591.6862196750008,None,,,,,,,,,,,,,23,001,2023_Feb_16_1322,SpeechDraft1Carolyn_lessNoise,2021.2.3,60.01316114714144,
dead.wav,dead.mpg,dead,2,A,Pink_Noise_2_1.wav,Pink_Noise_2_2.wav,,,,,,0,110,110,50,,,,,,,,,,,,,,,593.3858037010068,None,594.9025356289931,None,596.2860747909872,None,"dead
",596.2860747909872,None,return,2.802337475004606,596.3694233929273,None,,,,,,,,,,,,,23,001,2023_Feb_16_1322,SpeechDraft1Carolyn_lessNoise,2021.2.3,60.01316114714144,
grape.wav,grape.mpg,grape,2,A,Pink_Noise_2_1.wav,Pink_Noise_2_2.wav,,,,,,0,111,111,39,,,,,,,,,,,,,,,599.2027525010053,None,600.7026907729451,None,602.0860455019865,None,grape,602.0860455019865,None,return,1.8583961150143296,602.1693555469392,None,,,,,,,,,,,,,23,001,2023_Feb_16_1322,SpeechDraft1Carolyn_lessNoise,2021.2.3,60.01316114714144,
earn.wav,earn.mpg,earn,3,AV,Pink_Noise_3_1.wav,Pink_Noise_3_2.wav,,,,,,0,112,112,63,,,,,,,,,,,,,,,604.0527302420232,None,605.5692307120189,None,606.9527357210172,None,earn,606.9527357210172,None,return,3.575675676926039,607.0360828399425,None,,,,,,,,,,,,,23,001,2023_Feb_16_1322,SpeechDraft1Carolyn_lessNoise,2021.2.3,60.01316114714144,
brief.wav,brief.mpg,brief,5,A,Pink_Noise_5_1.wav,Pink_Noise_5_2.wav,,,,,,0,113,113,22,,,,,,,,,,,,,,,610.6361036329763,None,612.135951863951,None,613.5194065039977,None,free,613.5194065039977,None,return,1.6809337289305404,613.6028427359415,None,,,,,,,,,,,,,23,001,2023_Feb_16_1322,SpeechDraft1Carolyn_lessNoise,2021.2.3,60.01316114714144,
faint.wav,faint.mpg,faint,2,AV,Pink_Noise_2_1.wav,Pink_Noise_2_2.wav,,,,,,0,114,114,112,,,,,,,,,,,,,,,615.3027296009241,None,616.8192016580142,None,618.202797233942,None,faint,618.202797233942,None,return,0.9497227540705353,618.2860944869462,None,,,,,,,,,,,,,23,001,2023_Feb_16_1322,SpeechDraft1Carolyn_lessNoise,2021.2.3,60.01316114714144,
drum.wav,drum.mpg,drum,6,AV,Pink_Noise_6_1.wav,Pink_Noise_6_2.wav,,,,,,0,115,115,61,,,,,,,,,,,,,,,619.2526954229688,None,620.7706459779292,None,622.152781791985,None,drum,622.152781791985,None,return,2.4396625560475513,622.2361489329487,None,,,,,,,,,,,,,23,001,2023_Feb_16_1322,SpeechDraft1Carolyn_lessNoise,2021.2.3,60.01316114714144,
bare.wav,bare.mpg,bare,1,AV,Pink_Noise_1_1.wav,Pink_Noise_1_2.wav,,,,,,0,116,116,86,,,,,,,,,,,,,,,624.7027475929353,None,626.219190009986,None,627.6027662589913,None,bear,627.6027662589913,None,return,0.9415630550356582,627.686175587005,None,,,,,,,,,,,,,23,001,2023_Feb_16_1322,SpeechDraft1Carolyn_lessNoise,2021.2.3,60.01316114714144,
foot.wav,foot.mpg,foot,2,A,Pink_Noise_2_1.wav,Pink_Noise_2_2.wav,,,,,,0,117,117,23,,,,,,,,,,,,,,,628.6527643819572,None,630.1691249189898,None,631.5528324609622,None,foot,631.5528324609622,None,return,0.743671468924731,631.6360758519731,None,,,,,,,,,,,,,23,001,2023_Feb_16_1322,SpeechDraft1Carolyn_lessNoise,2021.2.3,60.01316114714144,
script.wav,script.mpg,script,2,AV,Pink_Noise_2_1.wav,Pink_Noise_2_2.wav,,,,,,0,118,118,91,,,,,,,,,,,,,,,632.4028733279556,None,633.9192217689706,None,635.2859732949873,None,script,635.2859732949873,None,return,3.7222481789067388,635.3696164860157,None,,,,,,,,,,,,,23,001,2023_Feb_16_1322,SpeechDraft1Carolyn_lessNoise,2021.2.3,60.01316114714144,
poll.wav,poll.mpg,poll,3,AV,Pink_Noise_3_1.wav,Pink_Noise_3_2.wav,,,,,,0,119,119,108,,,,,,,,,,,,,,,639.119423205033,None,640.6193780309986,None,642.0027884879382,None,"pole
",642.0027884879382,None,return,1.2696687270654365,642.0861008119537,None,,,,,,,,,,,,,23,001,2023_Feb_16_1322,SpeechDraft1Carolyn_lessNoise,2021.2.3,60.01316114714144,
,,,,,,,,,,,,,,,,,,,,,,,,,,,,,,,,,,,,,,,,,,,,,,,,,643.3861095219618,None,c,75.83419726300053,644.3695586079266,None,23,001,2023_Feb_16_1322,SpeechDraft1Carolyn_lessNoise,2021.2.3,60.01316114714144,
