{"meta_data":{"additional_headers":{},"game_name":"Recollect","version":"2.53.01","user_name":"24","organization":"braingamecenter","study":"mpl2_2022_11","session_number":0,"device_id":"74342D95-EE82-45E3-8ADF-48FB3203C5DD"},"data":[{"stage":"Practice","trial":0,"sequence":"6F","letter_input":"F","number_input":"6","is_correct":true,"presentation_start_time":1676592347482.17,"presentation_end_time":1676592350482.24,"response_time":1676592357898.54},{"stage":"Practice","trial":1,"sequence":"G4","letter_input":"G","number_input":"4","is_correct":true,"presentation_start_time":1676592359428.1,"presentation_end_time":1676592362428.38,"response_time":1676592369408.24},{"stage":"Practice","trial":2,"sequence":"3W5","letter_input":"W","number_input":"35","is_correct":true,"presentation_start_time":1676592370941.03,"presentation_end_time":1676592375440.83,"response_time":1676592383803.59},{"stage":"Practice","trial":3,"sequence":"T7L","letter_input":"LT","number_input":"7","is_correct":true,"presentation_start_time":1676592385336.33,"presentation_end_time":1676592389836.07,"response_time":1676592403247.22},{"stage":"Practice","trial":4,"sequence":"9J1","letter_input":"J","number_input":"19","is_correct":true,"presentation_start_time":1676592404779.94,"presentation_end_time":1676592409279.71,"response_time":1676592414260.27},{"stage":"Calibration","trial":0,"sequence":"T5","letter_input":"T","number_input":"5","is_correct":true,"presentation_start_time":1676592421757.69,"presentation_end_time":1676592424757.95,"response_time":1676592430105.15},{"stage":"Calibration","trial":1,"sequence":"6M","letter_input":"M","number_input":"6","is_correct":true,"presentation_start_time":1676592431637.82,"presentation_end_time":1676592434638.01,"response_time":1676592438918.87},{"stage":"Calibration","trial":2,"sequence":"Z3V","letter_input":"VZ","number_input":"3","is_correct":true,"presentation_start_time":1676592440451.56,"presentation_end_time":1676592444951.22,"response_time":1676592451364.81},{"stage":"Calibration","trial":3,"sequence":"5R1","letter_input":"R","number_input":"15","is_correct":true,"presentation_start_time":1676592452897.48,"presentation_end_time":1676592457397.26,"response_time":1676592462211.18},{"stage":"Calibration","trial":4,"sequence":"T6G4","letter_input":"GT","number_input":"46","is_correct":true,"presentation_start_time":1676592463743.92,"presentation_end_time":1676592469743.13,"response_time":1676592481754.88},{"stage":"Calibration","trial":5,"sequence":"8V1R","letter_input":"RV","number_input":"18","is_correct":true,"presentation_start_time":1676592483287.62,"presentation_end_time":1676592489286.71,"response_time":1676592516793.29},{"stage":"Calibration","trial":6,"sequence":"N9J6F","letter_input":"NF","number_input":"69","is_correct":false,"presentation_start_time":1676592518326.02,"presentation_end_time":1676592525824.74,"response_time":1676592539685.72},{"stage":"Calibration","trial":7,"sequence":"8K4H1","letter_input":"FK","number_input":"18","is_correct":false,"presentation_start_time":1676592541218.49,"presentation_end_time":1676592548717.16,"response_time":1676592559146}]}