{"meta_data":{"additional_headers":{},"game_name":"Recollect","version":"2.53.01","user_name":"25","organization":"braingamecenter","study":"mpl2_2022_11","session_number":0,"device_id":"74342D95-EE82-45E3-8ADF-48FB3203C5DD"},"data":[{"stage":"Practice","trial":0,"sequence":"6F","letter_input":"F","number_input":"6","is_correct":true,"presentation_start_time":1676670980341.97,"presentation_end_time":1676670983342.36,"response_time":1676670989742.13},{"stage":"Practice","trial":1,"sequence":"G4","letter_input":"G","number_input":"4","is_correct":true,"presentation_start_time":1676670991271.79,"presentation_end_time":1676670994272.01,"response_time":1676670998169.57},{"stage":"Practice","trial":2,"sequence":"3W5","letter_input":"W","number_input":"35","is_correct":true,"presentation_start_time":1676670999702.31,"presentation_end_time":1676671004202.11,"response_time":1676671008666.13},{"stage":"Practice","trial":3,"sequence":"T7L","letter_input":"LT","number_input":"7","is_correct":true,"presentation_start_time":1676671010198.87,"presentation_end_time":1676671014698.62,"response_time":1676671022544.89},{"stage":"Practice","trial":4,"sequence":"9J1","letter_input":"J","number_input":"19","is_correct":true,"presentation_start_time":1676671024077.57,"presentation_end_time":1676671028577.27,"response_time":1676671032258.3},{"stage":"Calibration","trial":0,"sequence":"5H","letter_input":"H","number_input":"5","is_correct":true,"presentation_start_time":1676671035390.52,"presentation_end_time":1676671038390.68,"response_time":1676671042038.38},{"stage":"Calibration","trial":1,"sequence":"S7","letter_input":"S","number_input":"7","is_correct":true,"presentation_start_time":1676671043571.11,"presentation_end_time":1676671046571.34,"response_time":1676671052734.81},{"stage":"Calibration","trial":2,"sequence":"5J3","letter_input":"J","number_input":"35","is_correct":true,"presentation_start_time":1676671054267.54,"presentation_end_time":1676671058767.36,"response_time":1676671063098.03},{"stage":"Calibration","trial":3,"sequence":"P4G","letter_input":"GP","number_input":"4","is_correct":true,"presentation_start_time":1676671064630.79,"presentation_end_time":1676671069130.55,"response_time":1676671078059.84},{"stage":"Calibration","trial":4,"sequence":"8Q6J","letter_input":"JQ","number_input":"68","is_correct":true,"presentation_start_time":1676671079592.54,"presentation_end_time":1676671085591.9,"response_time":1676671099269.49},{"stage":"Calibration","trial":5,"sequence":"M9D2","letter_input":"DM","number_input":"29","is_correct":true,"presentation_start_time":1676671100802.25,"presentation_end_time":1676671106801.55,"response_time":1676671114014.67},{"stage":"Calibration","trial":6,"sequence":"7Q5C1","letter_input":"CQ","number_input":"157","is_correct":true,"presentation_start_time":1676671115547.32,"presentation_end_time":1676671123046.04,"response_time":1676671132491.83},{"stage":"Calibration","trial":7,"sequence":"T4D2Y","letter_input":"DTY","number_input":"24","is_correct":true,"presentation_start_time":1676671134024.54,"presentation_end_time":1676671141523.29,"response_time":1676671154967.76},{"stage":"Calibration","trial":8,"sequence":"7A5Z3P","letter_input":"APZ","number_input":"357","is_correct":true,"presentation_start_time":1676671156500.51,"presentation_end_time":1676671165498.65,"response_time":1676671174727.8},{"stage":"Calibration","trial":9,"sequence":"R2G9E6","letter_input":"EGZ","number_input":"269","is_correct":false,"presentation_start_time":1676671176260.56,"presentation_end_time":1676671185258.91,"response_time":1676671209866.14},{"stage":"Calibration","trial":10,"sequence":"5Y3M8C1","letter_input":"CMY","number_input":"1358","is_correct":true,"presentation_start_time":1676671211398.95,"presentation_end_time":1676671221896.72,"response_time":1676671236940.6},{"stage":"Calibration","trial":11,"sequence":"Q2L7G4V","letter_input":"LQYZ","number_input":"247","is_correct":false,"presentation_start_time":1676671238473.31,"presentation_end_time":1676671248970.97,"response_time":1676671281492.54},{"stage":"Calibration","trial":12,"sequence":"1Y9D6S3P","letter_input":"PZTM","number_input":"1369","is_correct":false,"presentation_start_time":1676671283025.23,"presentation_end_time":1676671295022.49,"response_time":1676671317364.11},{"stage":"Calibration","trial":13,"sequence":"G8Z5Q2K9","letter_input":"GKZ","number_input":"2589","is_correct":false,"presentation_start_time":1676671318896.69,"presentation_end_time":1676671330893.88,"response_time":1676671354301.76}]}