{"meta_data":{"additional_headers":{},"game_name":"Recollect","version":"2.53.01","user_name":"25","organization":"braingamecenter","study":"mpl2_2022_11","session_number":0,"device_id":"74342D95-EE82-45E3-8ADF-48FB3203C5DD"},"data":[{"trial":0,"action":1,"button_pressed":2,"time_out":false,"dwell_time":98.06005859375,"response_time":1676670722329.11},{"trial":0,"action":1,"button_pressed":9,"time_out":false,"dwell_time":32.256103515625,"response_time":1676670723012.46},{"trial":0,"action":9,"button_pressed":-1,"time_out":false,"dwell_time":93.408935546875,"response_time":1676670724873.01},{"trial":1,"action":1,"button_pressed":11,"time_out":false,"dwell_time":64.549072265625,"response_time":1676670734658.21},{"trial":1,"action":1,"button_pressed":2,"time_out":false,"dwell_time":48.48095703125,"response_time":1676670735141.23},{"trial":1,"action":1,"button_pressed":9,"time_out":false,"dwell_time":30.800048828125,"response_time":1676670735657.59},{"trial":1,"action":9,"button_pressed":-1,"time_out":false,"dwell_time":64.77880859375,"response_time":1676670736224.67},{"trial":2,"action":1,"button_pressed":5,"time_out":false,"dwell_time":64.425048828125,"response_time":1676670748386.92},{"trial":2,"action":1,"button_pressed":7,"time_out":false,"dwell_time":30.81201171875,"response_time":1676670749353.04},{"trial":2,"action":1,"button_pressed":1,"time_out":false,"dwell_time":49.005126953125,"response_time":1676670750153.52},{"trial":2,"action":1,"button_pressed":9,"time_out":false,"dwell_time":48.77392578125,"response_time":1676670750719.9},{"trial":2,"action":9,"button_pressed":-1,"time_out":false,"dwell_time":49.294921875,"response_time":1676670751403.47},{"trial":3,"action":1,"button_pressed":2,"time_out":false,"dwell_time":48.373046875,"response_time":1676670765648.51},{"trial":3,"action":1,"button_pressed":6,"time_out":false,"dwell_time":64.492919921875,"response_time":1676670766113.8},{"trial":3,"action":1,"button_pressed":7,"time_out":false,"dwell_time":64.031005859375,"response_time":1676670766514.22},{"trial":3,"action":1,"button_pressed":0,"time_out":false,"dwell_time":64.527099609375,"response_time":1676670767230.74},{"trial":3,"action":1,"button_pressed":8,"time_out":false,"dwell_time":48.23779296875,"response_time":1676670767614.39},{"trial":3,"action":9,"button_pressed":-1,"time_out":false,"dwell_time":65.2900390625,"response_time":1676670768996.92},{"trial":4,"action":1,"button_pressed":10,"time_out":false,"dwell_time":48.371826171875,"response_time":1676670785791.26},{"trial":4,"action":1,"button_pressed":2,"time_out":false,"dwell_time":47.515869140625,"response_time":1676670786440.83},{"trial":4,"action":1,"button_pressed":9,"time_out":false,"dwell_time":30.56884765625,"response_time":1676670786890.56},{"trial":4,"action":1,"button_pressed":5,"time_out":false,"dwell_time":48.27490234375,"response_time":1676670787374.48},{"trial":4,"action":1,"button_pressed":11,"time_out":false,"dwell_time":48.2900390625,"response_time":1676670788023.61},{"trial":4,"action":1,"button_pressed":0,"time_out":false,"dwell_time":48.18115234375,"response_time":1676670788524.05},{"trial":4,"action":9,"button_pressed":-1,"time_out":false,"dwell_time":49.258056640625,"response_time":1676670788907.73},{"trial":5,"action":1,"button_pressed":0,"time_out":false,"dwell_time":64.534912109375,"response_time":1676670808516.36},{"trial":5,"action":1,"button_pressed":8,"time_out":false,"dwell_time":80.921142578125,"response_time":1676670808966.89},{"trial":5,"action":1,"button_pressed":5,"time_out":false,"dwell_time":49.06201171875,"response_time":1676670812332.93},{"trial":5,"action":1,"button_pressed":6,"time_out":false,"dwell_time":47.536865234375,"response_time":1676670813082.12},{"trial":5,"action":1,"button_pressed":9,"time_out":false,"dwell_time":64.52197265625,"response_time":1676670814148.04},{"trial":5,"action":1,"button_pressed":2,"time_out":false,"dwell_time":47.416015625,"response_time":1676670817597.01},{"trial":5,"action":1,"button_pressed":10,"time_out":false,"dwell_time":30.5,"response_time":1676670818196.86},{"trial":5,"action":9,"button_pressed":-1,"time_out":false,"dwell_time":48.833984375,"response_time":1676670820563.42},{"trial":6,"action":1,"button_pressed":7,"time_out":false,"dwell_time":65.135986328125,"response_time":1676670841256.23},{"trial":6,"action":1,"button_pressed":9,"time_out":false,"dwell_time":47.488037109375,"response_time":1676670841739.12},{"trial":6,"action":1,"button_pressed":4,"time_out":false,"dwell_time":81.886962890625,"response_time":1676670842205.92},{"trial":6,"action":1,"button_pressed":1,"time_out":false,"dwell_time":64.30517578125,"response_time":1676670842722.32},{"trial":6,"action":1,"button_pressed":11,"time_out":false,"dwell_time":65.129150390625,"response_time":1676670843155.63},{"trial":6,"action":1,"button_pressed":3,"time_out":false,"dwell_time":65.260009765625,"response_time":1676670843855.37},{"trial":6,"action":1,"button_pressed":8,"time_out":false,"dwell_time":47.424072265625,"response_time":1676670844454.91},{"trial":6,"action":9,"button_pressed":-1,"time_out":false,"dwell_time":32.06298828125,"response_time":1676670845455.14},{"trial":7,"action":1,"button_pressed":10,"time_out":false,"dwell_time":47.295166015625,"response_time":1676670860666.43},{"trial":7,"action":1,"button_pressed":5,"time_out":false,"dwell_time":63.664794921875,"response_time":1676670861198.97},{"trial":7,"action":1,"button_pressed":3,"time_out":false,"dwell_time":47.430908203125,"response_time":1676670861715.97},{"trial":7,"action":1,"button_pressed":6,"time_out":false,"dwell_time":47.991943359375,"response_time":1676670862066.58},{"trial":7,"action":1,"button_pressed":2,"time_out":false,"dwell_time":48.724853515625,"response_time":1676670862583.18},{"trial":7,"action":9,"button_pressed":-1,"time_out":false,"dwell_time":48.386962890625,"response_time":1676670862999.31},{"trial":8,"action":1,"button_pressed":8,"time_out":false,"dwell_time":48.14501953125,"response_time":1676670880593.8},{"trial":8,"action":1,"button_pressed":0,"time_out":false,"dwell_time":63.77197265625,"response_time":1676670881892.26},{"trial":8,"action":1,"button_pressed":1,"time_out":false,"dwell_time":64.380126953125,"response_time":1676670882308.79},{"trial":8,"action":1,"button_pressed":9,"time_out":false,"dwell_time":48.046875,"response_time":1676670882743.06},{"trial":8,"action":1,"button_pressed":6,"time_out":false,"dwell_time":32.05908203125,"response_time":1676670886058.55},{"trial":8,"action":1,"button_pressed":5,"time_out":false,"dwell_time":31.06396484375,"response_time":1676670886840.82},{"trial":8,"action":9,"button_pressed":-1,"time_out":false,"dwell_time":49.385986328125,"response_time":1676670887242},{"trial":9,"action":1,"button_pressed":10,"time_out":false,"dwell_time":47.58984375,"response_time":1676670904885.27},{"trial":9,"action":1,"button_pressed":5,"time_out":false,"dwell_time":47.4208984375,"response_time":1676670907684.1},{"trial":9,"action":1,"button_pressed":7,"time_out":false,"dwell_time":48.11181640625,"response_time":1676670908551.24},{"trial":9,"action":1,"button_pressed":4,"time_out":false,"dwell_time":47.60498046875,"response_time":1676670910033.4},{"trial":9,"action":1,"button_pressed":9,"time_out":false,"dwell_time":14.68017578125,"response_time":1676670911749.96},{"trial":9,"action":1,"button_pressed":0,"time_out":false,"dwell_time":48.76611328125,"response_time":1676670914898.97},{"trial":9,"action":9,"button_pressed":-1,"time_out":false,"dwell_time":48.889892578125,"response_time":1676670915782.04}]}