{"meta_data":{"additional_headers":{},"game_name":"Recollect","version":"2.53.01","user_name":"26","organization":"braingamecenter","study":"mpl2_2022_11","session_number":0,"device_id":"74342D95-EE82-45E3-8ADF-48FB3203C5DD"},"data":[{"trial":0,"action":1,"button_pressed":10,"time_out":false,"dwell_time":48.125,"response_time":1676683077306.87},{"trial":0,"action":1,"button_pressed":7,"time_out":false,"dwell_time":64.371826171875,"response_time":1676683077805.65},{"trial":0,"action":9,"button_pressed":-1,"time_out":false,"dwell_time":90.81494140625,"response_time":1676683078415.73},{"trial":1,"action":1,"button_pressed":0,"time_out":false,"dwell_time":63.9541015625,"response_time":1676683087985.55},{"trial":1,"action":1,"button_pressed":10,"time_out":false,"dwell_time":47.43994140625,"response_time":1676683088369.09},{"trial":1,"action":1,"button_pressed":11,"time_out":false,"dwell_time":47.446044921875,"response_time":1676683088918.9},{"trial":1,"action":9,"button_pressed":-1,"time_out":false,"dwell_time":16.8310546875,"response_time":1676683089701.64},{"trial":2,"action":1,"button_pressed":3,"time_out":false,"dwell_time":65.35107421875,"response_time":1676683101964.9},{"trial":2,"action":1,"button_pressed":5,"time_out":false,"dwell_time":47.610107421875,"response_time":1676683102464.47},{"trial":2,"action":1,"button_pressed":9,"time_out":false,"dwell_time":48.211181640625,"response_time":1676683102947.48},{"trial":2,"action":1,"button_pressed":2,"time_out":false,"dwell_time":81.153076171875,"response_time":1676683103481.06},{"trial":2,"action":9,"button_pressed":-1,"time_out":false,"dwell_time":81.417236328125,"response_time":1676683104197.88},{"trial":3,"action":1,"button_pressed":10,"time_out":false,"dwell_time":65.166015625,"response_time":1676683119325.78},{"trial":3,"action":1,"button_pressed":5,"time_out":false,"dwell_time":47.577880859375,"response_time":1676683119908.69},{"trial":3,"action":1,"button_pressed":3,"time_out":false,"dwell_time":47.47021484375,"response_time":1676683121291.48},{"trial":3,"action":1,"button_pressed":6,"time_out":false,"dwell_time":49.0078125,"response_time":1676683121525.57},{"trial":3,"action":1,"button_pressed":2,"time_out":false,"dwell_time":30.833984375,"response_time":1676683122041.28},{"trial":3,"action":9,"button_pressed":-1,"time_out":false,"dwell_time":64.906982421875,"response_time":1676683122591.81},{"trial":4,"action":1,"button_pressed":11,"time_out":false,"dwell_time":65.051025390625,"response_time":1676683140552.09},{"trial":4,"action":1,"button_pressed":8,"time_out":false,"dwell_time":80.988037109375,"response_time":1676683141084.53},{"trial":4,"action":1,"button_pressed":6,"time_out":false,"dwell_time":80.213134765625,"response_time":1676683141551},{"trial":4,"action":1,"button_pressed":4,"time_out":false,"dwell_time":81.680908203125,"response_time":1676683141935},{"trial":4,"action":1,"button_pressed":1,"time_out":false,"dwell_time":81.81298828125,"response_time":1676683142301.39},{"trial":4,"action":1,"button_pressed":10,"time_out":false,"dwell_time":63.779052734375,"response_time":1676683142617.43},{"trial":4,"action":9,"button_pressed":-1,"time_out":false,"dwell_time":97.3330078125,"response_time":1676683144767.16},{"trial":5,"action":1,"button_pressed":7,"time_out":false,"dwell_time":83.51318359375,"response_time":1676683165227.42},{"trial":5,"action":1,"button_pressed":11,"time_out":false,"dwell_time":47.361083984375,"response_time":1676683165843.36},{"trial":5,"action":1,"button_pressed":0,"time_out":false,"dwell_time":63.7080078125,"response_time":1676683166392.78},{"trial":5,"action":1,"button_pressed":3,"time_out":false,"dwell_time":47.36279296875,"response_time":1676683166743.03},{"trial":5,"action":1,"button_pressed":9,"time_out":false,"dwell_time":47.2900390625,"response_time":1676683167076.32},{"trial":5,"action":1,"button_pressed":5,"time_out":false,"dwell_time":47.503173828125,"response_time":1676683167559.48},{"trial":5,"action":1,"button_pressed":6,"time_out":false,"dwell_time":48.066162109375,"response_time":1676683168076.07},{"trial":5,"action":9,"button_pressed":-1,"time_out":false,"dwell_time":132.080810546875,"response_time":1676683169109.81},{"trial":6,"action":1,"button_pressed":0,"time_out":false,"dwell_time":114.791015625,"response_time":1676683191851.36},{"trial":6,"action":1,"button_pressed":8,"time_out":false,"dwell_time":98.34814453125,"response_time":1676683192484.87},{"trial":6,"action":1,"button_pressed":3,"time_out":false,"dwell_time":63.985107421875,"response_time":1676683193484.12},{"trial":6,"action":1,"button_pressed":9,"time_out":false,"dwell_time":64.294921875,"response_time":1676683193767.71},{"trial":6,"action":1,"button_pressed":5,"time_out":false,"dwell_time":65.196044921875,"response_time":1676683194217.49},{"trial":6,"action":1,"button_pressed":7,"time_out":false,"dwell_time":114.966064453125,"response_time":1676683194517.5},{"trial":6,"action":1,"button_pressed":2,"time_out":false,"dwell_time":47.43994140625,"response_time":1676683194750.44},{"trial":6,"action":9,"button_pressed":-1,"time_out":false,"dwell_time":65.876953125,"response_time":1676683195335.46},{"trial":7,"action":1,"button_pressed":2,"time_out":false,"dwell_time":63.911865234375,"response_time":1676683217309.36},{"trial":7,"action":1,"button_pressed":4,"time_out":false,"dwell_time":64.37890625,"response_time":1676683219308.61},{"trial":7,"action":1,"button_pressed":11,"time_out":false,"dwell_time":47.7490234375,"response_time":1676683219842.4},{"trial":7,"action":1,"button_pressed":6,"time_out":false,"dwell_time":31.045166015625,"response_time":1676683220242.69},{"trial":7,"action":1,"button_pressed":5,"time_out":false,"dwell_time":63.815185546875,"response_time":1676683220841.52},{"trial":7,"action":1,"button_pressed":0,"time_out":false,"dwell_time":64.77099609375,"response_time":1676683221291.99},{"trial":7,"action":1,"button_pressed":10,"time_out":false,"dwell_time":48.217041015625,"response_time":1676683221658.22},{"trial":7,"action":1,"button_pressed":0,"time_out":false,"dwell_time":81.2490234375,"response_time":1676683223591.36},{"trial":7,"action":1,"button_pressed":10,"time_out":false,"dwell_time":64.291015625,"response_time":1676683228938.71},{"trial":7,"action":1,"button_pressed":10,"time_out":false,"dwell_time":47.31396484375,"response_time":1676683229588.85},{"trial":7,"action":1,"button_pressed":10,"time_out":false,"dwell_time":81.767822265625,"response_time":1676683229989.1},{"trial":7,"action":0,"button_pressed":-1,"time_out":false,"dwell_time":114.5810546875,"response_time":1676683236770.44},{"trial":7,"action":1,"button_pressed":2,"time_out":false,"dwell_time":48.18212890625,"response_time":1676683237736.2},{"trial":7,"action":1,"button_pressed":4,"time_out":false,"dwell_time":64.459228515625,"response_time":1676683238203.02},{"trial":7,"action":1,"button_pressed":11,"time_out":false,"dwell_time":13.387939453125,"response_time":1676683238668.81},{"trial":7,"action":1,"button_pressed":5,"time_out":false,"dwell_time":80.43505859375,"response_time":1676683240451.62},{"trial":7,"action":1,"button_pressed":6,"time_out":false,"dwell_time":80.925048828125,"response_time":1676683241968.45},{"trial":7,"action":1,"button_pressed":0,"time_out":false,"dwell_time":81.046875,"response_time":1676683242984.72},{"trial":7,"action":1,"button_pressed":10,"time_out":false,"dwell_time":47.420166015625,"response_time":1676683243834.33},{"trial":7,"action":9,"button_pressed":-1,"time_out":false,"dwell_time":49.2939453125,"response_time":1676683244768.44},{"trial":8,"action":1,"button_pressed":9,"time_out":false,"dwell_time":48.912841796875,"response_time":1676683262162.29},{"trial":8,"action":1,"button_pressed":1,"time_out":false,"dwell_time":31.639892578125,"response_time":1676683262678.01},{"trial":8,"action":1,"button_pressed":2,"time_out":false,"dwell_time":81.239013671875,"response_time":1676683263194.01},{"trial":8,"action":1,"button_pressed":8,"time_out":false,"dwell_time":48.1591796875,"response_time":1676683263427.81},{"trial":8,"action":1,"button_pressed":6,"time_out":false,"dwell_time":48.7890625,"response_time":1676683263761.57},{"trial":8,"action":1,"button_pressed":11,"time_out":false,"dwell_time":32.162841796875,"response_time":1676683263995.08},{"trial":8,"action":9,"button_pressed":-1,"time_out":false,"dwell_time":98.744140625,"response_time":1676683266077.72},{"trial":9,"action":1,"button_pressed":4,"time_out":false,"dwell_time":63.532958984375,"response_time":1676683285769.58},{"trial":9,"action":1,"button_pressed":2,"time_out":false,"dwell_time":48.109130859375,"response_time":1676683286187.43},{"trial":9,"action":1,"button_pressed":9,"time_out":false,"dwell_time":31.119873046875,"response_time":1676683286570.43},{"trial":9,"action":1,"button_pressed":8,"time_out":false,"dwell_time":31.051025390625,"response_time":1676683286936.54},{"trial":9,"action":1,"button_pressed":6,"time_out":false,"dwell_time":31.653076171875,"response_time":1676683287303.42},{"trial":9,"action":1,"button_pressed":1,"time_out":false,"dwell_time":31.262939453125,"response_time":1676683287636.78},{"trial":9,"action":0,"button_pressed":-1,"time_out":false,"dwell_time":65.10205078125,"response_time":1676683291135.57},{"trial":9,"action":1,"button_pressed":4,"time_out":false,"dwell_time":81.028076171875,"response_time":1676683291735.26},{"trial":9,"action":1,"button_pressed":2,"time_out":false,"dwell_time":30.830078125,"response_time":1676683292018.32},{"trial":9,"action":1,"button_pressed":9,"time_out":false,"dwell_time":48.085205078125,"response_time":1676683292418.92},{"trial":9,"action":1,"button_pressed":8,"time_out":false,"dwell_time":47.517822265625,"response_time":1676683296683.53},{"trial":9,"action":1,"button_pressed":1,"time_out":false,"dwell_time":47.436767578125,"response_time":1676683297283.28},{"trial":9,"action":1,"button_pressed":10,"time_out":false,"dwell_time":31.576904296875,"response_time":1676683300832.03},{"trial":9,"action":9,"button_pressed":-1,"time_out":false,"dwell_time":99.00390625,"response_time":1676683302165.71},{"trial":10,"action":1,"button_pressed":8,"time_out":false,"dwell_time":97.748046875,"response_time":1676683321858.65},{"trial":10,"action":1,"button_pressed":5,"time_out":false,"dwell_time":114.278076171875,"response_time":1676683322741.58},{"trial":10,"action":1,"button_pressed":1,"time_out":false,"dwell_time":80.33203125,"response_time":1676683323424.12},{"trial":10,"action":1,"button_pressed":6,"time_out":false,"dwell_time":80.405029296875,"response_time":1676683323957.34},{"trial":10,"action":1,"button_pressed":0,"time_out":false,"dwell_time":80.60302734375,"response_time":1676683324624.08},{"trial":10,"action":1,"button_pressed":7,"time_out":false,"dwell_time":48.051025390625,"response_time":1676683325074.6},{"trial":10,"action":1,"button_pressed":11,"time_out":false,"dwell_time":47.52197265625,"response_time":1676683325440.55},{"trial":10,"action":9,"button_pressed":-1,"time_out":false,"dwell_time":81.56787109375,"response_time":1676683327223.95},{"trial":11,"action":1,"button_pressed":6,"time_out":false,"dwell_time":48.9599609375,"response_time":1676683350832.82},{"trial":11,"action":1,"button_pressed":0,"time_out":false,"dwell_time":64.5810546875,"response_time":1676683351481.51},{"trial":11,"action":1,"button_pressed":3,"time_out":false,"dwell_time":48.364990234375,"response_time":1676683351731.8},{"trial":11,"action":1,"button_pressed":10,"time_out":false,"dwell_time":47.9091796875,"response_time":1676683352515.45},{"trial":11,"action":1,"button_pressed":8,"time_out":false,"dwell_time":47.35888671875,"response_time":1676683352831.41},{"trial":11,"action":1,"button_pressed":1,"time_out":false,"dwell_time":31.847900390625,"response_time":1676683353348.09},{"trial":11,"action":1,"button_pressed":7,"time_out":false,"dwell_time":31.419921875,"response_time":1676683353598.5},{"trial":11,"action":9,"button_pressed":-1,"time_out":false,"dwell_time":97.68603515625,"response_time":1676683361362.18},{"trial":12,"action":1,"button_pressed":10,"time_out":false,"dwell_time":48.265869140625,"response_time":1676683383354.64},{"trial":12,"action":1,"button_pressed":2,"time_out":false,"dwell_time":65.008056640625,"response_time":1676683383771.3},{"trial":12,"action":1,"button_pressed":1,"time_out":false,"dwell_time":47.36083984375,"response_time":1676683384220.82},{"trial":12,"action":1,"button_pressed":9,"time_out":false,"dwell_time":48.22607421875,"response_time":1676683384688.17},{"trial":12,"action":1,"button_pressed":8,"time_out":false,"dwell_time":81.7861328125,"response_time":1676683385187.67},{"trial":12,"action":1,"button_pressed":11,"time_out":false,"dwell_time":48.14208984375,"response_time":1676683386370.19},{"trial":12,"action":1,"button_pressed":4,"time_out":false,"dwell_time":63.6259765625,"response_time":1676683386869.67},{"trial":12,"action":1,"button_pressed":5,"time_out":false,"dwell_time":49.06396484375,"response_time":1676683387187.33},{"trial":12,"action":9,"button_pressed":-1,"time_out":false,"dwell_time":15.444091796875,"response_time":1676683389303.88},{"trial":13,"action":1,"button_pressed":10,"time_out":false,"dwell_time":64.949951171875,"response_time":1676683414244.71},{"trial":13,"action":1,"button_pressed":3,"time_out":false,"dwell_time":64.642822265625,"response_time":1676683414810.78},{"trial":13,"action":1,"button_pressed":9,"time_out":false,"dwell_time":64.3369140625,"response_time":1676683415211.09},{"trial":13,"action":1,"button_pressed":8,"time_out":false,"dwell_time":64.43408203125,"response_time":1676683415593.55},{"trial":13,"action":1,"button_pressed":7,"time_out":false,"dwell_time":48.02587890625,"response_time":1676683416060.48},{"trial":13,"action":1,"button_pressed":11,"time_out":false,"dwell_time":31.23486328125,"response_time":1676683416244.28},{"trial":13,"action":1,"button_pressed":2,"time_out":false,"dwell_time":47.43505859375,"response_time":1676683416710.3},{"trial":13,"action":1,"button_pressed":4,"time_out":false,"dwell_time":64.40087890625,"response_time":1676683417626.22},{"trial":13,"action":9,"button_pressed":-1,"time_out":false,"dwell_time":82.281982421875,"response_time":1676683418310.54},{"trial":14,"action":1,"button_pressed":1,"time_out":false,"dwell_time":48.050048828125,"response_time":1676683446317.89},{"trial":14,"action":1,"button_pressed":11,"time_out":false,"dwell_time":48.005859375,"response_time":1676683446666.99},{"trial":14,"action":1,"button_pressed":5,"time_out":false,"dwell_time":98.010986328125,"response_time":1676683449499.21},{"trial":14,"action":1,"button_pressed":8,"time_out":false,"dwell_time":49.507080078125,"response_time":1676683449767.38},{"trial":14,"action":1,"button_pressed":2,"time_out":false,"dwell_time":81.4931640625,"response_time":1676683450498.91},{"trial":14,"action":1,"button_pressed":7,"time_out":false,"dwell_time":48.30712890625,"response_time":1676683451015.57},{"trial":14,"action":1,"button_pressed":4,"time_out":false,"dwell_time":65.056884765625,"response_time":1676683453065.11},{"trial":14,"action":1,"button_pressed":10,"time_out":false,"dwell_time":82.732177734375,"response_time":1676683455964.18},{"trial":14,"action":9,"button_pressed":-1,"time_out":false,"dwell_time":99.153076171875,"response_time":1676683456848.13}]}