{"meta_data":{"additional_headers":{},"game_name":"Recollect","version":"2.53.01","user_name":"26","organization":"braingamecenter","study":"mpl2_2022_11","session_number":0,"device_id":"74342D95-EE82-45E3-8ADF-48FB3203C5DD"},"data":[{"stage":"Practice","trial":0,"sequence":"6F","letter_input":"F","number_input":"6","is_correct":true,"presentation_start_time":1676683487602.09,"presentation_end_time":1676683490602.3,"response_time":1676683497167.35},{"stage":"Practice","trial":1,"sequence":"G4","letter_input":"G","number_input":"4","is_correct":true,"presentation_start_time":1676683498698.35,"presentation_end_time":1676683501698.65,"response_time":1676683506062.72},{"stage":"Practice","trial":2,"sequence":"3W5","letter_input":"W","number_input":"35","is_correct":true,"presentation_start_time":1676683507595.53,"presentation_end_time":1676683512095.19,"response_time":1676683518558.53},{"stage":"Practice","trial":3,"sequence":"T7L","letter_input":"LT","number_input":"7","is_correct":true,"presentation_start_time":1676683520091.23,"presentation_end_time":1676683524591.09,"response_time":1676683532937.06},{"stage":"Practice","trial":4,"sequence":"9J1","letter_input":"J","number_input":"19","is_correct":true,"presentation_start_time":1676683534469.84,"presentation_end_time":1676683538969.55,"response_time":1676683543833.48},{"stage":"Calibration","trial":0,"sequence":"B9","letter_input":"B","number_input":"9","is_correct":true,"presentation_start_time":1676683557662.1,"presentation_end_time":1676683560662.34,"response_time":1676683564926.51},{"stage":"Calibration","trial":1,"sequence":"2F","letter_input":"F","number_input":"2","is_correct":true,"presentation_start_time":1676683566459.23,"presentation_end_time":1676683569459.35,"response_time":1676683573840.23},{"stage":"Calibration","trial":2,"sequence":"Y8M","letter_input":"MY","number_input":"8","is_correct":true,"presentation_start_time":1676683575372.93,"presentation_end_time":1676683579872.55,"response_time":1676683585953.08},{"stage":"Calibration","trial":3,"sequence":"7N5","letter_input":"N","number_input":"57","is_correct":true,"presentation_start_time":1676683587485.46,"presentation_end_time":1676683591985.25,"response_time":1676683597115.75},{"stage":"Calibration","trial":4,"sequence":"Y9E4","letter_input":"EY","number_input":"49","is_correct":true,"presentation_start_time":1676683598648.53,"presentation_end_time":1676683604647.75,"response_time":1676683609928.19},{"stage":"Calibration","trial":5,"sequence":"5T2N","letter_input":"T","number_input":"25","is_correct":false,"presentation_start_time":1676683611460.86,"presentation_end_time":1676683617460.04,"response_time":1676683634186.69},{"stage":"Calibration","trial":6,"sequence":"L3H1Q","letter_input":"HLQ","number_input":"13","is_correct":true,"presentation_start_time":1676683635719.47,"presentation_end_time":1676683643218.18,"response_time":1676683654363.38},{"stage":"Calibration","trial":7,"sequence":"2V8R6","letter_input":"RV","number_input":"286","is_correct":false,"presentation_start_time":1676683655896.1,"presentation_end_time":1676683663394.66,"response_time":1676683677355.65},{"stage":"Calibration","trial":8,"sequence":"A7Y5L3","letter_input":"AYL","number_input":"57","is_correct":false,"presentation_start_time":1676683678888.43,"presentation_end_time":1676683687886.6,"response_time":1676683716109.38},{"stage":"Calibration","trial":9,"sequence":"8F6D1N","letter_input":"LN","number_input":"168","is_correct":false,"presentation_start_time":1676683717642.16,"presentation_end_time":1676683726640.37,"response_time":1676683733420.35}]}