{"meta_data":{"additional_headers":{},"game_name":"Recollect","version":"2.53.01","user_name":"27","organization":"braingamecenter","study":"mpl2_2022_11","session_number":0,"device_id":"74342D95-EE82-45E3-8ADF-48FB3203C5DD"},"data":[{"trial":0,"action":1,"button_pressed":6,"time_out":false,"dwell_time":64.4970703125,"response_time":1677000067030.04},{"trial":0,"action":1,"button_pressed":10,"time_out":false,"dwell_time":48.176025390625,"response_time":1677000067547.4},{"trial":0,"action":9,"button_pressed":-1,"time_out":false,"dwell_time":27.7490234375,"response_time":1677000068473.76},{"trial":1,"action":1,"button_pressed":0,"time_out":false,"dwell_time":81.905029296875,"response_time":1677000077993.78},{"trial":1,"action":1,"button_pressed":10,"time_out":false,"dwell_time":81.028076171875,"response_time":1677000078459.53},{"trial":1,"action":1,"button_pressed":11,"time_out":false,"dwell_time":64.218017578125,"response_time":1677000078976.63},{"trial":1,"action":9,"button_pressed":-1,"time_out":false,"dwell_time":64.81201171875,"response_time":1677000080459.89},{"trial":2,"action":1,"button_pressed":10,"time_out":false,"dwell_time":64.626953125,"response_time":1677000092338.39},{"trial":2,"action":1,"button_pressed":3,"time_out":false,"dwell_time":30.7080078125,"response_time":1677000092821.77},{"trial":2,"action":1,"button_pressed":6,"time_out":false,"dwell_time":64.0771484375,"response_time":1677000093321.82},{"trial":2,"action":1,"button_pressed":8,"time_out":false,"dwell_time":64.248046875,"response_time":1677000093771.9},{"trial":2,"action":9,"button_pressed":-1,"time_out":false,"dwell_time":48.65185546875,"response_time":1677000094338.6},{"trial":3,"action":1,"button_pressed":1,"time_out":false,"dwell_time":64.593994140625,"response_time":1677000108600.42},{"trial":3,"action":1,"button_pressed":10,"time_out":false,"dwell_time":64.384765625,"response_time":1677000109116.14},{"trial":3,"action":1,"button_pressed":0,"time_out":false,"dwell_time":47.5830078125,"response_time":1677000109583.17},{"trial":3,"action":1,"button_pressed":9,"time_out":false,"dwell_time":63.492919921875,"response_time":1677000110049.19},{"trial":3,"action":1,"button_pressed":5,"time_out":false,"dwell_time":65.20703125,"response_time":1677000110499.69},{"trial":3,"action":9,"button_pressed":-1,"time_out":false,"dwell_time":48.52099609375,"response_time":1677000110999.76},{"trial":4,"action":1,"button_pressed":3,"time_out":false,"dwell_time":65.261962890625,"response_time":1677000127927.41},{"trial":4,"action":1,"button_pressed":7,"time_out":false,"dwell_time":81.718994140625,"response_time":1677000128360.53},{"trial":4,"action":1,"button_pressed":10,"time_out":false,"dwell_time":81.458984375,"response_time":1677000128760.25},{"trial":4,"action":1,"button_pressed":4,"time_out":false,"dwell_time":64.4970703125,"response_time":1677000129126.27},{"trial":4,"action":1,"button_pressed":2,"time_out":false,"dwell_time":81.164794921875,"response_time":1677000129460.28},{"trial":4,"action":1,"button_pressed":9,"time_out":false,"dwell_time":80.730224609375,"response_time":1677000129843.11},{"trial":4,"action":9,"button_pressed":-1,"time_out":false,"dwell_time":49.833984375,"response_time":1677000131160.5},{"trial":5,"action":1,"button_pressed":2,"time_out":false,"dwell_time":47.715087890625,"response_time":1677000148770.54},{"trial":5,"action":0,"button_pressed":-1,"time_out":false,"dwell_time":82.0009765625,"response_time":1677000150903.43},{"trial":5,"action":1,"button_pressed":10,"time_out":false,"dwell_time":80.964111328125,"response_time":1677000151685.53},{"trial":5,"action":1,"button_pressed":2,"time_out":false,"dwell_time":81.93896484375,"response_time":1677000152236.2},{"trial":5,"action":1,"button_pressed":9,"time_out":false,"dwell_time":81.22509765625,"response_time":1677000152802.81},{"trial":5,"action":1,"button_pressed":5,"time_out":false,"dwell_time":81.19384765625,"response_time":1677000153268.46},{"trial":5,"action":1,"button_pressed":11,"time_out":false,"dwell_time":47.39697265625,"response_time":1677000153885.24},{"trial":5,"action":1,"button_pressed":0,"time_out":false,"dwell_time":64.95703125,"response_time":1677000154451.95},{"trial":5,"action":9,"button_pressed":-1,"time_out":false,"dwell_time":16.919921875,"response_time":1677000154968.15},{"trial":6,"action":1,"button_pressed":11,"time_out":false,"dwell_time":81.7060546875,"response_time":1677000174329.02},{"trial":6,"action":1,"button_pressed":4,"time_out":false,"dwell_time":81.010986328125,"response_time":1677000174878.65},{"trial":6,"action":1,"button_pressed":3,"time_out":false,"dwell_time":47.156982421875,"response_time":1677000175294.85},{"trial":6,"action":1,"button_pressed":10,"time_out":false,"dwell_time":63.67578125,"response_time":1677000175761.71},{"trial":6,"action":1,"button_pressed":2,"time_out":false,"dwell_time":81.422119140625,"response_time":1677000176211.09},{"trial":6,"action":1,"button_pressed":8,"time_out":false,"dwell_time":63.4638671875,"response_time":1677000176577.57},{"trial":6,"action":1,"button_pressed":1,"time_out":false,"dwell_time":47.506103515625,"response_time":1677000177027.72},{"trial":6,"action":9,"button_pressed":-1,"time_out":false,"dwell_time":50.112060546875,"response_time":1677000178662.5},{"trial":7,"action":1,"button_pressed":3,"time_out":false,"dwell_time":64.453125,"response_time":1677000200587.21},{"trial":7,"action":1,"button_pressed":1,"time_out":false,"dwell_time":64.318115234375,"response_time":1677000201070.28},{"trial":7,"action":1,"button_pressed":8,"time_out":false,"dwell_time":81.56689453125,"response_time":1677000202236.63},{"trial":7,"action":1,"button_pressed":5,"time_out":false,"dwell_time":64.77490234375,"response_time":1677000202752.97},{"trial":7,"action":1,"button_pressed":7,"time_out":false,"dwell_time":63.510986328125,"response_time":1677000203535.39},{"trial":7,"action":1,"button_pressed":0,"time_out":false,"dwell_time":63.121826171875,"response_time":1677000204201.32},{"trial":7,"action":1,"button_pressed":10,"time_out":false,"dwell_time":64.9541015625,"response_time":1677000209134.34},{"trial":7,"action":1,"button_pressed":9,"time_out":false,"dwell_time":48.10595703125,"response_time":1677000209618},{"trial":7,"action":9,"button_pressed":-1,"time_out":false,"dwell_time":15.33984375,"response_time":1677000210416.61},{"trial":8,"action":1,"button_pressed":1,"time_out":false,"dwell_time":82.0009765625,"response_time":1677000232843.56},{"trial":8,"action":1,"button_pressed":4,"time_out":false,"dwell_time":47.734130859375,"response_time":1677000240590.75},{"trial":8,"action":1,"button_pressed":4,"time_out":false,"dwell_time":65.10595703125,"response_time":1677000241890.33},{"trial":8,"action":1,"button_pressed":4,"time_out":false,"dwell_time":48.68603515625,"response_time":1677000242756.99},{"trial":8,"action":0,"button_pressed":-1,"time_out":false,"dwell_time":47.694091796875,"response_time":1677000243589.77},{"trial":8,"action":1,"button_pressed":1,"time_out":false,"dwell_time":64.22802734375,"response_time":1677000244438.77},{"trial":8,"action":1,"button_pressed":4,"time_out":false,"dwell_time":81.5498046875,"response_time":1677000247305.06},{"trial":8,"action":1,"button_pressed":0,"time_out":false,"dwell_time":81.5361328125,"response_time":1677000248954.87},{"trial":8,"action":1,"button_pressed":2,"time_out":false,"dwell_time":64.802978515625,"response_time":1677000249471},{"trial":8,"action":1,"button_pressed":3,"time_out":false,"dwell_time":47.893798828125,"response_time":1677000250537.09},{"trial":8,"action":1,"button_pressed":7,"time_out":false,"dwell_time":65.302978515625,"response_time":1677000251186.64},{"trial":8,"action":1,"button_pressed":9,"time_out":false,"dwell_time":65.114990234375,"response_time":1677000258734.99},{"trial":8,"action":1,"button_pressed":10,"time_out":false,"dwell_time":64.858154296875,"response_time":1677000259267.9},{"trial":8,"action":9,"button_pressed":-1,"time_out":false,"dwell_time":80.593994140625,"response_time":1677000259917.62},{"trial":9,"action":1,"button_pressed":0,"time_out":false,"dwell_time":63.68701171875,"response_time":1677000277261.62},{"trial":9,"action":1,"button_pressed":6,"time_out":false,"dwell_time":47.26708984375,"response_time":1677000278761.36},{"trial":9,"action":1,"button_pressed":5,"time_out":false,"dwell_time":31.64208984375,"response_time":1677000279212.04},{"trial":9,"action":1,"button_pressed":11,"time_out":false,"dwell_time":80.156005859375,"response_time":1677000279660.6},{"trial":9,"action":1,"button_pressed":8,"time_out":false,"dwell_time":63.697021484375,"response_time":1677000279976.39},{"trial":9,"action":1,"button_pressed":4,"time_out":false,"dwell_time":63.829833984375,"response_time":1677000280527.09},{"trial":9,"action":9,"button_pressed":-1,"time_out":false,"dwell_time":82.135986328125,"response_time":1677000281211.36},{"trial":10,"action":1,"button_pressed":1,"time_out":false,"dwell_time":64.816162109375,"response_time":1677000298255.61},{"trial":10,"action":1,"button_pressed":9,"time_out":false,"dwell_time":64.575927734375,"response_time":1677000298688.07},{"trial":10,"action":1,"button_pressed":5,"time_out":false,"dwell_time":64.199951171875,"response_time":1677000299137.99},{"trial":10,"action":1,"button_pressed":6,"time_out":false,"dwell_time":81.81884765625,"response_time":1677000299654.99},{"trial":10,"action":1,"button_pressed":7,"time_out":false,"dwell_time":64.577880859375,"response_time":1677000300088.21},{"trial":10,"action":1,"button_pressed":2,"time_out":false,"dwell_time":64.822021484375,"response_time":1677000300571.14},{"trial":10,"action":9,"button_pressed":-1,"time_out":false,"dwell_time":82.11181640625,"response_time":1677000300988.03},{"trial":11,"action":1,"button_pressed":3,"time_out":false,"dwell_time":80.69091796875,"response_time":1677000320580.92},{"trial":11,"action":1,"button_pressed":0,"time_out":false,"dwell_time":98.587158203125,"response_time":1677000320997.87},{"trial":11,"action":1,"button_pressed":10,"time_out":false,"dwell_time":81.31689453125,"response_time":1677000321447.68},{"trial":11,"action":1,"button_pressed":5,"time_out":false,"dwell_time":79.926025390625,"response_time":1677000321880.14},{"trial":11,"action":1,"button_pressed":1,"time_out":false,"dwell_time":82.064208984375,"response_time":1677000322847.31},{"trial":11,"action":1,"button_pressed":4,"time_out":false,"dwell_time":48.149169921875,"response_time":1677000323330.24},{"trial":11,"action":1,"button_pressed":2,"time_out":false,"dwell_time":48.023193359375,"response_time":1677000323763.29},{"trial":11,"action":9,"button_pressed":-1,"time_out":false,"dwell_time":49.364013671875,"response_time":1677000324830.9},{"trial":12,"action":1,"button_pressed":1,"time_out":false,"dwell_time":81.593994140625,"response_time":1677000344939.78},{"trial":12,"action":1,"button_pressed":10,"time_out":false,"dwell_time":63.4140625,"response_time":1677000345455.83},{"trial":12,"action":1,"button_pressed":2,"time_out":false,"dwell_time":64.111083984375,"response_time":1677000345956.36},{"trial":12,"action":1,"button_pressed":6,"time_out":false,"dwell_time":80.70703125,"response_time":1677000346455.43},{"trial":12,"action":1,"button_pressed":7,"time_out":false,"dwell_time":81.18701171875,"response_time":1677000346906.32},{"trial":12,"action":1,"button_pressed":0,"time_out":false,"dwell_time":82.5390625,"response_time":1677000347372.69},{"trial":12,"action":1,"button_pressed":4,"time_out":false,"dwell_time":81.01806640625,"response_time":1677000347755.8},{"trial":12,"action":9,"button_pressed":-1,"time_out":false,"dwell_time":48.68212890625,"response_time":1677000349006.5}]}