{"meta_data":{"additional_headers":{},"game_name":"Recollect","version":"2.53.01","user_name":"27","organization":"braingamecenter","study":"mpl2_2022_11","session_number":0,"device_id":"74342D95-EE82-45E3-8ADF-48FB3203C5DD"},"data":[{"stage":"Practice","trial":0,"sequence":"6F","letter_input":"F","number_input":"6","is_correct":true,"presentation_start_time":1677000379710.44,"presentation_end_time":1677000382710.94,"response_time":1677000389210.67},{"stage":"Practice","trial":1,"sequence":"G4","letter_input":"G","number_input":"4","is_correct":true,"presentation_start_time":1677000390740.18,"presentation_end_time":1677000393740.41,"response_time":1677000398237.83},{"stage":"Practice","trial":2,"sequence":"3W5","letter_input":"W","number_input":"35","is_correct":true,"presentation_start_time":1677000399770.62,"presentation_end_time":1677000404270.32,"response_time":1677000409234.2},{"stage":"Practice","trial":3,"sequence":"T7L","letter_input":"LT","number_input":"7","is_correct":true,"presentation_start_time":1677000410767.01,"presentation_end_time":1677000415266.68,"response_time":1677000421346.9},{"stage":"Practice","trial":4,"sequence":"9J1","letter_input":"J","number_input":"19","is_correct":true,"presentation_start_time":1677000422879.63,"presentation_end_time":1677000427379.4,"response_time":1677000433959.56},{"stage":"Calibration","trial":0,"sequence":"4P","letter_input":"P","number_input":"4","is_correct":true,"presentation_start_time":1677000446955.19,"presentation_end_time":1677000449955.61,"response_time":1677000453536.46},{"stage":"Calibration","trial":1,"sequence":"G8","letter_input":"G","number_input":"8","is_correct":true,"presentation_start_time":1677000455069.17,"presentation_end_time":1677000458069.45,"response_time":1677000462516.87},{"stage":"Calibration","trial":2,"sequence":"7S5","letter_input":"S","number_input":"57","is_correct":true,"presentation_start_time":1677000464049.58,"presentation_end_time":1677000468549.35,"response_time":1677000474446.4},{"stage":"Calibration","trial":3,"sequence":"L8D","letter_input":"DL","number_input":"8","is_correct":true,"presentation_start_time":1677000475979,"presentation_end_time":1677000480478.75,"response_time":1677000489108.18},{"stage":"Calibration","trial":4,"sequence":"6F1B","letter_input":"BF","number_input":"16","is_correct":true,"presentation_start_time":1677000490640.92,"presentation_end_time":1677000496640.24,"response_time":1677000505186.35},{"stage":"Calibration","trial":5,"sequence":"N4H2","letter_input":"HN","number_input":"24","is_correct":true,"presentation_start_time":1677000506718.99,"presentation_end_time":1677000512718.28,"response_time":1677000522547.18},{"stage":"Calibration","trial":6,"sequence":"8Z6P3","letter_input":"PZ","number_input":"368","is_correct":true,"presentation_start_time":1677000524080.02,"presentation_end_time":1677000531578.87,"response_time":1677000538225.56},{"stage":"Calibration","trial":7,"sequence":"Q7F2W","letter_input":"FQW","number_input":"27","is_correct":true,"presentation_start_time":1677000539758.2,"presentation_end_time":1677000547257.04,"response_time":1677000559018.82},{"stage":"Calibration","trial":8,"sequence":"3M8V5R","letter_input":"MV","number_input":"358","is_correct":false,"presentation_start_time":1677000560551.5,"presentation_end_time":1677000569549.84,"response_time":1677000601021.58},{"stage":"Calibration","trial":9,"sequence":"B6Q4N1","letter_input":"BNQ","number_input":"146","is_correct":true,"presentation_start_time":1677000602554.32,"presentation_end_time":1677000611552.71,"response_time":1677000629895.65},{"stage":"Calibration","trial":10,"sequence":"3H8Z5M4","letter_input":"HMZ","number_input":"348","is_correct":false,"presentation_start_time":1677000631428.34,"presentation_end_time":1677000641926.29,"response_time":1677000652738.17},{"stage":"Calibration","trial":11,"sequence":"B9S6K1W","letter_input":"BKSW","number_input":"169","is_correct":true,"presentation_start_time":1677000654270.86,"presentation_end_time":1677000664768.66,"response_time":1677000690309.27},{"stage":"Calibration","trial":12,"sequence":"5T3R7P6J","letter_input":"PRT","number_input":"3567","is_correct":false,"presentation_start_time":1677000691841.98,"presentation_end_time":1677000703839.16,"response_time":1677000721415.79},{"stage":"Calibration","trial":13,"sequence":"Q4C1Y9M2","letter_input":"CQ","number_input":"2349","is_correct":false,"presentation_start_time":1677000722948.46,"presentation_end_time":1677000734945.78,"response_time":1677000751905.87}]}