{"meta_data":{"additional_headers":{},"game_name":"Recollect","version":"2.53.01","user_name":"28","organization":"braingamecenter","study":"mpl2_2022_11","session_number":0,"device_id":"74342D95-EE82-45E3-8ADF-48FB3203C5DD"},"data":[{"stage":"Practice","trial":0,"sequence":"6F","letter_input":"F","number_input":"6","is_correct":true,"presentation_start_time":1677029539124.96,"presentation_end_time":1677029542125.4,"response_time":1677029549008.21},{"stage":"Practice","trial":1,"sequence":"G4","letter_input":"G","number_input":"4","is_correct":true,"presentation_start_time":1677029550537.85,"presentation_end_time":1677029553538.2,"response_time":1677029559168.44},{"stage":"Practice","trial":2,"sequence":"3W5","letter_input":"W","number_input":"35","is_correct":true,"presentation_start_time":1677029560701.11,"presentation_end_time":1677029565200.91,"response_time":1677029571281.08},{"stage":"Practice","trial":3,"sequence":"T7L","letter_input":"LT","number_input":"7","is_correct":true,"presentation_start_time":1677029572813.76,"presentation_end_time":1677029577313.58,"response_time":1677029582844.03},{"stage":"Practice","trial":4,"sequence":"9J1","letter_input":"J","number_input":"19","is_correct":true,"presentation_start_time":1677029584376.61,"presentation_end_time":1677029588876.44,"response_time":1677029593373.8},{"stage":"Calibration","trial":0,"sequence":"R9","letter_input":"R","number_input":"9","is_correct":true,"presentation_start_time":1677029604886.51,"presentation_end_time":1677029607886.78,"response_time":1677029613916.95},{"stage":"Calibration","trial":1,"sequence":"5Q","letter_input":"Q","number_input":"5","is_correct":true,"presentation_start_time":1677029615449.68,"presentation_end_time":1677029618449.97,"response_time":1677029624796.72},{"stage":"Calibration","trial":2,"sequence":"R4L","letter_input":"LR","number_input":"4","is_correct":true,"presentation_start_time":1677029626329.42,"presentation_end_time":1677029630829.2,"response_time":1677029636359.57},{"stage":"Calibration","trial":3,"sequence":"8B5","letter_input":"B","number_input":"58","is_correct":true,"presentation_start_time":1677029637892.31,"presentation_end_time":1677029642392.2,"response_time":1677029647305.95},{"stage":"Calibration","trial":4,"sequence":"T9K3","letter_input":"KT","number_input":"39","is_correct":true,"presentation_start_time":1677029648838.66,"presentation_end_time":1677029654838,"response_time":1677029660551.58},{"stage":"Calibration","trial":5,"sequence":"7W4C","letter_input":"CW","number_input":"47","is_correct":true,"presentation_start_time":1677029662084.31,"presentation_end_time":1677029668083.57,"response_time":1677029674213.67},{"stage":"Calibration","trial":6,"sequence":"P9B3R","letter_input":"PR","number_input":"39","is_correct":false,"presentation_start_time":1677029675746.42,"presentation_end_time":1677029683245.22,"response_time":1677029717166.17},{"stage":"Calibration","trial":7,"sequence":"4Y2Q7","letter_input":"QTY","number_input":"247","is_correct":false,"presentation_start_time":1677029718698.83,"presentation_end_time":1677029726197.58,"response_time":1677029754237.19}]}