{"meta_data":{"additional_headers":{},"game_name":"Recollect","version":"2.53.01","user_name":"29","organization":"braingamecenter","study":"mpl2_2022_11","session_number":0,"device_id":"74342D95-EE82-45E3-8ADF-48FB3203C5DD"},"data":[{"stage":"Practice","trial":0,"sequence":"6F","letter_input":"F","number_input":"6","is_correct":true,"presentation_start_time":1677091156447.76,"presentation_end_time":1677091159448.03,"response_time":1677091166697.57},{"stage":"Practice","trial":1,"sequence":"G4","letter_input":"G","number_input":"4","is_correct":true,"presentation_start_time":1677091168227.21,"presentation_end_time":1677091171227.56,"response_time":1677091176058.08},{"stage":"Practice","trial":2,"sequence":"3W5","letter_input":"W","number_input":"3","is_correct":false,"presentation_start_time":1677091177590.81,"presentation_end_time":1677091182090.58,"response_time":1677091188653.88},{"stage":"Practice","trial":3,"sequence":"T7L","letter_input":"LT","number_input":"7","is_correct":true,"presentation_start_time":1677091191686.14,"presentation_end_time":1677091196186,"response_time":1677091200816.61},{"stage":"Practice","trial":4,"sequence":"9J1","letter_input":"J","number_input":"19","is_correct":true,"presentation_start_time":1677091202349.28,"presentation_end_time":1677091206849.08,"response_time":1677091213495.75},{"stage":"Calibration","trial":0,"sequence":"M9","letter_input":"M","number_input":"9","is_correct":true,"presentation_start_time":1677091216961.22,"presentation_end_time":1677091219961.46,"response_time":1677091224108.95},{"stage":"Calibration","trial":1,"sequence":"4P","letter_input":"P","number_input":"4","is_correct":true,"presentation_start_time":1677091225641.66,"presentation_end_time":1677091228641.89,"response_time":1677091232839.44},{"stage":"Calibration","trial":2,"sequence":"V8M","letter_input":"MV","number_input":"8","is_correct":true,"presentation_start_time":1677091234372.13,"presentation_end_time":1677091238871.84,"response_time":1677091243535.87},{"stage":"Calibration","trial":3,"sequence":"9G3","letter_input":"G","number_input":"39","is_correct":true,"presentation_start_time":1677091245068.53,"presentation_end_time":1677091249568.41,"response_time":1677091256648.3},{"stage":"Calibration","trial":4,"sequence":"M7F1","letter_input":"FM","number_input":"17","is_correct":true,"presentation_start_time":1677091258180.95,"presentation_end_time":1677091264180.25,"response_time":1677091271126.78},{"stage":"Calibration","trial":5,"sequence":"5Y2N","letter_input":"NY","number_input":"25","is_correct":true,"presentation_start_time":1677091272659.52,"presentation_end_time":1677091278658.88,"response_time":1677091285838.64},{"stage":"Calibration","trial":6,"sequence":"J7B3S","letter_input":"BJS","number_input":"37","is_correct":true,"presentation_start_time":1677091287371.34,"presentation_end_time":1677091294870.2,"response_time":1677091300783.7},{"stage":"Calibration","trial":7,"sequence":"1V8C5","letter_input":"CV","number_input":"158","is_correct":true,"presentation_start_time":1677091302316.36,"presentation_end_time":1677091309815.28,"response_time":1677091315412.21},{"stage":"Calibration","trial":8,"sequence":"T6Q2K9","letter_input":"KTV","number_input":"169","is_correct":false,"presentation_start_time":1677091316944.95,"presentation_end_time":1677091325943.25,"response_time":1677091334789.16},{"stage":"Calibration","trial":9,"sequence":"3Z8N5A","letter_input":"ANZ","number_input":"358","is_correct":true,"presentation_start_time":1677091336321.8,"presentation_end_time":1677091345320.13,"response_time":1677091357981.5},{"stage":"Calibration","trial":10,"sequence":"R4F2J6H","letter_input":"HFJR","number_input":"246","is_correct":false,"presentation_start_time":1677091359514.24,"presentation_end_time":1677091370012.08,"response_time":1677091402966.74},{"stage":"Calibration","trial":11,"sequence":"1Z8K5D3","letter_input":"DKZ","number_input":"1358","is_correct":true,"presentation_start_time":1677091404499.41,"presentation_end_time":1677091414997.24,"response_time":1677091423626.58},{"stage":"Calibration","trial":12,"sequence":"N2A6W4R9","letter_input":"ANWR","number_input":"2469","is_correct":false,"presentation_start_time":1677091425159.27,"presentation_end_time":1677091437156.66,"response_time":1677091443520.11},{"stage":"Calibration","trial":13,"sequence":"7G5C3V1E","letter_input":"CGW","number_input":"1357","is_correct":false,"presentation_start_time":1677091445052.8,"presentation_end_time":1677091457050.18,"response_time":1677091467628.78}]}