Audio_Only_Files,Video_Files,Original_Word_List,noiseLevelCode,conditionCodes,noiseLevelFile1,noiseLevelFile2,InstrTextVar,practiceTrials.thisRepN,practiceTrials.thisTrialN,practiceTrials.thisN,practiceTrials.thisIndex,trials.thisRepN,trials.thisTrialN,trials.thisN,trials.thisIndex,letsGoAlready.keys,letsGoAlready.rt,letsGoAlready.started,letsGoAlready.stopped,text_2.started,text_2.stopped,text_3.started,text_3.stopped,key_resp_2.keys,key_resp_2.rt,key_resp_2.started,key_resp_2.stopped,text_5.started,text_5.stopped,fixCross.started,fixCross.stopped,fixCross2.started,fixCross2.stopped,answerPrompt.started,answerPrompt.stopped,getAnswer.text,getAnswer.started,getAnswer.stopped,goToNext.keys,goToNext.rt,goToNext.started,goToNext.stopped,stretchBreakTxrt.started,stretchBreakTxrt.stopped,key_resp_3.keys,key_resp_3.rt,key_resp_3.started,key_resp_3.stopped,exitTxt.started,exitTxt.stopped,key_resp.keys,key_resp.rt,key_resp.started,key_resp.stopped,participant,session,date,expName,psychopyVersion,frameRate,
,,,,,,,,,,,,,,,,space,2.24805891700089,10.78637870302191,None,,,,,,,,,,,,,,,,,,,,,,,,,,,,,,,,,,,,2,001,2022_Nov_21_1646,SpeechDraft1Carolyn_lessNoise,2021.2.3,59.97697052522312,
,,,,,,,,,,,,,,,,,,,,10.78637870302191,None,13.053290189011022,None,space,4.013798859028611,13.236606627004221,None,,,,,,,,,,,,,,,,,,,,,,,,,,,,2,001,2022_Nov_21_1646,SpeechDraft1Carolyn_lessNoise,2021.2.3,59.97697052522312,
ash.wav,ash.mpg,ash,1,A,Pink_Noise_1_1.wav,Pink_Noise_1_2.wav,"This is an example of an

AUDIO trial",0,0,0,0,,,,,,,,,,,,,,,,,17.28681526600849,None,18.28651088802144,None,22.11980698897969,None,23.48620884399861,None,ash,23.48620884399861,None,return,5.272884705045726,23.569586221012287,None,,,,,,,,,,,,,2,001,2022_Nov_21_1646,SpeechDraft1Carolyn_lessNoise,2021.2.3,59.97697052522312,
ash.wav,ash.mpg,ash,1,AV,Pink_Noise_1_1.wav,Pink_Noise_1_2.wav,"This is an example of an

AUDIO + VIDEO  trial",0,1,1,1,,,,,,,,,,,,,,,,,28.88661983498605,None,29.886581573984586,None,31.370152943010908,None,32.75280467799166,None,"ash
",32.75280467799166,None,return,3.2694635429652408,32.83688965003239,None,,,,,,,,,,,,,2,001,2022_Nov_21_1646,SpeechDraft1Carolyn_lessNoise,2021.2.3,59.97697052522312,
,,,,,,,,,,,,,,,,,,,,,,,,,,,,,,,,,,,,,,,,,,,36.15279542200733,None,space,32.73792251403211,36.336542000004556,None,,,,,,,2,001,2022_Nov_21_1646,SpeechDraft1Carolyn_lessNoise,2021.2.3,59.97697052522312,
blame.wav,blame.mpg,blame,6,AV,Pink_Noise_6_1.wav,Pink_Noise_6_2.wav,,,,,,0,0,0,111,,,,,,,,,,,,,,,69.1365891789901,None,70.65321366302669,None,72.03641272900859,None,frog,72.03641272900859,None,return,8.474109982023947,72.12025915202685,None,,,,,,,,,,,,,2,001,2022_Nov_21_1646,SpeechDraft1Carolyn_lessNoise,2021.2.3,59.97697052522312,
stain.wav,stain.mpg,stain,3,A,Pink_Noise_3_1.wav,Pink_Noise_3_2.wav,,,,,,0,1,1,52,,,,,,,,,,,,,,,80.62029977299972,None,82.15251355798682,None,83.53688769199653,None,stain,83.53688769199653,None,return,3.0385839539812878,83.61984744499205,None,,,,,,,,,,,,,2,001,2022_Nov_21_1646,SpeechDraft1Carolyn_lessNoise,2021.2.3,59.97697052522312,
sue.wav,sue.mpg,sue,6,AV,Pink_Noise_6_1.wav,Pink_Noise_6_2.wav,,,,,,0,2,2,107,,,,,,,,,,,,,,,86.68595113302581,None,88.17066134302877,None,89.55298568902072,None,"soup
",89.55298568902072,None,return,2.518337124027312,89.6360270549776,None,,,,,,,,,,,,,2,001,2022_Nov_21_1646,SpeechDraft1Carolyn_lessNoise,2021.2.3,59.97697052522312,
bible.wav,bible.mpg,bible,3,AV,Pink_Noise_3_1.wav,Pink_Noise_3_2.wav,,,,,,0,3,3,76,,,,,,,,,,,,,,,92.18669375800528,None,93.7199246379896,None,95.10281152703101,None,"bible
",95.10281152703101,None,return,1.9194975119899027,95.18684893101454,None,,,,,,,,,,,,,2,001,2022_Nov_21_1646,SpeechDraft1Carolyn_lessNoise,2021.2.3,59.97697052522312,
cup.wav,cup.mpg,cup,4,A,Pink_Noise_4_1.wav,Pink_Noise_4_2.wav,,,,,,0,4,4,28,,,,,,,,,,,,,,,97.1367773450329,None,98.65356049401453,None,100.0199502800242,None,count,100.0199502800242,None,return,5.1788525769952685,100.10351993201766,None,,,,,,,,,,,,,2,001,2022_Nov_21_1646,SpeechDraft1Carolyn_lessNoise,2021.2.3,59.97697052522312,
fifth.wav,fifth.mpg,fifth,6,A,Pink_Noise_6_1.wav,Pink_Noise_6_2.wav,,,,,,0,5,5,20,,,,,,,,,,,,,,,105.30259798001498,None,106.8365335430135,None,108.22014044900425,None,sink,108.22014044900425,None,return,2.1392330080270767,108.30318000802072,None,,,,,,,,,,,,,2,001,2022_Nov_21_1646,SpeechDraft1Carolyn_lessNoise,2021.2.3,59.97697052522312,
gush.wav,gush.mpg,gush,4,A,Pink_Noise_4_1.wav,Pink_Noise_4_2.wav,,,,,,0,6,6,59,,,,,,,,,,,,,,,110.46979271899909,None,111.96924234298058,None,113.35278191103134,None,gush,113.35278191103134,None,return,4.789458341023419,113.4369392869994,None,,,,,,,,,,,,,2,001,2022_Nov_21_1646,SpeechDraft1Carolyn_lessNoise,2021.2.3,59.97697052522312,
flash.wav,flash.mpg,flash,4,A,Pink_Noise_4_1.wav,Pink_Noise_4_2.wav,,,,,,0,7,7,2,,,,,,,,,,,,,,,118.25330061098794,None,119.7697838509921,None,121.15269163099583,None,"brush
",121.15269163099583,None,return,2.2857679060543887,121.23660429799929,None,,,,,,,,,,,,,2,001,2022_Nov_21_1646,SpeechDraft1Carolyn_lessNoise,2021.2.3,59.97697052522312,
grant.wav,grant.mpg,grant,4,AV,Pink_Noise_4_1.wav,Pink_Noise_4_2.wav,,,,,,0,8,8,92,,,,,,,,,,,,,,,123.55290923500434,None,125.0526385330013,None,126.43655703502009,None,grant,126.43655703502009,None,return,2.562804847024381,126.5195570869837,None,,,,,,,,,,,,,2,001,2022_Nov_21_1646,SpeechDraft1Carolyn_lessNoise,2021.2.3,59.97697052522312,
route.wav,route.mpg,route,6,A,Pink_Noise_6_1.wav,Pink_Noise_6_2.wav,,,,,,0,9,9,27,,,,,,,,,,,,,,,129.10349532403052,None,130.60341323103057,None,131.98681991599733,None,"soup
",131.98681991599733,None,return,2.4843115790281445,132.07005006697727,None,,,,,,,,,,,,,2,001,2022_Nov_21_1646,SpeechDraft1Carolyn_lessNoise,2021.2.3,59.97697052522312,
crisp.wav,crisp.mpg,crisp,1,A,Pink_Noise_1_1.wav,Pink_Noise_1_2.wav,,,,,,0,10,10,50,,,,,,,,,,,,,,,134.5867506050272,None,136.12008572201012,None,137.50331827497575,None,crisp,137.50331827497575,None,return,2.2157300299732015,137.58676599001046,None,,,,,,,,,,,,,2,001,2022_Nov_21_1646,SpeechDraft1Carolyn_lessNoise,2021.2.3,59.97697052522312,
dial.wav,dial.mpg,dial,5,A,Pink_Noise_5_1.wav,Pink_Noise_5_2.wav,,,,,,0,11,11,38,,,,,,,,,,,,,,,139.81967852503294,None,141.32003464299487,None,142.70343187300023,None,"dice
",142.70343187300023,None,return,4.335801359033212,142.78652368602343,None,,,,,,,,,,,,,2,001,2022_Nov_21_1646,SpeechDraft1Carolyn_lessNoise,2021.2.3,59.97697052522312,
crown.wav,crown.mpg,crown,5,A,Pink_Noise_5_1.wav,Pink_Noise_5_2.wav,,,,,,0,12,12,19,,,,,,,,,,,,,,,147.15305335901212,None,148.65341372299008,None,150.0359963410301,None,crown,150.0359963410301,None,return,2.714657308009919,150.11978526000166,None,,,,,,,,,,,,,2,001,2022_Nov_21_1646,SpeechDraft1Carolyn_lessNoise,2021.2.3,59.97697052522312,
cream.wav,cream.mpg,cream,1,AV,Pink_Noise_1_1.wav,Pink_Noise_1_2.wav,,,,,,0,13,13,63,,,,,,,,,,,,,,,152.85325425700285,None,154.3695942159975,None,155.7534963520011,None,cream,155.7534963520011,None,return,1.9500661860220134,155.83635402400978,None,,,,,,,,,,,,,2,001,2022_Nov_21_1646,SpeechDraft1Carolyn_lessNoise,2021.2.3,59.97697052522312,
clown.wav,clown.mpg,clown,4,AV,Pink_Noise_4_1.wav,Pink_Noise_4_2.wav,,,,,,0,14,14,61,,,,,,,,,,,,,,,157.80348644201877,None,159.30344640801195,None,160.6865820719977,None,clown,160.6865820719977,None,return,2.592351754021365,160.77000924397726,None,,,,,,,,,,,,,2,001,2022_Nov_21_1646,SpeechDraft1Carolyn_lessNoise,2021.2.3,59.97697052522312,
row.wav,row.mpg,row,5,AV,Pink_Noise_5_1.wav,Pink_Noise_5_2.wav,,,,,,0,15,15,110,,,,,,,,,,,,,,,163.38641096203355,None,164.88664825202432,None,166.26963613700354,None,row,166.26963613700354,None,return,1.5774088490288705,166.3529513090034,None,,,,,,,,,,,,,2,001,2022_Nov_21_1646,SpeechDraft1Carolyn_lessNoise,2021.2.3,59.97697052522312,
beard.wav,beard.mpg,beard,5,AV,Pink_Noise_5_1.wav,Pink_Noise_5_2.wav,,,,,,0,16,16,73,,,,,,,,,,,,,,,167.95310597802745,None,169.46954582398757,None,170.85293001501122,None,"beer
",170.85293001501122,None,return,2.201692019996699,170.9366711039911,None,,,,,,,,,,,,,2,001,2022_Nov_21_1646,SpeechDraft1Carolyn_lessNoise,2021.2.3,59.97697052522312,
bride.wav,bride.mpg,bride,6,AV,Pink_Noise_6_1.wav,Pink_Noise_6_2.wav,,,,,,0,17,17,118,,,,,,,,,,,,,,,173.17021136300173,None,174.66971686203033,None,176.05349671299336,None,run,176.05349671299336,None,return,1.5297337269876152,176.1366304680123,None,,,,,,,,,,,,,2,001,2022_Nov_21_1646,SpeechDraft1Carolyn_lessNoise,2021.2.3,59.97697052522312,
barge.wav,barge.mpg,barge,4,AV,Pink_Noise_4_1.wav,Pink_Noise_4_2.wav,,,,,,0,18,18,96,,,,,,,,,,,,,,,177.68650493799942,None,179.20265530300094,None,180.58653790998505,None,barsh,180.58653790998505,None,return,4.9080268099787645,180.6703332909965,None,,,,,,,,,,,,,2,001,2022_Nov_21_1646,SpeechDraft1Carolyn_lessNoise,2021.2.3,59.97697052522312,
blast.wav,blast.mpg,blast,1,AV,Pink_Noise_1_1.wav,Pink_Noise_1_2.wav,,,,,,0,19,19,72,,,,,,,,,,,,,,,185.60278910701163,None,187.10350562102394,None,188.4870677710278,None,blast,188.4870677710278,None,return,3.3601933650206774,188.57016714301426,None,,,,,,,,,,,,,2,001,2022_Nov_21_1646,SpeechDraft1Carolyn_lessNoise,2021.2.3,59.97697052522312,
build.wav,build.mpg,build,2,A,Pink_Noise_2_1.wav,Pink_Noise_2_2.wav,,,,,,0,20,20,54,,,,,,,,,,,,,,,191.95330261503113,None,193.4526309859939,None,194.83737471600762,None,built,194.83737471600762,None,return,3.9781900189700536,194.9202028180007,None,,,,,,,,,,,,,2,001,2022_Nov_21_1646,SpeechDraft1Carolyn_lessNoise,2021.2.3,59.97697052522312,
chill.wav,chill.mpg,chill,3,A,Pink_Noise_3_1.wav,Pink_Noise_3_2.wav,,,,,,0,21,21,43,,,,,,,,,,,,,,,198.91989526699763,None,200.4530380779761,None,201.8364423729945,None,"chill
",201.8364423729945,None,return,2.202651552972384,201.91974871099228,None,,,,,,,,,,,,,2,001,2022_Nov_21_1646,SpeechDraft1Carolyn_lessNoise,2021.2.3,59.97697052522312,
pipe.wav,pipe.mpg,pipe,2,AV,Pink_Noise_2_1.wav,Pink_Noise_2_2.wav,,,,,,0,22,22,79,,,,,,,,,,,,,,,204.1537535879761,None,205.66969718103064,None,207.05275727499975,None,pipe,207.05275727499975,None,return,1.810213817982003,207.13613924599485,None,,,,,,,,,,,,,2,001,2022_Nov_21_1646,SpeechDraft1Carolyn_lessNoise,2021.2.3,59.97697052522312,
birth.wav,birth.mpg,birth,5,AV,Pink_Noise_5_1.wav,Pink_Noise_5_2.wav,,,,,,0,23,23,104,,,,,,,,,,,,,,,208.969751148019,None,210.46945044898894,None,211.85346950602252,None,"burn
",211.85346950602252,None,return,2.5855671879835427,211.93679077998968,None,,,,,,,,,,,,,2,001,2022_Nov_21_1646,SpeechDraft1Carolyn_lessNoise,2021.2.3,59.97697052522312,
card.wav,card.mpg,card,1,A,Pink_Noise_1_1.wav,Pink_Noise_1_2.wav,,,,,,0,24,24,0,,,,,,,,,,,,,,,214.55324213200947,None,216.05339454702334,None,217.436371718999,None,"card
",217.436371718999,None,return,2.217949967016466,217.52042094501667,None,,,,,,,,,,,,,2,001,2022_Nov_21_1646,SpeechDraft1Carolyn_lessNoise,2021.2.3,59.97697052522312,
grasp.wav,grasp.mpg,grasp,6,AV,Pink_Noise_6_1.wav,Pink_Noise_6_2.wav,,,,,,0,25,25,113,,,,,,,,,,,,,,,219.76981289399555,None,221.28647748503136,None,222.6694354779902,None,"grace
",222.6694354779902,None,return,2.4166198350139894,222.75375178299146,None,,,,,,,,,,,,,2,001,2022_Nov_21_1646,SpeechDraft1Carolyn_lessNoise,2021.2.3,59.97697052522312,
friend.wav,friend.mpg,friend,2,A,Pink_Noise_2_1.wav,Pink_Noise_2_2.wav,,,,,,0,26,26,17,,,,,,,,,,,,,,,225.20381447998807,None,226.72005916800117,None,228.10364031000063,None,"friend
",228.10364031000063,None,return,2.119305887958035,228.18705474497983,None,,,,,,,,,,,,,2,001,2022_Nov_21_1646,SpeechDraft1Carolyn_lessNoise,2021.2.3,59.97697052522312,
catch.wav,catch.mpg,catch,2,A,Pink_Noise_2_1.wav,Pink_Noise_2_2.wav,,,,,,0,27,27,25,,,,,,,,,,,,,,,230.3364377390244,None,231.85277068498544,None,233.2370095680235,None,catch,233.2370095680235,None,return,1.9453268670476973,233.32102362898877,None,,,,,,,,,,,,,2,001,2022_Nov_21_1646,SpeechDraft1Carolyn_lessNoise,2021.2.3,59.97697052522312,
truck.wav,truck.mpg,truck,2,AV,Pink_Noise_2_1.wav,Pink_Noise_2_2.wav,,,,,,0,28,28,78,,,,,,,,,,,,,,,235.28667061799206,None,236.80274659302086,None,238.18641854001908,None,"chuck
",238.18641854001908,None,return,3.8685650750412606,238.26979833299993,None,,,,,,,,,,,,,2,001,2022_Nov_21_1646,SpeechDraft1Carolyn_lessNoise,2021.2.3,59.97697052522312,
bleak.wav,bleak.mpg,bleak,2,AV,Pink_Noise_2_1.wav,Pink_Noise_2_2.wav,,,,,,0,29,29,69,,,,,,,,,,,,,,,242.1700165660004,None,243.70354167802725,None,245.08614832500461,None,bleak,245.08614832500461,None,return,1.832802354998421,245.1696313570137,None,,,,,,,,,,,,,2,001,2022_Nov_21_1646,SpeechDraft1Carolyn_lessNoise,2021.2.3,59.97697052522312,
squat.wav,squat.mpg,squat,6,AV,Pink_Noise_6_1.wav,Pink_Noise_6_2.wav,,,,,,0,30,30,94,,,,,,,,,,,,,,,247.01960217399755,None,248.53699983202387,None,249.92008552502375,None,twine,249.92008552502375,None,return,4.974682133994065,250.00368681899272,None,,,,,,,,,,,,,2,001,2022_Nov_21_1646,SpeechDraft1Carolyn_lessNoise,2021.2.3,59.97697052522312,
wheat.wav,wheat.mpg,wheat,5,A,Pink_Noise_5_1.wav,Pink_Noise_5_2.wav,,,,,,0,31,31,58,,,,,,,,,,,,,,,255.00350617500953,None,256.5697297810111,None,257.9530520539847,None,"wait
",257.9530520539847,None,return,1.8541956169647165,258.0361680170172,None,,,,,,,,,,,,,2,001,2022_Nov_21_1646,SpeechDraft1Carolyn_lessNoise,2021.2.3,59.97697052522312,
two.wav,two.mpg,two,1,AV,Pink_Noise_1_1.wav,Pink_Noise_1_2.wav,,,,,,0,32,32,97,,,,,,,,,,,,,,,259.9198712420184,None,261.41993584501324,None,262.8033666529809,None,two,262.8033666529809,None,return,1.2914930109982379,262.8868938399828,None,,,,,,,,,,,,,2,001,2022_Nov_21_1646,SpeechDraft1Carolyn_lessNoise,2021.2.3,59.97697052522312,
bend.wav,bend.mpg,bend,5,A,Pink_Noise_5_1.wav,Pink_Noise_5_2.wav,,,,,,0,33,33,11,,,,,,,,,,,,,,,264.2038814959815,None,265.7194849610096,None,267.10365298198303,None,dog,267.10365298198303,None,return,2.4157366530271247,267.18678832100704,None,,,,,,,,,,,,,2,001,2022_Nov_21_1646,SpeechDraft1Carolyn_lessNoise,2021.2.3,59.97697052522312,
beef.wav,beef.mpg,beef,2,A,Pink_Noise_2_1.wav,Pink_Noise_2_2.wav,,,,,,0,34,34,29,,,,,,,,,,,,,,,269.62046300800284,None,271.13691853702767,None,272.5199486450292,None,beef,272.5199486450292,None,return,1.4313438850222155,272.6030849890085,None,,,,,,,,,,,,,2,001,2022_Nov_21_1646,SpeechDraft1Carolyn_lessNoise,2021.2.3,59.97697052522312,
broom.wav,broom.mpg,broom,3,A,Pink_Noise_3_1.wav,Pink_Noise_3_2.wav,,,,,,0,35,35,13,,,,,,,,,,,,,,,274.0536837870022,None,275.5703121839906,None,276.9373062790255,None,brute,276.9373062790255,None,return,7.0143623179756105,277.0201550120255,None,,,,,,,,,,,,,2,001,2022_Nov_21_1646,SpeechDraft1Carolyn_lessNoise,2021.2.3,59.97697052522312,
quit.wav,quit.mpg,quit,4,AV,Pink_Noise_4_1.wav,Pink_Noise_4_2.wav,,,,,,0,36,36,106,,,,,,,,,,,,,,,284.05348568299087,None,285.5874441540218,None,286.9698776070145,None,quilt,286.9698776070145,None,return,2.3730515830102377,287.0534934489988,None,,,,,,,,,,,,,2,001,2022_Nov_21_1646,SpeechDraft1Carolyn_lessNoise,2021.2.3,59.97697052522312,
mass.wav,mass.mpg,mass,3,A,Pink_Noise_3_1.wav,Pink_Noise_3_2.wav,,,,,,0,37,37,44,,,,,,,,,,,,,,,289.4536668920191,None,290.9693855289952,None,292.35338116798084,None,"mask
",292.35338116798084,None,return,5.101830330037046,292.43653831997653,None,,,,,,,,,,,,,2,001,2022_Nov_21_1646,SpeechDraft1Carolyn_lessNoise,2021.2.3,59.97697052522312,
gag.wav,gag.mpg,gag,1,A,Pink_Noise_1_1.wav,Pink_Noise_1_2.wav,,,,,,0,38,38,37,,,,,,,,,,,,,,,297.5697787220124,None,299.08636498101987,None,300.4702085070312,None,"gag
",300.4702085070312,None,return,2.185240094026085,300.5531226780149,None,,,,,,,,,,,,,2,001,2022_Nov_21_1646,SpeechDraft1Carolyn_lessNoise,2021.2.3,59.97697052522312,
beg.wav,beg.mpg,beg,4,AV,Pink_Noise_4_1.wav,Pink_Noise_4_2.wav,,,,,,0,39,39,86,,,,,,,,,,,,,,,302.7702344750287,None,304.2701646260102,None,305.6532472820254,None,felt,305.6532472820254,None,return,1.5052424200112,305.7372287149774,None,,,,,,,,,,,,,2,001,2022_Nov_21_1646,SpeechDraft1Carolyn_lessNoise,2021.2.3,59.97697052522312,
foil.wav,foil.mpg,foil,1,A,Pink_Noise_1_1.wav,Pink_Noise_1_2.wav,,,,,,0,40,40,36,,,,,,,,,,,,,,,307.2702946329955,None,308.78632771602133,None,310.17000459402334,None,foil,310.17000459402334,None,return,1.4767788629978895,310.25358802702976,None,,,,,,,,,,,,,2,001,2022_Nov_21_1646,SpeechDraft1Carolyn_lessNoise,2021.2.3,59.97697052522312,
grim.wav,grim.mpg,grim,1,AV,Pink_Noise_1_1.wav,Pink_Noise_1_2.wav,,,,,,0,41,41,119,,,,,,,,,,,,,,,311.7529419520288,None,313.2701533139916,None,314.6368449340225,None,grim,314.6368449340225,None,return,2.914041958982125,314.72041017300216,None,,,,,,,,,,,,,2,001,2022_Nov_21_1646,SpeechDraft1Carolyn_lessNoise,2021.2.3,59.97697052522312,
four.wav,four.mpg,four,3,AV,Pink_Noise_3_1.wav,Pink_Noise_3_2.wav,,,,,,0,42,42,114,,,,,,,,,,,,,,,317.6537399420049,None,319.18601210898487,None,320.5696227879962,None,bored,320.5696227879962,None,return,4.060468760028016,320.65388259099564,None,,,,,,,,,,,,,2,001,2022_Nov_21_1646,SpeechDraft1Carolyn_lessNoise,2021.2.3,59.97697052522312,
pride.wav,pride.mpg,pride,3,AV,Pink_Noise_3_1.wav,Pink_Noise_3_2.wav,,,,,,0,43,43,85,,,,,,,,,,,,,,,324.73665143799735,None,326.2532117210212,None,327.63721389498096,None,five,327.63721389498096,None,return,1.5624796809861436,327.71988856903045,None,,,,,,,,,,,,,2,001,2022_Nov_21_1646,SpeechDraft1Carolyn_lessNoise,2021.2.3,59.97697052522312,
dog.wav,dog.mpg,dog,6,A,Pink_Noise_6_1.wav,Pink_Noise_6_2.wav,,,,,,0,44,44,14,,,,,,,,,,,,,,,329.3038501610281,None,330.8200516119832,None,332.20341415400617,None,burn,332.20341415400617,None,return,5.595417713979259,332.28694089403143,None,,,,,,,,,,,,,2,001,2022_Nov_21_1646,SpeechDraft1Carolyn_lessNoise,2021.2.3,59.97697052522312,
chew.wav,chew.mpg,chew,2,A,Pink_Noise_2_1.wav,Pink_Noise_2_2.wav,,,,,,0,45,45,7,,,,,,,,,,,,,,,337.90377932798583,None,339.419314053026,None,340.7866507769795,None,chew,340.7866507769795,None,return,1.8283890419988893,340.870005631994,None,,,,,,,,,,,,,2,001,2022_Nov_21_1646,SpeechDraft1Carolyn_lessNoise,2021.2.3,59.97697052522312,
bake.wav,bake.mpg,bake,4,AV,Pink_Noise_4_1.wav,Pink_Noise_4_2.wav,,,,,,0,46,46,112,,,,,,,,,,,,,,,342.71982789301546,None,344.2366507630213,None,345.61994203401264,None,"bake
",345.61994203401264,None,return,1.6504774310160428,345.7038998589851,None,,,,,,,,,,,,,2,001,2022_Nov_21_1646,SpeechDraft1Carolyn_lessNoise,2021.2.3,59.97697052522312,
bias.wav,bias.mpg,bias,1,AV,Pink_Noise_1_1.wav,Pink_Noise_1_2.wav,,,,,,0,47,47,115,,,,,,,,,,,,,,,347.3872277450282,None,348.88719932199456,None,350.270506181987,None,bias,350.270506181987,None,return,1.40868995297933,350.3536707360181,None,,,,,,,,,,,,,2,001,2022_Nov_21_1646,SpeechDraft1Carolyn_lessNoise,2021.2.3,59.97697052522312,
brawl.wav,brawl.mpg,brawl,6,A,Pink_Noise_6_1.wav,Pink_Noise_6_2.wav,,,,,,0,48,48,48,,,,,,,,,,,,,,,351.78689404699253,None,353.3030262920074,None,354.68730104801944,None,"dog
",354.68730104801944,None,return,1.1678173569962382,354.77054513501935,None,,,,,,,,,,,,,2,001,2022_Nov_21_1646,SpeechDraft1Carolyn_lessNoise,2021.2.3,59.97697052522312,
tomb.wav,tomb.mpg,tomb,2,AV,Pink_Noise_2_1.wav,Pink_Noise_2_2.wav,,,,,,0,49,49,62,,,,,,,,,,,,,,,355.9704922849778,None,357.4699352600146,None,358.85329398099566,None,two,358.85329398099566,None,return,1.192969074996654,358.93739192403154,None,,,,,,,,,,,,,2,001,2022_Nov_21_1646,SpeechDraft1Carolyn_lessNoise,2021.2.3,59.97697052522312,
funk.wav,funk.mpg,funk,5,A,Pink_Noise_5_1.wav,Pink_Noise_5_2.wav,,,,,,0,50,50,45,,,,,,,,,,,,,,,360.15353218797827,None,361.68741360201966,None,363.07010915799765,None,funk,363.07010915799765,None,return,2.249210754991509,363.1533344180207,None,,,,,,,,,,,,,2,001,2022_Nov_21_1646,SpeechDraft1Carolyn_lessNoise,2021.2.3,59.97697052522312,
eat.wav,eat.mpg,eat,4,A,Pink_Noise_4_1.wav,Pink_Noise_4_2.wav,,,,,,0,51,51,4,,,,,,,,,,,,,,,365.42024988197954,None,366.9200723519898,None,368.3037189299939,None,beat,368.3037189299939,None,return,1.9431760589941405,368.38721724500647,None,,,,,,,,,,,,,2,001,2022_Nov_21_1646,SpeechDraft1Carolyn_lessNoise,2021.2.3,59.97697052522312,
buzz.wav,buzz.mpg,buzz,6,A,Pink_Noise_6_1.wav,Pink_Noise_6_2.wav,,,,,,0,52,52,3,,,,,,,,,,,,,,,370.35408862802433,None,371.85371329600457,None,373.2371590110124,None,nice,373.2371590110124,None,return,1.7141228480031714,373.32035701099085,None,,,,,,,,,,,,,2,001,2022_Nov_21_1646,SpeechDraft1Carolyn_lessNoise,2021.2.3,59.97697052522312,
chief.wav,chief.mpg,chief,1,AV,Pink_Noise_1_1.wav,Pink_Noise_1_2.wav,,,,,,0,53,53,74,,,,,,,,,,,,,,,375.0539463299792,None,376.5538874199847,None,377.9366950200056,None,"chief
",377.9366950200056,None,return,3.7020193400094286,378.02034296898637,None,,,,,,,,,,,,,2,001,2022_Nov_21_1646,SpeechDraft1Carolyn_lessNoise,2021.2.3,59.97697052522312,
dad.wav,dad.mpg,dad,2,AV,Pink_Noise_2_1.wav,Pink_Noise_2_2.wav,,,,,,0,54,54,103,,,,,,,,,,,,,,,381.7533862409764,None,383.3030071639805,None,384.6866644730326,None,"dad
",384.6866644730326,None,return,1.73586127004819,384.77050979202613,None,,,,,,,,,,,,,2,001,2022_Nov_21_1646,SpeechDraft1Carolyn_lessNoise,2021.2.3,59.97697052522312,
bound.wav,bound.mpg,bound,2,AV,Pink_Noise_2_1.wav,Pink_Noise_2_2.wav,,,,,,0,55,55,87,,,,,,,,,,,,,,,386.536398643977,None,388.0539519320009,None,389.43714799400186,None,found,389.43714799400186,None,return,1.8982854670030065,389.5201621709857,None,,,,,,,,,,,,,2,001,2022_Nov_21_1646,SpeechDraft1Carolyn_lessNoise,2021.2.3,59.97697052522312,
ease.wav,ease.mpg,ease,5,A,Pink_Noise_5_1.wav,Pink_Noise_5_2.wav,,,,,,0,56,56,15,,,,,,,,,,,,,,,391.43702643201686,None,392.93686792597873,None,394.3202588140266,None,"wait
",394.3202588140266,None,return,7.902564947959036,394.40379819099326,None,,,,,,,,,,,,,2,001,2022_Nov_21_1646,SpeechDraft1Carolyn_lessNoise,2021.2.3,59.97697052522312,
ball.wav,ball.mpg,ball,4,A,Pink_Noise_4_1.wav,Pink_Noise_4_2.wav,,,,,,0,57,57,53,,,,,,,,,,,,,,,402.3370108270319,None,403.86984179198043,None,405.2537337730173,None,fog,405.2537337730173,None,return,1.3936544599710032,405.3367086520302,None,,,,,,,,,,,,,2,001,2022_Nov_21_1646,SpeechDraft1Carolyn_lessNoise,2021.2.3,59.97697052522312,
eight.wav,eight.mpg,eight,1,A,Pink_Noise_1_1.wav,Pink_Noise_1_2.wav,,,,,,0,58,58,35,,,,,,,,,,,,,,,406.75383363000583,None,408.25390509399585,None,409.63685783202527,None,it,409.63685783202527,None,return,1.0666051949956454,409.7198327939841,None,,,,,,,,,,,,,2,001,2022_Nov_21_1646,SpeechDraft1Carolyn_lessNoise,2021.2.3,59.97697052522312,
bland.wav,bland.mpg,bland,4,AV,Pink_Noise_4_1.wav,Pink_Noise_4_2.wav,,,,,,0,59,59,89,,,,,,,,,,,,,,,410.803637524019,None,412.3029657099978,None,413.6872433020035,None,bland,413.6872433020035,None,return,1.8558430839912035,413.7705663550296,None,,,,,,,,,,,,,2,001,2022_Nov_21_1646,SpeechDraft1Carolyn_lessNoise,2021.2.3,59.97697052522312,
clay.wav,clay.mpg,clay,3,A,Pink_Noise_3_1.wav,Pink_Noise_3_2.wav,,,,,,0,60,60,10,,,,,,,,,,,,,,,415.6536687859916,None,417.15376487001777,None,418.5371286550071,None,"grey
",418.5371286550071,None,return,2.317941006971523,418.62042287603253,None,,,,,,,,,,,,,2,001,2022_Nov_21_1646,SpeechDraft1Carolyn_lessNoise,2021.2.3,59.97697052522312,
gulf.wav,gulf.mpg,gulf,3,AV,Pink_Noise_3_1.wav,Pink_Noise_3_2.wav,,,,,,0,61,61,88,,,,,,,,,,,,,,,420.9701044689864,None,422.48622402601177,None,423.870740621991,None,"golf
",423.870740621991,None,return,1.1846943980199285,423.9536668289802,None,,,,,,,,,,,,,2,001,2022_Nov_21_1646,SpeechDraft1Carolyn_lessNoise,2021.2.3,59.97697052522312,
flat.wav,flat.mpg,flat,3,AV,Pink_Noise_3_1.wav,Pink_Noise_3_2.wav,,,,,,0,62,62,93,,,,,,,,,,,,,,,425.17035063001094,None,426.67079139099224,None,428.0536504589836,None,flat,428.0536504589836,None,return,1.5295924249803647,428.1367947650142,None,,,,,,,,,,,,,2,001,2022_Nov_21_1646,SpeechDraft1Carolyn_lessNoise,2021.2.3,59.97697052522312,
chump.wav,chump.mpg,chump,6,AV,Pink_Noise_6_1.wav,Pink_Noise_6_2.wav,,,,,,0,63,63,108,,,,,,,,,,,,,,,429.6869316759985,None,431.18659319600556,None,432.57020545197884,None,jump,432.57020545197884,None,return,2.772733910998795,432.65373348997673,None,,,,,,,,,,,,,2,001,2022_Nov_21_1646,SpeechDraft1Carolyn_lessNoise,2021.2.3,59.97697052522312,
deem.wav,deem.mpg,deem,2,A,Pink_Noise_2_1.wav,Pink_Noise_2_2.wav,,,,,,0,64,64,30,,,,,,,,,,,,,,,435.4537640750059,None,436.9543548350339,None,438.3370639110217,None,dean,438.3370639110217,None,return,1.5978694729856215,438.42056784400484,None,,,,,,,,,,,,,2,001,2022_Nov_21_1646,SpeechDraft1Carolyn_lessNoise,2021.2.3,59.97697052522312,
clog.wav,clog.mpg,clog,6,A,Pink_Noise_6_1.wav,Pink_Noise_6_2.wav,,,,,,0,65,65,16,,,,,,,,,,,,,,,440.0366902850219,None,441.5375043579843,None,442.9201984999818,None,mom,442.9201984999818,None,return,2.5984685409930535,443.00392818800174,None,,,,,,,,,,,,,2,001,2022_Nov_21_1646,SpeechDraft1Carolyn_lessNoise,2021.2.3,59.97697052522312,
curb.wav,curb.mpg,curb,3,AV,Pink_Noise_3_1.wav,Pink_Noise_3_2.wav,,,,,,0,66,66,117,,,,,,,,,,,,,,,445.62093720800476,None,447.1199188900064,None,448.5031525120139,None,curb,448.5031525120139,None,return,1.4951932480325922,448.5871792199905,None,,,,,,,,,,,,,2,001,2022_Nov_21_1646,SpeechDraft1Carolyn_lessNoise,2021.2.3,59.97697052522312,
choir.wav,choir.mpg,choir,1,AV,Pink_Noise_1_1.wav,Pink_Noise_1_2.wav,,,,,,0,67,67,105,,,,,,,,,,,,,,,450.10397496499354,None,451.6361217959784,None,453.02026602998376,None,where,453.02026602998376,None,return,7.1463245889754035,453.1040472619934,None,,,,,,,,,,,,,2,001,2022_Nov_21_1646,SpeechDraft1Carolyn_lessNoise,2021.2.3,59.97697052522312,
carve.wav,carve.mpg,carve,1,AV,Pink_Noise_1_1.wav,Pink_Noise_1_2.wav,,,,,,0,68,68,67,,,,,,,,,,,,,,,460.2707172919763,None,461.8030088740052,None,463.1869920910103,None,"carve
",463.1869920910103,None,return,2.0517841649707407,463.2705774770002,None,,,,,,,,,,,,,2,001,2022_Nov_21_1646,SpeechDraft1Carolyn_lessNoise,2021.2.3,59.97697052522312,
break.wav,break.mpg,break,5,A,Pink_Noise_5_1.wav,Pink_Noise_5_2.wav,,,,,,0,69,69,42,,,,,,,,,,,,,,,465.35404385399306,None,466.87050229799934,None,468.2538006969844,None,blake,468.2538006969844,None,return,2.0336898419773206,468.33674638398224,None,,,,,,,,,,,,,2,001,2022_Nov_21_1646,SpeechDraft1Carolyn_lessNoise,2021.2.3,59.97697052522312,
draft.wav,draft.mpg,draft,4,AV,Pink_Noise_4_1.wav,Pink_Noise_4_2.wav,,,,,,0,70,70,99,,,,,,,,,,,,,,,470.38695631799055,None,471.88685359299416,None,473.27068108198,None,drape,473.27068108198,None,return,4.6562191499979235,473.35413889901247,None,,,,,,,,,,,,,2,001,2022_Nov_21_1646,SpeechDraft1Carolyn_lessNoise,2021.2.3,59.97697052522312,
brake.wav,brake.mpg,brake,1,AV,Pink_Noise_1_1.wav,Pink_Noise_1_2.wav,,,,,,0,71,71,66,,,,,,,,,,,,,,,478.03685582999606,None,479.55388075101655,None,480.93682563398033,None,break,480.93682563398033,None,return,1.9423351690056734,481.0200669069891,None,,,,,,,,,,,,,2,001,2022_Nov_21_1646,SpeechDraft1Carolyn_lessNoise,2021.2.3,59.97697052522312,
nine.wav,nine.mpg,nine,6,A,Pink_Noise_6_1.wav,Pink_Noise_6_2.wav,,,,,,0,72,72,57,,,,,,,,,,,,,,,482.9875134130125,None,484.4866831889958,None,485.870825504011,None,nice,485.870825504011,None,return,2.7282596419681795,485.9541485880036,None,,,,,,,,,,,,,2,001,2022_Nov_21_1646,SpeechDraft1Carolyn_lessNoise,2021.2.3,59.97697052522312,
clap.wav,clap.mpg,clap,4,AV,Pink_Noise_4_1.wav,Pink_Noise_4_2.wav,,,,,,0,73,73,71,,,,,,,,,,,,,,,488.70397866598796,None,490.20341627899325,None,491.5865584629937,None,clap,491.5865584629937,None,return,1.4915470100240782,491.67081087699626,None,,,,,,,,,,,,,2,001,2022_Nov_21_1646,SpeechDraft1Carolyn_lessNoise,2021.2.3,59.97697052522312,
fear.wav,fear.mpg,fear,6,A,Pink_Noise_6_1.wav,Pink_Noise_6_2.wav,,,,,,0,74,74,47,,,,,,,,,,,,,,,493.187076910981,None,494.70306207600515,None,496.0867099860334,None,sea,496.0867099860334,None,return,3.023986660002265,496.17047068098327,None,,,,,,,,,,,,,2,001,2022_Nov_21_1646,SpeechDraft1Carolyn_lessNoise,2021.2.3,59.97697052522312,
frog.wav,frog.mpg,frog,3,A,Pink_Noise_3_1.wav,Pink_Noise_3_2.wav,,,,,,0,75,75,40,,,,,,,,,,,,,,,499.22058264299994,None,500.75377353298245,None,502.13741397700505,None,frog,502.13741397700505,None,return,3.005926357000135,502.2205316189793,None,,,,,,,,,,,,,2,001,2022_Nov_21_1646,SpeechDraft1Carolyn_lessNoise,2021.2.3,59.97697052522312,
sun.wav,sun.mpg,sun,6,A,Pink_Noise_6_1.wav,Pink_Noise_6_2.wav,,,,,,0,76,76,32,,,,,,,,,,,,,,,505.2538103029947,None,506.75410072202794,None,508.1374005450052,None,indent,508.1374005450052,None,return,5.766031782026403,508.2204193660291,None,,,,,,,,,,,,,2,001,2022_Nov_21_1646,SpeechDraft1Carolyn_lessNoise,2021.2.3,59.97697052522312,
ear.wav,ear.mpg,ear,5,AV,Pink_Noise_5_1.wav,Pink_Noise_5_2.wav,,,,,,0,77,77,91,,,,,,,,,,,,,,,514.0038607320166,None,515.553746849997,None,516.937009129033,None,view,516.937009129033,None,return,1.445753279956989,517.0206019789912,None,,,,,,,,,,,,,2,001,2022_Nov_21_1646,SpeechDraft1Carolyn_lessNoise,2021.2.3,59.97697052522312,
clean.wav,clean.mpg,clean,1,A,Pink_Noise_1_1.wav,Pink_Noise_1_2.wav,,,,,,0,78,78,5,,,,,,,,,,,,,,,518.4875275890226,None,519.9870975880185,None,521.3698293939815,None,clean,521.3698293939815,None,return,1.4044801860000007,521.4538724630256,None,,,,,,,,,,,,,2,001,2022_Nov_21_1646,SpeechDraft1Carolyn_lessNoise,2021.2.3,59.97697052522312,
cuff.wav,cuff.mpg,cuff,3,AV,Pink_Noise_3_1.wav,Pink_Noise_3_2.wav,,,,,,0,79,79,64,,,,,,,,,,,,,,,522.8870742479921,None,524.3864368210197,None,525.7704230259988,None,"cuff
",525.7704230259988,None,return,1.3004893970210105,525.8538616489968,None,,,,,,,,,,,,,2,001,2022_Nov_21_1646,SpeechDraft1Carolyn_lessNoise,2021.2.3,59.97697052522312,
dwell.wav,dwell.mpg,dwell,3,AV,Pink_Noise_3_1.wav,Pink_Noise_3_2.wav,,,,,,0,80,80,84,,,,,,,,,,,,,,,527.1870748780202,None,528.7364117419929,None,530.1201147279935,None,dwell,530.1201147279935,None,return,1.3109831160400063,530.2033678580192,None,,,,,,,,,,,,,2,001,2022_Nov_21_1646,SpeechDraft1Carolyn_lessNoise,2021.2.3,59.97697052522312,
strive.wav,strive.mpg,strive,5,AV,Pink_Noise_5_1.wav,Pink_Noise_5_2.wav,,,,,,0,81,81,100,,,,,,,,,,,,,,,531.537040101015,None,533.0366992880008,None,534.4204949550331,None,"strong
",534.4204949550331,None,return,1.618356182007119,534.5040218600188,None,,,,,,,,,,,,,2,001,2022_Nov_21_1646,SpeechDraft1Carolyn_lessNoise,2021.2.3,59.97697052522312,
chalk.wav,chalk.mpg,chalk,5,AV,Pink_Noise_5_1.wav,Pink_Noise_5_2.wav,,,,,,0,82,82,95,,,,,,,,,,,,,,,536.1538699769881,None,537.6699115139781,None,539.0538198340219,None,"chuck
",539.0538198340219,None,return,1.6014903679606505,539.1368684570189,None,,,,,,,,,,,,,2,001,2022_Nov_21_1646,SpeechDraft1Carolyn_lessNoise,2021.2.3,59.97697052522312,
clip.wav,clip.mpg,clip,5,A,Pink_Noise_5_1.wav,Pink_Noise_5_2.wav,,,,,,0,83,83,41,,,,,,,,,,,,,,,540.7708674960304,None,542.2703073110315,None,543.6535275119822,None,crisp,543.6535275119822,None,return,3.8978044830146246,543.736634292989,None,,,,,,,,,,,,,2,001,2022_Nov_21_1646,SpeechDraft1Carolyn_lessNoise,2021.2.3,59.97697052522312,
broil.wav,broil.mpg,broil,2,AV,Pink_Noise_2_1.wav,Pink_Noise_2_2.wav,,,,,,0,84,84,109,,,,,,,,,,,,,,,547.653839097009,None,549.2036623380263,None,550.5704808360315,None,"broil
",550.5704808360315,None,return,2.436687690031249,550.6536851790152,None,,,,,,,,,,,,,2,001,2022_Nov_21_1646,SpeechDraft1Carolyn_lessNoise,2021.2.3,59.97697052522312,
glow.wav,glow.mpg,glow,5,AV,Pink_Noise_5_1.wav,Pink_Noise_5_2.wav,,,,,,0,85,85,65,,,,,,,,,,,,,,,553.1203549950151,None,554.6203324079979,None,556.004178134026,None,glow,556.004178134026,None,return,1.9151685709948651,556.0873132320121,None,,,,,,,,,,,,,2,001,2022_Nov_21_1646,SpeechDraft1Carolyn_lessNoise,2021.2.3,59.97697052522312,
bring.wav,bring.mpg,bring,4,AV,Pink_Noise_4_1.wav,Pink_Noise_4_2.wav,,,,,,0,86,86,68,,,,,,,,,,,,,,,558.0207028280129,None,559.5536232839804,None,560.9371728370315,None,brink,560.9371728370315,None,return,1.854232972022146,561.0202463939786,None,,,,,,,,,,,,,2,001,2022_Nov_21_1646,SpeechDraft1Carolyn_lessNoise,2021.2.3,59.97697052522312,
drag.wav,drag.mpg,drag,3,A,Pink_Noise_3_1.wav,Pink_Noise_3_2.wav,,,,,,0,87,87,33,,,,,,,,,,,,,,,562.9042809060193,None,564.4203650300042,None,565.8039032940287,None,drag,565.8039032940287,None,return,1.1316095929942094,565.8868554949877,None,,,,,,,,,,,,,2,001,2022_Nov_21_1646,SpeechDraft1Carolyn_lessNoise,2021.2.3,59.97697052522312,
fame.wav,fame.mpg,fame,4,A,Pink_Noise_4_1.wav,Pink_Noise_4_2.wav,,,,,,0,88,88,34,,,,,,,,,,,,,,,567.0376242090133,None,568.536748271028,None,569.9206784879789,None,"faint
",569.9206784879789,None,return,1.3505335840163752,570.003837900993,None,,,,,,,,,,,,,2,001,2022_Nov_21_1646,SpeechDraft1Carolyn_lessNoise,2021.2.3,59.97697052522312,
bruise.wav,bruise.mpg,bruise,3,A,Pink_Noise_3_1.wav,Pink_Noise_3_2.wav,,,,,,0,89,89,31,,,,,,,,,,,,,,,571.3868812660221,None,572.9199428220163,None,574.3037326710182,None,breeze,574.3037326710182,None,return,1.7911360579892062,574.3872825410217,None,,,,,,,,,,,,,2,001,2022_Nov_21_1646,SpeechDraft1Carolyn_lessNoise,2021.2.3,59.97697052522312,
led.wav,led.mpg,led,4,A,Pink_Noise_4_1.wav,Pink_Noise_4_2.wav,,,,,,0,90,90,55,,,,,,,,,,,,,,,576.2034968630178,None,577.7207253280212,None,579.1042126099928,None,lead,579.1042126099928,None,return,2.9749857270508073,579.1873640210251,None,,,,,,,,,,,,,2,001,2022_Nov_21_1646,SpeechDraft1Carolyn_lessNoise,2021.2.3,59.97697052522312,
cab.wav,cab.mpg,cab,4,A,Pink_Noise_4_1.wav,Pink_Noise_4_2.wav,,,,,,0,91,91,26,,,,,,,,,,,,,,,582.1872670199955,None,583.7367637419957,None,585.1204712630133,None,cat,585.1204712630133,None,return,2.74254862498492,585.2038168939762,None,,,,,,,,,,,,,2,001,2022_Nov_21_1646,SpeechDraft1Carolyn_lessNoise,2021.2.3,59.97697052522312,
bat.wav,bat.mpg,bat,5,A,Pink_Noise_5_1.wav,Pink_Noise_5_2.wav,,,,,,0,92,92,46,,,,,,,,,,,,,,,587.970342118002,None,589.4707133779884,None,590.8539691219921,None,"mat
",590.8539691219921,None,return,1.7691718809655868,590.9371907070163,None,,,,,,,,,,,,,2,001,2022_Nov_21_1646,SpeechDraft1Carolyn_lessNoise,2021.2.3,59.97697052522312,
priest.wav,priest.mpg,priest,5,AV,Pink_Noise_5_1.wav,Pink_Noise_5_2.wav,,,,,,0,93,93,82,,,,,,,,,,,,,,,592.7367337369942,None,594.2530721870135,None,595.6371233970276,None,priest,595.6371233970276,None,return,3.8976838039816357,595.7207894489984,None,,,,,,,,,,,,,2,001,2022_Nov_21_1646,SpeechDraft1Carolyn_lessNoise,2021.2.3,59.97697052522312,
leapt.wav,leapt.mpg,leapt,6,AV,Pink_Noise_6_1.wav,Pink_Noise_6_2.wav,,,,,,0,94,94,75,,,,,,,,,,,,,,,599.6369985539932,None,601.1374697919819,None,602.5200263219886,None,left,602.5200263219886,None,return,1.5988319650059566,602.6036125519895,None,,,,,,,,,,,,,2,001,2022_Nov_21_1646,SpeechDraft1Carolyn_lessNoise,2021.2.3,59.97697052522312,
dense.wav,dense.mpg,dense,5,AV,Pink_Noise_5_1.wav,Pink_Noise_5_2.wav,,,,,,0,95,95,98,,,,,,,,,,,,,,,604.2203984310036,None,605.736525573011,None,607.1205965990084,None,nice,607.1205965990084,None,return,1.4700587599654682,607.2043732249876,None,,,,,,,,,,,,,2,001,2022_Nov_21_1646,SpeechDraft1Carolyn_lessNoise,2021.2.3,59.97697052522312,
grief.wav,grief.mpg,grief,1,AV,Pink_Noise_1_1.wav,Pink_Noise_1_2.wav,,,,,,0,96,96,101,,,,,,,,,,,,,,,608.7038637310034,None,610.204045378021,None,611.5868646680028,None,grief,611.5868646680028,None,return,1.3563441459555179,611.6700905369944,None,,,,,,,,,,,,,2,001,2022_Nov_21_1646,SpeechDraft1Carolyn_lessNoise,2021.2.3,59.97697052522312,
cliff.wav,cliff.mpg,cliff,5,AV,Pink_Noise_5_1.wav,Pink_Noise_5_2.wav,,,,,,0,97,97,70,,,,,,,,,,,,,,,613.0542387340101,None,614.553545362025,None,615.9375047670328,None,clip,615.9375047670328,None,return,2.0376130010117777,616.0207531090127,None,,,,,,,,,,,,,2,001,2022_Nov_21_1646,SpeechDraft1Carolyn_lessNoise,2021.2.3,59.97697052522312,
chain.wav,chain.mpg,chain,2,A,Pink_Noise_2_1.wav,Pink_Noise_2_2.wav,,,,,,0,98,98,1,,,,,,,,,,,,,,,618.0876857819967,None,619.6208119799849,None,621.0040838309797,None,chain,621.0040838309797,None,return,1.3787943570059724,621.0875649420195,None,,,,,,,,,,,,,2,001,2022_Nov_21_1646,SpeechDraft1Carolyn_lessNoise,2021.2.3,59.97697052522312,
dig.wav,dig.mpg,dig,1,A,Pink_Noise_1_1.wav,Pink_Noise_1_2.wav,,,,,,0,99,99,56,,,,,,,,,,,,,,,622.4871524259797,None,624.0035136400256,None,625.3871469760197,None,dig,625.3871469760197,None,return,1.3637476100120693,625.4707420450286,None,,,,,,,,,,,,,2,001,2022_Nov_21_1646,SpeechDraft1Carolyn_lessNoise,2021.2.3,59.97697052522312,
germ.wav,germ.mpg,germ,2,A,Pink_Noise_2_1.wav,Pink_Noise_2_2.wav,,,,,,0,100,100,6,,,,,,,,,,,,,,,626.854360983998,None,628.3531852519955,None,629.7369856570149,None,germ,629.7369856570149,None,return,1.3658047509961762,629.8206392070279,None,,,,,,,,,,,,,2,001,2022_Nov_21_1646,SpeechDraft1Carolyn_lessNoise,2021.2.3,59.97697052522312,
three.wav,three.mpg,three,1,A,Pink_Noise_1_1.wav,Pink_Noise_1_2.wav,,,,,,0,101,101,39,,,,,,,,,,,,,,,631.2037386340089,None,632.7204034180031,None,634.103672214027,None,three,634.103672214027,None,return,6.61492158297915,634.1875175660243,None,,,,,,,,,,,,,2,001,2022_Nov_21_1646,SpeechDraft1Carolyn_lessNoise,2021.2.3,59.97697052522312,
chunk.wav,chunk.mpg,chunk,4,A,Pink_Noise_4_1.wav,Pink_Noise_4_2.wav,,,,,,0,102,102,22,,,,,,,,,,,,,,,640.820258599997,None,642.3538004080183,None,643.737193938985,None,"chuck
",643.737193938985,None,return,1.6858584129950032,643.8204965399927,None,,,,,,,,,,,,,2,001,2022_Nov_21_1646,SpeechDraft1Carolyn_lessNoise,2021.2.3,59.97697052522312,
clock.wav,clock.mpg,clock,6,AV,Pink_Noise_6_1.wav,Pink_Noise_6_2.wav,,,,,,0,103,103,116,,,,,,,,,,,,,,,645.5376589649823,None,647.0367588620284,None,648.4203494929825,None,flat,648.4203494929825,None,return,2.3463758080033585,648.5040308540338,None,,,,,,,,,,,,,2,001,2022_Nov_21_1646,SpeechDraft1Carolyn_lessNoise,2021.2.3,59.97697052522312,
cord.wav,cord.mpg,cord,2,AV,Pink_Noise_2_1.wav,Pink_Noise_2_2.wav,,,,,,0,104,104,77,,,,,,,,,,,,,,,650.870184348023,None,652.4036452780128,None,653.7871963640209,None,"cord
",653.7871963640209,None,return,1.1001356769702397,653.8702360300231,None,,,,,,,,,,,,,2,001,2022_Nov_21_1646,SpeechDraft1Carolyn_lessNoise,2021.2.3,59.97697052522312,
fox.wav,fox.mpg,fox,2,A,Pink_Noise_2_1.wav,Pink_Noise_2_2.wav,,,,,,0,105,105,21,,,,,,,,,,,,,,,655.0040027620271,None,656.5198137629777,None,657.9044772249763,None,fax,657.9044772249763,None,return,2.0389351280173287,657.9875093700248,None,,,,,,,,,,,,,2,001,2022_Nov_21_1646,SpeechDraft1Carolyn_lessNoise,2021.2.3,59.97697052522312,
flirt.wav,flirt.mpg,flirt,6,A,Pink_Noise_6_1.wav,Pink_Noise_6_2.wav,,,,,,0,106,106,18,,,,,,,,,,,,,,,660.0536866870243,None,661.5705133490264,None,662.9536162519944,None,"door
",662.9536162519944,None,return,1.2529722740291618,663.0373871480115,None,,,,,,,,,,,,,2,001,2022_Nov_21_1646,SpeechDraft1Carolyn_lessNoise,2021.2.3,59.97697052522312,
blank.wav,blank.mpg,blank,2,AV,Pink_Noise_2_1.wav,Pink_Noise_2_2.wav,,,,,,0,107,107,81,,,,,,,,,,,,,,,664.3207473740331,None,665.8207288249978,None,667.2036259170272,None,blank,667.2036259170272,None,return,1.6589885400026105,667.2873708850238,None,,,,,,,,,,,,,2,001,2022_Nov_21_1646,SpeechDraft1Carolyn_lessNoise,2021.2.3,59.97697052522312,
spray.wav,spray.mpg,spray,4,A,Pink_Noise_4_1.wav,Pink_Noise_4_2.wav,,,,,,0,108,108,8,,,,,,,,,,,,,,,668.9704138350207,None,670.5039384660195,None,671.8872399730026,None,spring,671.8872399730026,None,return,1.6562637240276672,671.9701981039834,None,,,,,,,,,,,,,2,001,2022_Nov_21_1646,SpeechDraft1Carolyn_lessNoise,2021.2.3,59.97697052522312,
truce.wav,truce.mpg,truce,6,AV,Pink_Noise_6_1.wav,Pink_Noise_6_2.wav,,,,,,0,109,109,102,,,,,,,,,,,,,,,673.6544340709806,None,675.1538758130046,None,676.5372114030179,None,truce,676.5372114030179,None,return,1.429575185989961,676.6207496540155,None,,,,,,,,,,,,,2,001,2022_Nov_21_1646,SpeechDraft1Carolyn_lessNoise,2021.2.3,59.97697052522312,
bad.wav,bad.mpg,bad,3,AV,Pink_Noise_3_1.wav,Pink_Noise_3_2.wav,,,,,,0,110,110,90,,,,,,,,,,,,,,,678.0712098149816,None,679.5703539180104,None,680.9539044440025,None,bad,680.9539044440025,None,return,1.0771906659938395,681.0371893930133,None,,,,,,,,,,,,,2,001,2022_Nov_21_1646,SpeechDraft1Carolyn_lessNoise,2021.2.3,59.97697052522312,
budge.wav,budge.mpg,budge,6,AV,Pink_Noise_6_1.wav,Pink_Noise_6_2.wav,,,,,,0,111,111,60,,,,,,,,,,,,,,,682.1372640749905,None,683.6384248969844,None,685.0209596219938,None,"budge
",685.0209596219938,None,return,1.234276940987911,685.1040912020253,None,,,,,,,,,,,,,2,001,2022_Nov_21_1646,SpeechDraft1Carolyn_lessNoise,2021.2.3,59.97697052522312,
bar.wav,bar.mpg,bar,1,A,Pink_Noise_1_1.wav,Pink_Noise_1_2.wav,,,,,,0,112,112,49,,,,,,,,,,,,,,,686.3707691300078,None,687.8701766160084,None,689.2541732580285,None,bar,689.2541732580285,None,return,1.0729740270180628,689.3374535400071,None,,,,,,,,,,,,,2,001,2022_Nov_21_1646,SpeechDraft1Carolyn_lessNoise,2021.2.3,59.97697052522312,
dark.wav,dark.mpg,dark,3,AV,Pink_Noise_3_1.wav,Pink_Noise_3_2.wav,,,,,,0,113,113,83,,,,,,,,,,,,,,,690.4376107099815,None,691.9871754320338,None,693.3542230890016,None,dog,693.3542230890016,None,return,1.3089733200031333,693.4373897309997,None,,,,,,,,,,,,,2,001,2022_Nov_21_1646,SpeechDraft1Carolyn_lessNoise,2021.2.3,59.97697052522312,
gross.wav,gross.mpg,gross,3,A,Pink_Noise_3_1.wav,Pink_Noise_3_2.wav,,,,,,0,114,114,12,,,,,,,,,,,,,,,694.770318505005,None,696.2875299549778,None,697.6706807709998,None,gross,697.6706807709998,None,return,1.6081528149661608,697.7542088099872,None,,,,,,,,,,,,,2,001,2022_Nov_21_1646,SpeechDraft1Carolyn_lessNoise,2021.2.3,59.97697052522312,
greek.wav,greek.mpg,greek,1,A,Pink_Noise_1_1.wav,Pink_Noise_1_2.wav,,,,,,0,115,115,9,,,,,,,,,,,,,,,699.3869628760149,None,700.8864480140037,None,702.2712642970146,None,greek,702.2712642970146,None,return,3.2325486909830943,702.3539768490009,None,,,,,,,,,,,,,2,001,2022_Nov_21_1646,SpeechDraft1Carolyn_lessNoise,2021.2.3,59.97697052522312,
cope.wav,cope.mpg,cope,2,AV,Pink_Noise_2_1.wav,Pink_Noise_2_2.wav,,,,,,0,116,116,80,,,,,,,,,,,,,,,705.6040042120148,None,707.1039630079758,None,708.4872464900254,None,coke,708.4872464900254,None,return,1.6795010060304776,708.5708628009888,None,,,,,,,,,,,,,2,001,2022_Nov_21_1646,SpeechDraft1Carolyn_lessNoise,2021.2.3,59.97697052522312,
flag.wav,flag.mpg,flag,2,A,Pink_Noise_2_1.wav,Pink_Noise_2_2.wav,,,,,,0,117,117,51,,,,,,,,,,,,,,,710.2708235210157,None,711.7873718430055,None,713.1710878689773,None,"flag
",713.1710878689773,None,return,1.4193239969899878,713.2550373880076,None,,,,,,,,,,,,,2,001,2022_Nov_21_1646,SpeechDraft1Carolyn_lessNoise,2021.2.3,59.97697052522312,
dine.wav,dine.mpg,dine,3,A,Pink_Noise_3_1.wav,Pink_Noise_3_2.wav,,,,,,0,118,118,23,,,,,,,,,,,,,,,714.7040590050165,None,716.2204324330087,None,717.6046067849966,None,"done
",717.6046067849966,None,return,1.634760994988028,717.6875901150052,None,,,,,,,,,,,,,2,001,2022_Nov_21_1646,SpeechDraft1Carolyn_lessNoise,2021.2.3,59.97697052522312,
debt.wav,debt.mpg,debt,5,A,Pink_Noise_5_1.wav,Pink_Noise_5_2.wav,,,,,,0,119,119,24,,,,,,,,,,,,,,,719.3543813430006,None,720.8698649600265,None,722.2535864440142,None,dent,722.2535864440142,None,return,1.0890470930025913,722.337455714005,None,,,,,,,,,,,,,2,001,2022_Nov_21_1646,SpeechDraft1Carolyn_lessNoise,2021.2.3,59.97697052522312,
,,,,,,,,,,,,,,,,,,,,,,,,,,,,,,,,,,,,,,,,,,,,,,,,,723.4543670170242,None,w,87.56514788104687,724.43726538599,None,2,001,2022_Nov_21_1646,SpeechDraft1Carolyn_lessNoise,2021.2.3,59.97697052522312,
