{"meta_data":{"additional_headers":{},"game_name":"Recollect","version":"2.53.01","user_name":"2cog2","organization":"braingamecenter","study":"MPL_2020_10","session_number":0,"device_id":"5D058FBB-ECD0-4D46-BF5F-BB154308C3EF"},"data":[{"stage":"Practice","trial":0,"sequence":"6F","letter_input":"F","number_input":"6","is_correct":true,"presentation_start_time":1669073759307.02,"presentation_end_time":1669073762307.53,"response_time":1669073780739.27},{"stage":"Practice","trial":1,"sequence":"G4","letter_input":"G","number_input":"4","is_correct":true,"presentation_start_time":1669073782266.29,"presentation_end_time":1669073785266.64,"response_time":1669073792496.32},{"stage":"Practice","trial":2,"sequence":"3W5","letter_input":"W","number_input":"35","is_correct":true,"presentation_start_time":1669073794029.13,"presentation_end_time":1669073798529,"response_time":1669073804442.43},{"stage":"Practice","trial":3,"sequence":"T7L","letter_input":"LT","number_input":"7","is_correct":true,"presentation_start_time":1669073805975.13,"presentation_end_time":1669073810474.84,"response_time":1669073821736.66},{"stage":"Practice","trial":4,"sequence":"9J1","letter_input":"J","number_input":"19","is_correct":true,"presentation_start_time":1669073823269.51,"presentation_end_time":1669073827769.45,"response_time":1669073833299.64},{"stage":"Calibration","trial":0,"sequence":"4N","letter_input":"N","number_input":"4","is_correct":true,"presentation_start_time":1669073840680.33,"presentation_end_time":1669073843680.73,"response_time":1669073848711.09},{"stage":"Calibration","trial":1,"sequence":"K7","letter_input":"K","number_input":"7","is_correct":true,"presentation_start_time":1669073850243.94,"presentation_end_time":1669073853244.24,"response_time":1669073859391.02},{"stage":"Calibration","trial":2,"sequence":"8P1","letter_input":"P","number_input":"18","is_correct":true,"presentation_start_time":1669073860923.76,"presentation_end_time":1669073865423.61,"response_time":1669073873119.7},{"stage":"Calibration","trial":3,"sequence":"H2D","letter_input":"DH","number_input":"2","is_correct":true,"presentation_start_time":1669073874652.46,"presentation_end_time":1669073879152.34,"response_time":1669073887015.17},{"stage":"Calibration","trial":4,"sequence":"9R5E","letter_input":"ER","number_input":"59","is_correct":true,"presentation_start_time":1669073888547.95,"presentation_end_time":1669073894547.36,"response_time":1669073904476.09},{"stage":"Calibration","trial":5,"sequence":"K8D6","letter_input":"EK","number_input":"68","is_correct":false,"presentation_start_time":1669073906008.84,"presentation_end_time":1669073912008.23,"response_time":1669073918638.12},{"stage":"Calibration","trial":6,"sequence":"3N9J5","letter_input":"N","number_input":"358","is_correct":false,"presentation_start_time":1669073920170.89,"presentation_end_time":1669073927669.73,"response_time":1669073937415.29},{"stage":"Calibration","trial":7,"sequence":"A8K4D","letter_input":"HK","number_input":"48","is_correct":false,"presentation_start_time":1669073938947.94,"presentation_end_time":1669073946446.8,"response_time":1669073953793.14}]}