{"meta_data":{"additional_headers":{},"game_name":"Recollect","version":"2.53.01","user_name":"30","organization":"braingamecenter","study":"mpl2_2022_11","session_number":0,"device_id":"74342D95-EE82-45E3-8ADF-48FB3203C5DD"},"data":[{"stage":"Practice","trial":0,"sequence":"6F","letter_input":"F","number_input":"6","is_correct":true,"presentation_start_time":1677107774566.81,"presentation_end_time":1677107777567.13,"response_time":1677107784833.26},{"stage":"Practice","trial":1,"sequence":"G4","letter_input":"G","number_input":"4","is_correct":true,"presentation_start_time":1677107786362.93,"presentation_end_time":1677107789363.19,"response_time":1677107794210.48},{"stage":"Practice","trial":2,"sequence":"3W5","letter_input":"W","number_input":"35","is_correct":true,"presentation_start_time":1677107795743.15,"presentation_end_time":1677107800243.04,"response_time":1677107807722.72},{"stage":"Practice","trial":3,"sequence":"T7L","letter_input":"LT","number_input":"7","is_correct":true,"presentation_start_time":1677107809255.42,"presentation_end_time":1677107813755.19,"response_time":1677107821018.23},{"stage":"Practice","trial":4,"sequence":"9J1","letter_input":"J","number_input":"19","is_correct":true,"presentation_start_time":1677107822550.99,"presentation_end_time":1677107827050.94,"response_time":1677107830765.02},{"stage":"Calibration","trial":0,"sequence":"7C","letter_input":"C","number_input":"7","is_correct":true,"presentation_start_time":1677107839112.18,"presentation_end_time":1677107842112.61,"response_time":1677107846276.65},{"stage":"Calibration","trial":1,"sequence":"B2","letter_input":"B","number_input":"2","is_correct":true,"presentation_start_time":1677107847809.23,"presentation_end_time":1677107850809.6,"response_time":1677107854723.8},{"stage":"Calibration","trial":2,"sequence":"6S3","letter_input":"S","number_input":"36","is_correct":true,"presentation_start_time":1677107856256.55,"presentation_end_time":1677107860756.34,"response_time":1677107866053.41},{"stage":"Calibration","trial":3,"sequence":"Y1W","letter_input":"WY","number_input":"1","is_correct":true,"presentation_start_time":1677107867586.18,"presentation_end_time":1677107872085.89,"response_time":1677107880048.73},{"stage":"Calibration","trial":4,"sequence":"5R2A","letter_input":"AR","number_input":"25","is_correct":true,"presentation_start_time":1677107881581.54,"presentation_end_time":1677107887580.86,"response_time":1677107897493.04},{"stage":"Calibration","trial":5,"sequence":"S3F1","letter_input":"FS","number_input":"13","is_correct":true,"presentation_start_time":1677107899025.69,"presentation_end_time":1677107905025.11,"response_time":1677107909289.13},{"stage":"Calibration","trial":6,"sequence":"4R9B7","letter_input":"BR","number_input":"479","is_correct":true,"presentation_start_time":1677107910821.85,"presentation_end_time":1677107918320.74,"response_time":1677107933431.17},{"stage":"Calibration","trial":7,"sequence":"V8N6E","letter_input":"ENV","number_input":"68","is_correct":true,"presentation_start_time":1677107934963.9,"presentation_end_time":1677107942462.76,"response_time":1677107977499.91},{"stage":"Calibration","trial":8,"sequence":"5C3P1L","letter_input":"CLP","number_input":"135","is_correct":true,"presentation_start_time":1677107979032.62,"presentation_end_time":1677107988031.1,"response_time":1677108005440.64},{"stage":"Calibration","trial":9,"sequence":"E6Z4R9","letter_input":"ERZ","number_input":"469","is_correct":true,"presentation_start_time":1677108006973.45,"presentation_end_time":1677108015971.7,"response_time":1677108026550.27},{"stage":"Calibration","trial":10,"sequence":"1Q8Y5W3","letter_input":"QW","number_input":"193","is_correct":false,"presentation_start_time":1677108028083.13,"presentation_end_time":1677108038580.83,"response_time":1677108084997.75},{"stage":"Calibration","trial":11,"sequence":"V4F9C7A","letter_input":"AV","number_input":"479","is_correct":false,"presentation_start_time":1677108086530.42,"presentation_end_time":1677108097028.31,"response_time":1677108125034.46}]}