{"meta_data":{"additional_headers":{},"game_name":"Recollect","version":"2.53.01","user_name":"32","organization":"braingamecenter","study":"mpl2_2022_11","session_number":0,"device_id":"74342D95-EE82-45E3-8ADF-48FB3203C5DD"},"data":[{"trial":0,"action":1,"button_pressed":3,"time_out":false,"dwell_time":48.033203125,"response_time":1677180559511.17},{"trial":0,"action":1,"button_pressed":2,"time_out":false,"dwell_time":64.663818359375,"response_time":1677180560293.39},{"trial":0,"action":9,"button_pressed":-1,"time_out":false,"dwell_time":92.911865234375,"response_time":1677180560804.88},{"trial":1,"action":1,"button_pressed":3,"time_out":false,"dwell_time":48.4619140625,"response_time":1677180570057.48},{"trial":1,"action":1,"button_pressed":9,"time_out":false,"dwell_time":48.468994140625,"response_time":1677180570257.27},{"trial":1,"action":1,"button_pressed":7,"time_out":false,"dwell_time":31.696044921875,"response_time":1677180570541.25},{"trial":1,"action":9,"button_pressed":-1,"time_out":false,"dwell_time":80.850830078125,"response_time":1677180571490.15},{"trial":2,"action":1,"button_pressed":2,"time_out":false,"dwell_time":80.9169921875,"response_time":1677180583186.67},{"trial":2,"action":1,"button_pressed":4,"time_out":false,"dwell_time":15.27294921875,"response_time":1677180583353.8},{"trial":2,"action":1,"button_pressed":10,"time_out":false,"dwell_time":48.237060546875,"response_time":1677180583602.77},{"trial":2,"action":1,"button_pressed":5,"time_out":false,"dwell_time":65.64306640625,"response_time":1677180584369.71},{"trial":2,"action":9,"button_pressed":-1,"time_out":false,"dwell_time":65.09716796875,"response_time":1677180584819.32},{"trial":3,"action":1,"button_pressed":10,"time_out":false,"dwell_time":48.739990234375,"response_time":1677180599232.14},{"trial":3,"action":1,"button_pressed":5,"time_out":false,"dwell_time":31.070068359375,"response_time":1677180599481.07},{"trial":3,"action":1,"button_pressed":3,"time_out":false,"dwell_time":48.533935546875,"response_time":1677180599914.94},{"trial":3,"action":1,"button_pressed":6,"time_out":false,"dwell_time":49.138916015625,"response_time":1677180600081.81},{"trial":3,"action":1,"button_pressed":2,"time_out":false,"dwell_time":31.010009765625,"response_time":1677180600947.04},{"trial":3,"action":9,"button_pressed":-1,"time_out":false,"dwell_time":64.85791015625,"response_time":1677180601714.18},{"trial":4,"action":1,"button_pressed":3,"time_out":false,"dwell_time":64.47705078125,"response_time":1677180618458.38},{"trial":4,"action":1,"button_pressed":7,"time_out":false,"dwell_time":31.516845703125,"response_time":1677180618708.53},{"trial":4,"action":1,"button_pressed":4,"time_out":false,"dwell_time":64.0439453125,"response_time":1677180619074.24},{"trial":4,"action":1,"button_pressed":10,"time_out":false,"dwell_time":48.1650390625,"response_time":1677180619341.75},{"trial":4,"action":1,"button_pressed":2,"time_out":false,"dwell_time":48.444091796875,"response_time":1677180619674.3},{"trial":4,"action":1,"button_pressed":9,"time_out":false,"dwell_time":48.39208984375,"response_time":1677180619841.75},{"trial":4,"action":9,"button_pressed":-1,"time_out":false,"dwell_time":31.3359375,"response_time":1677180621224.25},{"trial":5,"action":1,"button_pressed":0,"time_out":false,"dwell_time":82.366943359375,"response_time":1677180640501.38},{"trial":5,"action":1,"button_pressed":8,"time_out":false,"dwell_time":48.601806640625,"response_time":1677180640818.2},{"trial":5,"action":1,"button_pressed":5,"time_out":false,"dwell_time":64.465087890625,"response_time":1677180641017.6},{"trial":5,"action":1,"button_pressed":6,"time_out":false,"dwell_time":31.817138671875,"response_time":1677180641383.95},{"trial":5,"action":1,"button_pressed":10,"time_out":false,"dwell_time":65.468994140625,"response_time":1677180641817.37},{"trial":5,"action":1,"button_pressed":2,"time_out":false,"dwell_time":48.56591796875,"response_time":1677180642283.89},{"trial":5,"action":1,"button_pressed":9,"time_out":false,"dwell_time":48.949951171875,"response_time":1677180642650.77},{"trial":5,"action":9,"button_pressed":-1,"time_out":false,"dwell_time":49.56396484375,"response_time":1677180644117.41},{"trial":6,"action":1,"button_pressed":7,"time_out":false,"dwell_time":31.13720703125,"response_time":1677180665859.15},{"trial":6,"action":1,"button_pressed":5,"time_out":false,"dwell_time":47.569091796875,"response_time":1677180666358.86},{"trial":6,"action":1,"button_pressed":4,"time_out":false,"dwell_time":82.100830078125,"response_time":1677180667192.46},{"trial":6,"action":0,"button_pressed":-1,"time_out":false,"dwell_time":65.60205078125,"response_time":1677180670141.52},{"trial":6,"action":1,"button_pressed":7,"time_out":false,"dwell_time":64.30908203125,"response_time":1677180670924.25},{"trial":6,"action":1,"button_pressed":5,"time_out":false,"dwell_time":48.27099609375,"response_time":1677180671607.93},{"trial":6,"action":1,"button_pressed":3,"time_out":false,"dwell_time":48.52197265625,"response_time":1677180672190.35},{"trial":6,"action":1,"button_pressed":4,"time_out":false,"dwell_time":47.5849609375,"response_time":1677180672440.15},{"trial":6,"action":1,"button_pressed":1,"time_out":false,"dwell_time":48.30908203125,"response_time":1677180672840.85},{"trial":6,"action":1,"button_pressed":10,"time_out":false,"dwell_time":82.01416015625,"response_time":1677180673423.52},{"trial":6,"action":1,"button_pressed":2,"time_out":false,"dwell_time":64.84912109375,"response_time":1677180674422.61},{"trial":6,"action":1,"button_pressed":8,"time_out":false,"dwell_time":47.591064453125,"response_time":1677180674839.44},{"trial":6,"action":9,"button_pressed":-1,"time_out":false,"dwell_time":49.4560546875,"response_time":1677180676490.07},{"trial":7,"action":1,"button_pressed":6,"time_out":false,"dwell_time":64.504150390625,"response_time":1677180701414.35},{"trial":7,"action":1,"button_pressed":10,"time_out":false,"dwell_time":114.94091796875,"response_time":1677180702646.86},{"trial":7,"action":1,"button_pressed":9,"time_out":false,"dwell_time":81.330078125,"response_time":1677180703146.42},{"trial":7,"action":1,"button_pressed":8,"time_out":false,"dwell_time":65.152099609375,"response_time":1677180703663.44},{"trial":7,"action":1,"button_pressed":11,"time_out":false,"dwell_time":48.889892578125,"response_time":1677180704280.45},{"trial":7,"action":1,"button_pressed":7,"time_out":false,"dwell_time":49.136962890625,"response_time":1677180704513.79},{"trial":7,"action":1,"button_pressed":2,"time_out":false,"dwell_time":63.806884765625,"response_time":1677180706411.91},{"trial":7,"action":1,"button_pressed":0,"time_out":false,"dwell_time":64.451904296875,"response_time":1677180706812.37},{"trial":7,"action":1,"button_pressed":4,"time_out":false,"dwell_time":47.64892578125,"response_time":1677180707212.12},{"trial":7,"action":9,"button_pressed":-1,"time_out":false,"dwell_time":16.985107421875,"response_time":1677180709028.73},{"trial":8,"action":1,"button_pressed":9,"time_out":false,"dwell_time":31.10400390625,"response_time":1677180733953.46},{"trial":8,"action":1,"button_pressed":8,"time_out":false,"dwell_time":48.406982421875,"response_time":1677180734236.82},{"trial":8,"action":1,"button_pressed":5,"time_out":false,"dwell_time":63.864990234375,"response_time":1677180734602.67},{"trial":8,"action":1,"button_pressed":6,"time_out":false,"dwell_time":31.701171875,"response_time":1677180735220.23},{"trial":8,"action":1,"button_pressed":6,"time_out":false,"dwell_time":64.52099609375,"response_time":1677180736119.49},{"trial":8,"action":0,"button_pressed":-1,"time_out":false,"dwell_time":64.85498046875,"response_time":1677180736952.15},{"trial":8,"action":1,"button_pressed":9,"time_out":false,"dwell_time":64.511962890625,"response_time":1677180737451.74},{"trial":8,"action":1,"button_pressed":8,"time_out":false,"dwell_time":48.39404296875,"response_time":1677180737802.09},{"trial":8,"action":1,"button_pressed":5,"time_out":false,"dwell_time":47.919189453125,"response_time":1677180738235.48},{"trial":8,"action":1,"button_pressed":6,"time_out":false,"dwell_time":31.007080078125,"response_time":1677180738785.11},{"trial":8,"action":1,"button_pressed":2,"time_out":false,"dwell_time":63.876953125,"response_time":1677180739867.6},{"trial":8,"action":1,"button_pressed":11,"time_out":false,"dwell_time":47.580078125,"response_time":1677180740551.2},{"trial":8,"action":1,"button_pressed":10,"time_out":false,"dwell_time":48.39306640625,"response_time":1677180741017.75},{"trial":8,"action":1,"button_pressed":3,"time_out":false,"dwell_time":65.26513671875,"response_time":1677180741467.8},{"trial":8,"action":1,"button_pressed":4,"time_out":false,"dwell_time":14.36279296875,"response_time":1677180741867.44},{"trial":8,"action":9,"button_pressed":-1,"time_out":false,"dwell_time":81.369140625,"response_time":1677180742884.46},{"trial":9,"action":1,"button_pressed":11,"time_out":false,"dwell_time":64.04296875,"response_time":1677180763210.13},{"trial":9,"action":1,"button_pressed":4,"time_out":false,"dwell_time":47.640869140625,"response_time":1677180763560.34},{"trial":9,"action":1,"button_pressed":3,"time_out":false,"dwell_time":65.0361328125,"response_time":1677180763810.18},{"trial":9,"action":1,"button_pressed":2,"time_out":false,"dwell_time":81.39306640625,"response_time":1677180764442.91},{"trial":9,"action":1,"button_pressed":10,"time_out":false,"dwell_time":81.093994140625,"response_time":1677180764976.61},{"trial":9,"action":1,"button_pressed":8,"time_out":false,"dwell_time":64.625,"response_time":1677180765192.74},{"trial":9,"action":1,"button_pressed":1,"time_out":false,"dwell_time":31.73193359375,"response_time":1677180765809.48},{"trial":9,"action":9,"button_pressed":-1,"time_out":false,"dwell_time":16.920166015625,"response_time":1677180766908.93},{"trial":10,"action":1,"button_pressed":2,"time_out":false,"dwell_time":47.70703125,"response_time":1677180788152.23},{"trial":10,"action":1,"button_pressed":6,"time_out":false,"dwell_time":64.623046875,"response_time":1677180788568.32},{"trial":10,"action":1,"button_pressed":4,"time_out":false,"dwell_time":64.4921875,"response_time":1677180788835.53},{"trial":10,"action":1,"button_pressed":3,"time_out":false,"dwell_time":81.2841796875,"response_time":1677180789052.21},{"trial":10,"action":1,"button_pressed":0,"time_out":false,"dwell_time":47.55810546875,"response_time":1677180789268.51},{"trial":10,"action":1,"button_pressed":7,"time_out":false,"dwell_time":31.5458984375,"response_time":1677180789868.92},{"trial":10,"action":0,"button_pressed":-1,"time_out":false,"dwell_time":65.522216796875,"response_time":1677180791901.28},{"trial":10,"action":1,"button_pressed":2,"time_out":false,"dwell_time":48.297119140625,"response_time":1677180792450.74},{"trial":10,"action":1,"button_pressed":6,"time_out":false,"dwell_time":47.972900390625,"response_time":1677180792967.95},{"trial":10,"action":1,"button_pressed":4,"time_out":false,"dwell_time":64.698974609375,"response_time":1677180793416.75},{"trial":10,"action":1,"button_pressed":3,"time_out":false,"dwell_time":81.3369140625,"response_time":1677180793683.28},{"trial":10,"action":1,"button_pressed":10,"time_out":false,"dwell_time":82.093994140625,"response_time":1677180794033.98},{"trial":10,"action":1,"button_pressed":0,"time_out":false,"dwell_time":48.37109375,"response_time":1677180794516.77},{"trial":10,"action":1,"button_pressed":7,"time_out":false,"dwell_time":31.5810546875,"response_time":1677180795033.88},{"trial":10,"action":0,"button_pressed":-1,"time_out":false,"dwell_time":64.98095703125,"response_time":1677180797482.79},{"trial":10,"action":1,"button_pressed":2,"time_out":false,"dwell_time":64.5390625,"response_time":1677180798131.85},{"trial":10,"action":1,"button_pressed":6,"time_out":false,"dwell_time":48.47314453125,"response_time":1677180798515.43},{"trial":10,"action":1,"button_pressed":4,"time_out":false,"dwell_time":98.48095703125,"response_time":1677180799348.69},{"trial":10,"action":1,"button_pressed":3,"time_out":false,"dwell_time":64.7490234375,"response_time":1677180799714.88},{"trial":10,"action":1,"button_pressed":0,"time_out":false,"dwell_time":65.23583984375,"response_time":1677180800031.78},{"trial":10,"action":1,"button_pressed":10,"time_out":false,"dwell_time":48.345947265625,"response_time":1677180800382.18},{"trial":10,"action":1,"button_pressed":7,"time_out":false,"dwell_time":64.858154296875,"response_time":1677180800881},{"trial":10,"action":9,"button_pressed":-1,"time_out":false,"dwell_time":114.778076171875,"response_time":1677180802264.84}]}