{"meta_data":{"additional_headers":{},"game_name":"Recollect","version":"2.53.01","user_name":"32","organization":"braingamecenter","study":"mpl2_2022_11","session_number":0,"device_id":"74342D95-EE82-45E3-8ADF-48FB3203C5DD"},"data":[{"stage":"Practice","trial":0,"sequence":"6F","letter_input":"F","number_input":"6","is_correct":true,"presentation_start_time":1677180821406.77,"presentation_end_time":1677180824407.14,"response_time":1677180829707.09},{"stage":"Practice","trial":1,"sequence":"G4","letter_input":"G","number_input":"4","is_correct":true,"presentation_start_time":1677180831220.14,"presentation_end_time":1677180834220.43,"response_time":1677180837601.48},{"stage":"Practice","trial":2,"sequence":"3W5","letter_input":"W","number_input":"35","is_correct":true,"presentation_start_time":1677180839134.19,"presentation_end_time":1677180843634.08,"response_time":1677180847681.5},{"stage":"Practice","trial":3,"sequence":"T7L","letter_input":"LT","number_input":"7","is_correct":true,"presentation_start_time":1677180849214.26,"presentation_end_time":1677180853714.04,"response_time":1677180857311.67},{"stage":"Practice","trial":4,"sequence":"9J1","letter_input":"J","number_input":"19","is_correct":true,"presentation_start_time":1677180858844.4,"presentation_end_time":1677180863344.34,"response_time":1677180866525.29},{"stage":"Calibration","trial":0,"sequence":"5S","letter_input":"S","number_input":"5","is_correct":true,"presentation_start_time":1677180871940.06,"presentation_end_time":1677180874940.44,"response_time":1677180878204.82},{"stage":"Calibration","trial":1,"sequence":"W3","letter_input":"W","number_input":"3","is_correct":true,"presentation_start_time":1677180879737.54,"presentation_end_time":1677180882737.84,"response_time":1677180885485.76},{"stage":"Calibration","trial":2,"sequence":"8G6","letter_input":"G","number_input":"6","is_correct":false,"presentation_start_time":1677180887018.47,"presentation_end_time":1677180891518.24,"response_time":1677180896465.47},{"stage":"Calibration","trial":3,"sequence":"W5R","letter_input":"RW","number_input":"5","is_correct":true,"presentation_start_time":1677180897998.13,"presentation_end_time":1677180902497.99,"response_time":1677180905945.67},{"stage":"Calibration","trial":4,"sequence":"9V1T","letter_input":"TV","number_input":"19","is_correct":true,"presentation_start_time":1677180907478.43,"presentation_end_time":1677180913477.74,"response_time":1677180917808.36},{"stage":"Calibration","trial":5,"sequence":"Z8Q5","letter_input":"QZ","number_input":"58","is_correct":true,"presentation_start_time":1677180919341.08,"presentation_end_time":1677180925340.47,"response_time":1677180929987.73},{"stage":"Calibration","trial":6,"sequence":"1N6L3","letter_input":"LN","number_input":"136","is_correct":true,"presentation_start_time":1677180931520.44,"presentation_end_time":1677180939019.39,"response_time":1677180945882.52},{"stage":"Calibration","trial":7,"sequence":"P8G5C","letter_input":"CGP","number_input":"58","is_correct":true,"presentation_start_time":1677180947415.18,"presentation_end_time":1677180954914.03,"response_time":1677180959361.44},{"stage":"Calibration","trial":8,"sequence":"7H4Y2N","letter_input":"CNY","number_input":"247","is_correct":false,"presentation_start_time":1677180960894.1,"presentation_end_time":1677180969892.42,"response_time":1677180977088.96},{"stage":"Calibration","trial":9,"sequence":"W5E1B8","letter_input":"BEW","number_input":"158","is_correct":true,"presentation_start_time":1677180978621.66,"presentation_end_time":1677180987619.99,"response_time":1677180995532.85},{"stage":"Calibration","trial":10,"sequence":"6Y9V3L8","letter_input":"P","number_input":"3689","is_correct":false,"presentation_start_time":1677180997065.56,"presentation_end_time":1677181007563.35,"response_time":1677181012927.04},{"stage":"Calibration","trial":11,"sequence":"S5K2W7F","letter_input":"O","number_input":"0","is_correct":false,"presentation_start_time":1677181014459.93,"presentation_end_time":1677181024957.77,"response_time":1677181027772.29}]}