{"meta_data":{"additional_headers":{},"game_name":"Recollect","version":"2.53.01","user_name":"33","organization":"braingamecenter","study":"mpl2_2022_11","session_number":0,"device_id":"74342D95-EE82-45E3-8ADF-48FB3203C5DD"},"data":[{"stage":"Practice","trial":0,"sequence":"6F","letter_input":"F","number_input":"6","is_correct":true,"presentation_start_time":1677263638363.91,"presentation_end_time":1677263641364.35,"response_time":1677263647480.81},{"stage":"Practice","trial":1,"sequence":"G4","letter_input":"G","number_input":"4","is_correct":true,"presentation_start_time":1677263649010.43,"presentation_end_time":1677263652010.82,"response_time":1677263657224.49},{"stage":"Practice","trial":2,"sequence":"3W5","letter_input":"W","number_input":"35","is_correct":true,"presentation_start_time":1677263658757.22,"presentation_end_time":1677263663257.03,"response_time":1677263669120.56},{"stage":"Practice","trial":3,"sequence":"T7L","letter_input":"LT","number_input":"7","is_correct":true,"presentation_start_time":1677263670653.22,"presentation_end_time":1677263675153.11,"response_time":1677263680150.24},{"stage":"Practice","trial":4,"sequence":"9J1","letter_input":"J","number_input":"19","is_correct":true,"presentation_start_time":1677263681682.94,"presentation_end_time":1677263686182.72,"response_time":1677263691196.53},{"stage":"Calibration","trial":0,"sequence":"2T","letter_input":"T","number_input":"2","is_correct":true,"presentation_start_time":1677263694445.26,"presentation_end_time":1677263697445.69,"response_time":1677263702276.14},{"stage":"Calibration","trial":1,"sequence":"H6","letter_input":"H","number_input":"6","is_correct":true,"presentation_start_time":1677263703808.89,"presentation_end_time":1677263706809.16,"response_time":1677263711556.35},{"stage":"Calibration","trial":2,"sequence":"3G1","letter_input":"G","number_input":"13","is_correct":true,"presentation_start_time":1677263713089.14,"presentation_end_time":1677263717588.99,"response_time":1677263722136.13},{"stage":"Calibration","trial":3,"sequence":"Q5L","letter_input":"LQ","number_input":"5","is_correct":true,"presentation_start_time":1677263723668.95,"presentation_end_time":1677263728168.82,"response_time":1677263735231.91},{"stage":"Calibration","trial":4,"sequence":"9T4J","letter_input":"LJ","number_input":"49","is_correct":false,"presentation_start_time":1677263736764.54,"presentation_end_time":1677263742763.94,"response_time":1677263750143.61},{"stage":"Calibration","trial":5,"sequence":"Z5H1","letter_input":"HZ","number_input":"15","is_correct":true,"presentation_start_time":1677263751676.26,"presentation_end_time":1677263757675.68,"response_time":1677263765688.44},{"stage":"Calibration","trial":6,"sequence":"6T4N9","letter_input":"N","number_input":"49","is_correct":false,"presentation_start_time":1677263767221.09,"presentation_end_time":1677263774719.96,"response_time":1677263780083.68},{"stage":"Calibration","trial":7,"sequence":"Q7V2S","letter_input":"QSV","number_input":"27","is_correct":true,"presentation_start_time":1677263781616.33,"presentation_end_time":1677263789115.25,"response_time":1677263802026.34},{"stage":"Calibration","trial":8,"sequence":"1L8P5N","letter_input":"PN","number_input":"15","is_correct":false,"presentation_start_time":1677263803559.04,"presentation_end_time":1677263812557.37,"response_time":1677263821336.58},{"stage":"Calibration","trial":9,"sequence":"R6B2Y9","letter_input":"RBQ","number_input":"69","is_correct":false,"presentation_start_time":1677263822869.29,"presentation_end_time":1677263831867.7,"response_time":1677263845861.73}]}