{"meta_data":{"additional_headers":{},"game_name":"Recollect","version":"2.53.01","user_name":"33","organization":"braingamecenter","study":"mpl2_2022_11","session_number":0,"device_id":"74342D95-EE82-45E3-8ADF-48FB3203C5DD"},"data":[{"trial":0,"action":1,"button_pressed":10,"time_out":false,"dwell_time":63.5439453125,"response_time":1677263417938.33},{"trial":0,"action":1,"button_pressed":7,"time_out":false,"dwell_time":64.842041015625,"response_time":1677263418555.27},{"trial":0,"action":9,"button_pressed":-1,"time_out":false,"dwell_time":75.932861328125,"response_time":1677263419165.92},{"trial":1,"action":1,"button_pressed":4,"time_out":false,"dwell_time":63.47314453125,"response_time":1677263429134.43},{"trial":1,"action":1,"button_pressed":7,"time_out":false,"dwell_time":47.2919921875,"response_time":1677263429734.7},{"trial":1,"action":1,"button_pressed":10,"time_out":false,"dwell_time":47.9990234375,"response_time":1677263430318.45},{"trial":1,"action":9,"button_pressed":-1,"time_out":false,"dwell_time":81.4619140625,"response_time":1677263430918.31},{"trial":2,"action":1,"button_pressed":8,"time_out":false,"dwell_time":97.55419921875,"response_time":1677263443646.96},{"trial":2,"action":1,"button_pressed":1,"time_out":false,"dwell_time":63.870849609375,"response_time":1677263444212.86},{"trial":2,"action":1,"button_pressed":3,"time_out":false,"dwell_time":81.0458984375,"response_time":1677263444645.89},{"trial":2,"action":1,"button_pressed":11,"time_out":false,"dwell_time":48.02197265625,"response_time":1677263445130.12},{"trial":2,"action":9,"button_pressed":-1,"time_out":false,"dwell_time":81.451904296875,"response_time":1677263445696.72},{"trial":3,"action":1,"button_pressed":8,"time_out":false,"dwell_time":80.35791015625,"response_time":1677263460823.97},{"trial":3,"action":1,"button_pressed":4,"time_out":false,"dwell_time":98.380126953125,"response_time":1677263461357.66},{"trial":3,"action":1,"button_pressed":1,"time_out":false,"dwell_time":113.669921875,"response_time":1677263462923.09},{"trial":3,"action":1,"button_pressed":5,"time_out":false,"dwell_time":96.9248046875,"response_time":1677263463639.65},{"trial":3,"action":1,"button_pressed":3,"time_out":false,"dwell_time":131.763916015625,"response_time":1677263464439.99},{"trial":3,"action":9,"button_pressed":-1,"time_out":false,"dwell_time":98.987060546875,"response_time":1677263465073.75},{"trial":4,"action":1,"button_pressed":10,"time_out":false,"dwell_time":147.81884765625,"response_time":1677263481617.79},{"trial":4,"action":1,"button_pressed":2,"time_out":false,"dwell_time":163.38818359375,"response_time":1677263482649.88},{"trial":4,"action":1,"button_pressed":4,"time_out":false,"dwell_time":148.576171875,"response_time":1677263483483.72},{"trial":4,"action":1,"button_pressed":5,"time_out":false,"dwell_time":147.721923828125,"response_time":1677263484699.95},{"trial":4,"action":1,"button_pressed":11,"time_out":false,"dwell_time":97.06494140625,"response_time":1677263485715.98},{"trial":4,"action":1,"button_pressed":0,"time_out":false,"dwell_time":98.47509765625,"response_time":1677263486549.46},{"trial":4,"action":9,"button_pressed":-1,"time_out":false,"dwell_time":16.9208984375,"response_time":1677263487248.59},{"trial":5,"action":1,"button_pressed":11,"time_out":false,"dwell_time":98.26611328125,"response_time":1677263504859.92},{"trial":5,"action":1,"button_pressed":4,"time_out":false,"dwell_time":147.64111328125,"response_time":1677263505476.26},{"trial":5,"action":1,"button_pressed":3,"time_out":false,"dwell_time":80.85400390625,"response_time":1677263505925.95},{"trial":5,"action":1,"button_pressed":2,"time_out":false,"dwell_time":113.43701171875,"response_time":1677263506458.66},{"trial":5,"action":1,"button_pressed":10,"time_out":false,"dwell_time":147.586181640625,"response_time":1677263506925.96},{"trial":5,"action":1,"button_pressed":6,"time_out":false,"dwell_time":113.4580078125,"response_time":1677263507341.65},{"trial":5,"action":9,"button_pressed":-1,"time_out":false,"dwell_time":81.40380859375,"response_time":1677263508009.28},{"trial":6,"action":1,"button_pressed":11,"time_out":false,"dwell_time":114.900146484375,"response_time":1677263520737.74},{"trial":6,"action":1,"button_pressed":0,"time_out":false,"dwell_time":97.857177734375,"response_time":1677263521287.95},{"trial":6,"action":1,"button_pressed":4,"time_out":false,"dwell_time":131.841064453125,"response_time":1677263521654.34},{"trial":6,"action":1,"button_pressed":1,"time_out":false,"dwell_time":97.364990234375,"response_time":1677263522069.69},{"trial":6,"action":9,"button_pressed":-1,"time_out":false,"dwell_time":17.04296875,"response_time":1677263523153.42},{"trial":7,"action":1,"button_pressed":1,"time_out":false,"dwell_time":130.5888671875,"response_time":1677263538248.39},{"trial":7,"action":1,"button_pressed":10,"time_out":false,"dwell_time":113.4228515625,"response_time":1677263538764.62},{"trial":7,"action":1,"button_pressed":0,"time_out":false,"dwell_time":131.281005859375,"response_time":1677263539315.39},{"trial":7,"action":1,"button_pressed":9,"time_out":false,"dwell_time":130.5419921875,"response_time":1677263539764.66},{"trial":7,"action":1,"button_pressed":5,"time_out":false,"dwell_time":147.806884765625,"response_time":1677263540264.13},{"trial":7,"action":9,"button_pressed":-1,"time_out":false,"dwell_time":115.195068359375,"response_time":1677263540799.12},{"trial":8,"action":1,"button_pressed":9,"time_out":false,"dwell_time":114.4111328125,"response_time":1677263557709.11},{"trial":8,"action":1,"button_pressed":1,"time_out":false,"dwell_time":80.300048828125,"response_time":1677263558208.09},{"trial":8,"action":1,"button_pressed":2,"time_out":false,"dwell_time":114.927001953125,"response_time":1677263558758.56},{"trial":8,"action":1,"button_pressed":8,"time_out":false,"dwell_time":97.568115234375,"response_time":1677263559225.15},{"trial":8,"action":1,"button_pressed":6,"time_out":false,"dwell_time":164.1669921875,"response_time":1677263559808.28},{"trial":8,"action":1,"button_pressed":11,"time_out":false,"dwell_time":64.196044921875,"response_time":1677263560407.33},{"trial":8,"action":9,"button_pressed":-1,"time_out":false,"dwell_time":64.985107421875,"response_time":1677263561007.75},{"trial":9,"action":1,"button_pressed":8,"time_out":false,"dwell_time":113.672119140625,"response_time":1677263580484.24},{"trial":9,"action":1,"button_pressed":5,"time_out":false,"dwell_time":98.4150390625,"response_time":1677263581034.49},{"trial":9,"action":1,"button_pressed":1,"time_out":false,"dwell_time":97.010009765625,"response_time":1677263581683.68},{"trial":9,"action":1,"button_pressed":4,"time_out":false,"dwell_time":115.047119140625,"response_time":1677263583000.5},{"trial":9,"action":1,"button_pressed":7,"time_out":false,"dwell_time":131.55810546875,"response_time":1677263583700.32},{"trial":9,"action":1,"button_pressed":11,"time_out":false,"dwell_time":64.31494140625,"response_time":1677263584066.81},{"trial":9,"action":1,"button_pressed":0,"time_out":false,"dwell_time":80.6279296875,"response_time":1677263587015.61},{"trial":9,"action":9,"button_pressed":-1,"time_out":false,"dwell_time":82.218994140625,"response_time":1677263587632.74},{"trial":10,"action":1,"button_pressed":11,"time_out":false,"dwell_time":147.027099609375,"response_time":1677263608608.43},{"trial":10,"action":1,"button_pressed":4,"time_out":false,"dwell_time":131.142822265625,"response_time":1677263609174.44},{"trial":10,"action":1,"button_pressed":6,"time_out":false,"dwell_time":165.076171875,"response_time":1677263609708.5},{"trial":10,"action":1,"button_pressed":9,"time_out":false,"dwell_time":130.137939453125,"response_time":1677263611823.75},{"trial":10,"action":1,"button_pressed":8,"time_out":false,"dwell_time":164.27099609375,"response_time":1677263612374.15},{"trial":10,"action":1,"button_pressed":3,"time_out":false,"dwell_time":147.781005859375,"response_time":1677263612957.38},{"trial":10,"action":1,"button_pressed":5,"time_out":false,"dwell_time":130.5849609375,"response_time":1677263613557.01},{"trial":10,"action":9,"button_pressed":-1,"time_out":false,"dwell_time":98.2578125,"response_time":1677263614240.06}]}