{"meta_data":{"additional_headers":{},"game_name":"Recollect","version":"2.53.01","user_name":"34","organization":"braingamecenter","study":"mpl2_2022_11","session_number":0,"device_id":"74342D95-EE82-45E3-8ADF-48FB3203C5DD"},"data":[{"stage":"Practice","trial":0,"sequence":"6F","letter_input":"F","number_input":"6","is_correct":true,"presentation_start_time":1677463891159.04,"presentation_end_time":1677463894159.53,"response_time":1677463899542.68},{"stage":"Practice","trial":1,"sequence":"G4","letter_input":"G","number_input":"4","is_correct":true,"presentation_start_time":1677463901072.36,"presentation_end_time":1677463904072.86,"response_time":1677463908803.33},{"stage":"Practice","trial":2,"sequence":"3W5","letter_input":"W","number_input":"35","is_correct":true,"presentation_start_time":1677463910335.94,"presentation_end_time":1677463914835.99,"response_time":1677463919283.21},{"stage":"Practice","trial":3,"sequence":"T7L","letter_input":"LT","number_input":"7","is_correct":true,"presentation_start_time":1677463920815.93,"presentation_end_time":1677463925315.79,"response_time":1677463931895.59},{"stage":"Practice","trial":4,"sequence":"9J1","letter_input":"J","number_input":"19","is_correct":true,"presentation_start_time":1677463933428.41,"presentation_end_time":1677463937928.34,"response_time":1677463942109.04},{"stage":"Calibration","trial":0,"sequence":"3E","letter_input":"E","number_input":"3","is_correct":true,"presentation_start_time":1677463947557.01,"presentation_end_time":1677463950557.45,"response_time":1677463954371.61},{"stage":"Calibration","trial":1,"sequence":"D1","letter_input":"D","number_input":"1","is_correct":true,"presentation_start_time":1677463955904.34,"presentation_end_time":1677463958904.76,"response_time":1677463962302.29},{"stage":"Calibration","trial":2,"sequence":"5W2","letter_input":"W","number_input":"25","is_correct":true,"presentation_start_time":1677463963835.01,"presentation_end_time":1677463968334.92,"response_time":1677463972015.75},{"stage":"Calibration","trial":3,"sequence":"P6J","letter_input":"JP","number_input":"6","is_correct":true,"presentation_start_time":1677463973548.46,"presentation_end_time":1677463978048.33,"response_time":1677463981879.15},{"stage":"Calibration","trial":4,"sequence":"7W1G","letter_input":"GW","number_input":"17","is_correct":true,"presentation_start_time":1677463983411.86,"presentation_end_time":1677463989411.24,"response_time":1677463993758.63},{"stage":"Calibration","trial":5,"sequence":"P8B2","letter_input":"BP","number_input":"28","is_correct":true,"presentation_start_time":1677463995291.27,"presentation_end_time":1677464001290.72,"response_time":1677464007504.11},{"stage":"Calibration","trial":6,"sequence":"3K7A5","letter_input":"AK","number_input":"357","is_correct":true,"presentation_start_time":1677464009036.82,"presentation_end_time":1677464016535.68,"response_time":1677464022515.74},{"stage":"Calibration","trial":7,"sequence":"S8P6J","letter_input":"JPS","number_input":"68","is_correct":true,"presentation_start_time":1677464024048.46,"presentation_end_time":1677464031547.41,"response_time":1677464045691.43},{"stage":"Calibration","trial":8,"sequence":"7Z2N9D","letter_input":"DNZ","number_input":"279","is_correct":true,"presentation_start_time":1677464047224.13,"presentation_end_time":1677464056222.57,"response_time":1677464066101.33},{"stage":"Calibration","trial":9,"sequence":"J6A3T1","letter_input":"AJT","number_input":"136","is_correct":true,"presentation_start_time":1677464067634.1,"presentation_end_time":1677464076632.46,"response_time":1677464085028.59},{"stage":"Calibration","trial":10,"sequence":"5L9D7W2","letter_input":"DLW","number_input":"2579","is_correct":true,"presentation_start_time":1677464086561.14,"presentation_end_time":1677464097059.14,"response_time":1677464117767.67},{"stage":"Calibration","trial":11,"sequence":"E6T3P1K","letter_input":"EKPT","number_input":"136","is_correct":true,"presentation_start_time":1677464119300.4,"presentation_end_time":1677464129798.22,"response_time":1677464157587.88},{"stage":"Calibration","trial":12,"sequence":"7Y4R2F9C","letter_input":"CFRY","number_input":"2479","is_correct":true,"presentation_start_time":1677464159120.44,"presentation_end_time":1677464171117.92,"response_time":1677464192809.47},{"stage":"Calibration","trial":13,"sequence":"P3Z8G5S1","letter_input":"GPSZ","number_input":"1358","is_correct":true,"presentation_start_time":1677464194342.28,"presentation_end_time":1677464206339.69,"response_time":1677464238444.49},{"stage":"Calibration","trial":14,"sequence":"6V2J9A4L7","letter_input":"AL","number_input":"12567","is_correct":false,"presentation_start_time":1677464239977.16,"presentation_end_time":1677464253474.06,"response_time":1677464281946.72},{"stage":"Calibration","trial":15,"sequence":"P3E1S8H5Y","letter_input":"ESPY","number_input":"138","is_correct":false,"presentation_start_time":1677464283479.43,"presentation_end_time":1677464296976.27,"response_time":1677464321300.38}]}