{"meta_data":{"additional_headers":{},"game_name":"Recollect","version":"2.53.01","user_name":"35","organization":"braingamecenter","study":"mpl2_2022_11","session_number":0,"device_id":"74342D95-EE82-45E3-8ADF-48FB3203C5DD"},"data":[{"stage":"Practice","trial":0,"sequence":"6F","letter_input":"F","number_input":"6","is_correct":true,"presentation_start_time":1677519432590.61,"presentation_end_time":1677519435590.96,"response_time":1677519444739.87},{"stage":"Practice","trial":1,"sequence":"G4","letter_input":"G","number_input":"4","is_correct":true,"presentation_start_time":1677519446269.5,"presentation_end_time":1677519449269.91,"response_time":1677519454916.91},{"stage":"Practice","trial":2,"sequence":"3W5","letter_input":"W","number_input":"35","is_correct":true,"presentation_start_time":1677519456449.56,"presentation_end_time":1677519460949.41,"response_time":1677519467762.7},{"stage":"Practice","trial":3,"sequence":"T7L","letter_input":"LT","number_input":"7","is_correct":true,"presentation_start_time":1677519469295.46,"presentation_end_time":1677519473795.27,"response_time":1677519482191.49},{"stage":"Practice","trial":4,"sequence":"9J1","letter_input":"J","number_input":"19","is_correct":true,"presentation_start_time":1677519483724.19,"presentation_end_time":1677519488224.11,"response_time":1677519493187.98},{"stage":"Calibration","trial":0,"sequence":"4Y","letter_input":"Y","number_input":"4","is_correct":true,"presentation_start_time":1677519503401.18,"presentation_end_time":1677519506401.57,"response_time":1677519511765.26},{"stage":"Calibration","trial":1,"sequence":"N5","letter_input":"N","number_input":"5","is_correct":true,"presentation_start_time":1677519513298.02,"presentation_end_time":1677519516298.32,"response_time":1677519520512.49},{"stage":"Calibration","trial":2,"sequence":"4H2","letter_input":"H","number_input":"24","is_correct":true,"presentation_start_time":1677519522045.19,"presentation_end_time":1677519526545.02,"response_time":1677519531009.16},{"stage":"Calibration","trial":3,"sequence":"T5D","letter_input":"DT","number_input":"5","is_correct":true,"presentation_start_time":1677519532541.88,"presentation_end_time":1677519537041.69,"response_time":1677519543571.77},{"stage":"Calibration","trial":4,"sequence":"3Y1K","letter_input":"KY","number_input":"13","is_correct":true,"presentation_start_time":1677519545104.49,"presentation_end_time":1677519551103.95,"response_time":1677519558583.57},{"stage":"Calibration","trial":5,"sequence":"W8H2","letter_input":"HW","number_input":"28","is_correct":true,"presentation_start_time":1677519560116.38,"presentation_end_time":1677519566115.86,"response_time":1677519576111.35},{"stage":"Calibration","trial":6,"sequence":"5S3D9","letter_input":"DS","number_input":"359","is_correct":true,"presentation_start_time":1677519577644.12,"presentation_end_time":1677519585143.03,"response_time":1677519599203.99},{"stage":"Calibration","trial":7,"sequence":"H8Q1L","letter_input":"HLQ","number_input":"18","is_correct":true,"presentation_start_time":1677519600736.7,"presentation_end_time":1677519608235.65,"response_time":1677519625079.07},{"stage":"Calibration","trial":8,"sequence":"2M9K6Z","letter_input":"KSZ","number_input":"29","is_correct":false,"presentation_start_time":1677519626611.83,"presentation_end_time":1677519635610.15,"response_time":1677519656035.83},{"stage":"Calibration","trial":9,"sequence":"L1C8A5","letter_input":"ACL","number_input":"158","is_correct":true,"presentation_start_time":1677519657568.48,"presentation_end_time":1677519666567.04,"response_time":1677519689708.4},{"stage":"Calibration","trial":10,"sequence":"9S2F6Z4","letter_input":"AZ","number_input":"24","is_correct":false,"presentation_start_time":1677519691240.97,"presentation_end_time":1677519701739.06,"response_time":1677519724263.94},{"stage":"Calibration","trial":11,"sequence":"N5L1Y7P","letter_input":"ALZ","number_input":"158","is_correct":false,"presentation_start_time":1677519725796.57,"presentation_end_time":1677519736294.64,"response_time":1677519760402.34}]}