{"meta_data":{"additional_headers":{},"game_name":"Recollect","version":"2.53.01","user_name":"36","organization":"braingamecenter","study":"mpl2_2022_11","session_number":0,"device_id":"74342D95-EE82-45E3-8ADF-48FB3203C5DD"},"data":[{"trial":0,"action":1,"button_pressed":3,"time_out":false,"dwell_time":81.218994140625,"response_time":1677537816339.37},{"trial":0,"action":1,"button_pressed":2,"time_out":false,"dwell_time":48.18896484375,"response_time":1677537816956.87},{"trial":0,"action":9,"button_pressed":-1,"time_out":false,"dwell_time":58.14501953125,"response_time":1677537817633.31},{"trial":1,"action":1,"button_pressed":10,"time_out":false,"dwell_time":48.29296875,"response_time":1677537827519.58},{"trial":1,"action":1,"button_pressed":0,"time_out":false,"dwell_time":13.544189453125,"response_time":1677537828201.83},{"trial":1,"action":1,"button_pressed":6,"time_out":false,"dwell_time":30.943115234375,"response_time":1677537828719.66},{"trial":1,"action":9,"button_pressed":-1,"time_out":false,"dwell_time":16.820068359375,"response_time":1677537830501.44},{"trial":2,"action":1,"button_pressed":10,"time_out":false,"dwell_time":30.430908203125,"response_time":1677537842797.78},{"trial":2,"action":1,"button_pressed":3,"time_out":false,"dwell_time":48.331787109375,"response_time":1677537843181.01},{"trial":2,"action":1,"button_pressed":6,"time_out":false,"dwell_time":31.8408203125,"response_time":1677537843514.67},{"trial":2,"action":1,"button_pressed":8,"time_out":false,"dwell_time":47.974853515625,"response_time":1677537844031.31},{"trial":2,"action":9,"button_pressed":-1,"time_out":false,"dwell_time":16.90087890625,"response_time":1677537844780.14},{"trial":3,"action":1,"button_pressed":1,"time_out":false,"dwell_time":15.0439453125,"response_time":1677537859459.68},{"trial":3,"action":1,"button_pressed":10,"time_out":false,"dwell_time":81.399169921875,"response_time":1677537859925.31},{"trial":3,"action":1,"button_pressed":0,"time_out":false,"dwell_time":13.85400390625,"response_time":1677537860324.99},{"trial":3,"action":1,"button_pressed":9,"time_out":false,"dwell_time":32.115234375,"response_time":1677537860759.03},{"trial":3,"action":1,"button_pressed":5,"time_out":false,"dwell_time":48.26806640625,"response_time":1677537861192.38},{"trial":3,"action":9,"button_pressed":-1,"time_out":false,"dwell_time":31.9921875,"response_time":1677537862491.68},{"trial":4,"action":1,"button_pressed":7,"time_out":false,"dwell_time":30.846923828125,"response_time":1677537879752.29},{"trial":4,"action":1,"button_pressed":3,"time_out":false,"dwell_time":65.15087890625,"response_time":1677537880135.65},{"trial":4,"action":1,"button_pressed":8,"time_out":false,"dwell_time":65.031005859375,"response_time":1677537880518.8},{"trial":4,"action":1,"button_pressed":0,"time_out":false,"dwell_time":81.72607421875,"response_time":1677537882218.33},{"trial":4,"action":1,"button_pressed":4,"time_out":false,"dwell_time":64.328857421875,"response_time":1677537882451.51},{"trial":4,"action":1,"button_pressed":1,"time_out":false,"dwell_time":48.02099609375,"response_time":1677537882835.16},{"trial":4,"action":9,"button_pressed":-1,"time_out":false,"dwell_time":64.10888671875,"response_time":1677537883667.58},{"trial":5,"action":1,"button_pressed":0,"time_out":false,"dwell_time":49.074951171875,"response_time":1677537903478.43},{"trial":5,"action":1,"button_pressed":8,"time_out":false,"dwell_time":48.034912109375,"response_time":1677537903811.55},{"trial":5,"action":1,"button_pressed":5,"time_out":false,"dwell_time":49.0419921875,"response_time":1677537904261.53},{"trial":5,"action":1,"button_pressed":6,"time_out":false,"dwell_time":64.27587890625,"response_time":1677537909275.38},{"trial":5,"action":1,"button_pressed":10,"time_out":false,"dwell_time":81.369140625,"response_time":1677537909775.79},{"trial":5,"action":1,"button_pressed":2,"time_out":false,"dwell_time":63.948974609375,"response_time":1677537913491.27},{"trial":5,"action":1,"button_pressed":9,"time_out":false,"dwell_time":31.64697265625,"response_time":1677537913808.64},{"trial":5,"action":9,"button_pressed":-1,"time_out":false,"dwell_time":49.821044921875,"response_time":1677537914675.72},{"trial":6,"action":1,"button_pressed":4,"time_out":false,"dwell_time":49.01806640625,"response_time":1677537938000.4},{"trial":6,"action":1,"button_pressed":11,"time_out":false,"dwell_time":48.79296875,"response_time":1677537938666.8},{"trial":6,"action":1,"button_pressed":7,"time_out":false,"dwell_time":64.248046875,"response_time":1677537939082.82},{"trial":6,"action":1,"button_pressed":0,"time_out":false,"dwell_time":48.835205078125,"response_time":1677537939783.04},{"trial":6,"action":1,"button_pressed":2,"time_out":false,"dwell_time":31.37890625,"response_time":1677537940282.23},{"trial":6,"action":9,"button_pressed":-1,"time_out":true,"dwell_time":0.4072265625,"response_time":1677537950298.58},{"trial":7,"action":1,"button_pressed":5,"time_out":false,"dwell_time":148.593017578125,"response_time":1677537973438.5},{"trial":7,"action":1,"button_pressed":11,"time_out":false,"dwell_time":65.178955078125,"response_time":1677537975321.05},{"trial":7,"action":1,"button_pressed":6,"time_out":false,"dwell_time":47.2080078125,"response_time":1677537976470.36},{"trial":7,"action":1,"button_pressed":4,"time_out":false,"dwell_time":80.8359375,"response_time":1677537979768.86},{"trial":7,"action":1,"button_pressed":10,"time_out":false,"dwell_time":48.9521484375,"response_time":1677537980236.67},{"trial":7,"action":1,"button_pressed":3,"time_out":false,"dwell_time":80.294189453125,"response_time":1677537986066.72},{"trial":7,"action":9,"button_pressed":-1,"time_out":false,"dwell_time":81.56396484375,"response_time":1677537987749.98},{"trial":8,"action":1,"button_pressed":1,"time_out":false,"dwell_time":65.651123046875,"response_time":1677538005128.15},{"trial":8,"action":1,"button_pressed":9,"time_out":false,"dwell_time":82.0048828125,"response_time":1677538005478.01},{"trial":8,"action":1,"button_pressed":5,"time_out":false,"dwell_time":47.94091796875,"response_time":1677538005843.93},{"trial":8,"action":1,"button_pressed":6,"time_out":false,"dwell_time":64.991943359375,"response_time":1677538006427.4},{"trial":8,"action":1,"button_pressed":7,"time_out":false,"dwell_time":48.801025390625,"response_time":1677538006727.77},{"trial":8,"action":1,"button_pressed":2,"time_out":false,"dwell_time":48.037841796875,"response_time":1677538007294.2},{"trial":8,"action":9,"button_pressed":-1,"time_out":false,"dwell_time":81.991943359375,"response_time":1677538009160.19},{"trial":9,"action":1,"button_pressed":1,"time_out":false,"dwell_time":81.990966796875,"response_time":1677538034951.41},{"trial":9,"action":1,"button_pressed":8,"time_out":false,"dwell_time":65.10009765625,"response_time":1677538036000.95},{"trial":9,"action":1,"button_pressed":5,"time_out":false,"dwell_time":48.93701171875,"response_time":1677538036801.19},{"trial":9,"action":1,"button_pressed":6,"time_out":false,"dwell_time":97.471923828125,"response_time":1677538042048.92},{"trial":9,"action":1,"button_pressed":0,"time_out":false,"dwell_time":64.239013671875,"response_time":1677538045314.45},{"trial":9,"action":1,"button_pressed":7,"time_out":false,"dwell_time":48.32177734375,"response_time":1677538045898.45},{"trial":9,"action":1,"button_pressed":11,"time_out":false,"dwell_time":48.8681640625,"response_time":1677538046098.09},{"trial":9,"action":9,"button_pressed":-1,"time_out":false,"dwell_time":65.41796875,"response_time":1677538046997.73},{"trial":10,"action":1,"button_pressed":9,"time_out":false,"dwell_time":81.259033203125,"response_time":1677538067640.8},{"trial":10,"action":1,"button_pressed":7,"time_out":false,"dwell_time":31.330078125,"response_time":1677538068224.11},{"trial":10,"action":1,"button_pressed":4,"time_out":false,"dwell_time":64.375,"response_time":1677538068872.73},{"trial":10,"action":1,"button_pressed":1,"time_out":false,"dwell_time":31.509033203125,"response_time":1677538069590.36},{"trial":10,"action":1,"button_pressed":11,"time_out":false,"dwell_time":64.26904296875,"response_time":1677538070788.86},{"trial":10,"action":1,"button_pressed":6,"time_out":false,"dwell_time":14.136962890625,"response_time":1677538071122.61},{"trial":10,"action":1,"button_pressed":8,"time_out":false,"dwell_time":32.0830078125,"response_time":1677538071872.9},{"trial":10,"action":9,"button_pressed":-1,"time_out":false,"dwell_time":48.494873046875,"response_time":1677538072823.08},{"trial":11,"action":1,"button_pressed":10,"time_out":false,"dwell_time":48.89892578125,"response_time":1677538096531.57},{"trial":11,"action":1,"button_pressed":2,"time_out":false,"dwell_time":31.224853515625,"response_time":1677538097014.29},{"trial":11,"action":1,"button_pressed":1,"time_out":false,"dwell_time":64.208984375,"response_time":1677538097680.58},{"trial":11,"action":1,"button_pressed":9,"time_out":false,"dwell_time":47.989990234375,"response_time":1677538098264.24},{"trial":11,"action":1,"button_pressed":11,"time_out":false,"dwell_time":48.259033203125,"response_time":1677538099279.91},{"trial":11,"action":1,"button_pressed":8,"time_out":false,"dwell_time":30.806884765625,"response_time":1677538099996.47},{"trial":11,"action":1,"button_pressed":4,"time_out":false,"dwell_time":32.31591796875,"response_time":1677538100380.29},{"trial":11,"action":9,"button_pressed":-1,"time_out":false,"dwell_time":98.239990234375,"response_time":1677538103862.63},{"trial":12,"action":1,"button_pressed":1,"time_out":false,"dwell_time":98.6259765625,"response_time":1677538126887.92},{"trial":12,"action":1,"button_pressed":10,"time_out":false,"dwell_time":64.285888671875,"response_time":1677538128837.01},{"trial":12,"action":1,"button_pressed":2,"time_out":false,"dwell_time":30.85302734375,"response_time":1677538129570.04},{"trial":12,"action":1,"button_pressed":0,"time_out":false,"dwell_time":48.88818359375,"response_time":1677538130053.7},{"trial":12,"action":1,"button_pressed":7,"time_out":false,"dwell_time":63.42919921875,"response_time":1677538136067.37},{"trial":12,"action":1,"button_pressed":9,"time_out":false,"dwell_time":48.89013671875,"response_time":1677538138301.09},{"trial":12,"action":1,"button_pressed":4,"time_out":false,"dwell_time":63.752197265625,"response_time":1677538141948.76},{"trial":12,"action":9,"button_pressed":-1,"time_out":false,"dwell_time":98.151123046875,"response_time":1677538144615.81}]}