{"meta_data":{"additional_headers":{},"game_name":"Recollect","version":"2.53.01","user_name":"36","organization":"braingamecenter","study":"mpl2_2022_11","session_number":0,"device_id":"74342D95-EE82-45E3-8ADF-48FB3203C5DD"},"data":[{"stage":"Practice","trial":0,"sequence":"6F","letter_input":"F","number_input":"6","is_correct":true,"presentation_start_time":1677538194397.31,"presentation_end_time":1677538197397.7,"response_time":1677538208960.8},{"stage":"Practice","trial":1,"sequence":"G4","letter_input":"G","number_input":"4","is_correct":true,"presentation_start_time":1677538210491.95,"presentation_end_time":1677538213492.3,"response_time":1677538218872.69},{"stage":"Practice","trial":2,"sequence":"3W5","letter_input":"W","number_input":"35","is_correct":true,"presentation_start_time":1677538220405.4,"presentation_end_time":1677538224905.3,"response_time":1677538231018.67},{"stage":"Practice","trial":3,"sequence":"T7L","letter_input":"LT","number_input":"7","is_correct":true,"presentation_start_time":1677538232551.41,"presentation_end_time":1677538237051.3,"response_time":1677538255760.54},{"stage":"Practice","trial":4,"sequence":"9J1","letter_input":"J","number_input":"19","is_correct":true,"presentation_start_time":1677538257293.22,"presentation_end_time":1677538261793.12,"response_time":1677538267906.52},{"stage":"Calibration","trial":0,"sequence":"N8","letter_input":"N","number_input":"8","is_correct":true,"presentation_start_time":1677538280785.51,"presentation_end_time":1677538283785.94,"response_time":1677538289682.72},{"stage":"Calibration","trial":1,"sequence":"6H","letter_input":"H","number_input":"6","is_correct":true,"presentation_start_time":1677538291215.43,"presentation_end_time":1677538294215.95,"response_time":1677538298296.56},{"stage":"Calibration","trial":2,"sequence":"Y4A","letter_input":"AY","number_input":"4","is_correct":true,"presentation_start_time":1677538299829.24,"presentation_end_time":1677538304329.19,"response_time":1677538309476.18},{"stage":"Calibration","trial":3,"sequence":"9J2","letter_input":"J","number_input":"29","is_correct":true,"presentation_start_time":1677538311008.93,"presentation_end_time":1677538315508.81,"response_time":1677538321788.82},{"stage":"Calibration","trial":4,"sequence":"W8F3","letter_input":"FW","number_input":"38","is_correct":true,"presentation_start_time":1677538323321.5,"presentation_end_time":1677538329320.95,"response_time":1677538334884.53},{"stage":"Calibration","trial":5,"sequence":"9Q6M","letter_input":"MQ","number_input":"69","is_correct":true,"presentation_start_time":1677538336417.33,"presentation_end_time":1677538342416.58,"response_time":1677538354994.52},{"stage":"Calibration","trial":6,"sequence":"Y7T3L","letter_input":"LTY","number_input":"37","is_correct":true,"presentation_start_time":1677538356527.25,"presentation_end_time":1677538364026.19,"response_time":1677538385734.48},{"stage":"Calibration","trial":7,"sequence":"2S9C5","letter_input":"CS","number_input":"259","is_correct":true,"presentation_start_time":1677538387267.16,"presentation_end_time":1677538394766.21,"response_time":1677538407227.35},{"stage":"Calibration","trial":8,"sequence":"Y3P1L8","letter_input":"LY","number_input":"139","is_correct":false,"presentation_start_time":1677538408760.03,"presentation_end_time":1677538417758.45,"response_time":1677538440949.52},{"stage":"Calibration","trial":9,"sequence":"7V4T2H","letter_input":"VY","number_input":"247","is_correct":false,"presentation_start_time":1677538442482.31,"presentation_end_time":1677538451480.69,"response_time":1677538483319.01}]}