{"meta_data":{"additional_headers":{},"game_name":"Recollect","version":"2.53.01","user_name":"37","organization":"braingamecenter","study":"mpl2_2022_11","session_number":0,"device_id":"74342D95-EE82-45E3-8ADF-48FB3203C5DD"},"data":[{"stage":"Practice","trial":0,"sequence":"6F","letter_input":"F","number_input":"6","is_correct":true,"presentation_start_time":1677608948761.22,"presentation_end_time":1677608951761.51,"response_time":1677608960160.61},{"stage":"Practice","trial":1,"sequence":"G4","letter_input":"G","number_input":"4","is_correct":true,"presentation_start_time":1677608961690.2,"presentation_end_time":1677608964690.78,"response_time":1677608970137.51},{"stage":"Practice","trial":2,"sequence":"3W5","letter_input":"W","number_input":"35","is_correct":true,"presentation_start_time":1677608971670.18,"presentation_end_time":1677608976170.35,"response_time":1677608980850.6},{"stage":"Practice","trial":3,"sequence":"T7L","letter_input":"LT","number_input":"7","is_correct":true,"presentation_start_time":1677608982383.35,"presentation_end_time":1677608986883.25,"response_time":1677608997378.6},{"stage":"Practice","trial":4,"sequence":"9J1","letter_input":"J","number_input":"19","is_correct":true,"presentation_start_time":1677608998911.16,"presentation_end_time":1677609003411.03,"response_time":1677609008158.16},{"stage":"Calibration","trial":0,"sequence":"N6","letter_input":"N","number_input":"6","is_correct":true,"presentation_start_time":1677609019371.05,"presentation_end_time":1677609022371.42,"response_time":1677609026735.39},{"stage":"Calibration","trial":1,"sequence":"2Y","letter_input":"Y","number_input":"2","is_correct":true,"presentation_start_time":1677609028268.13,"presentation_end_time":1677609031268.46,"response_time":1677609035765.67},{"stage":"Calibration","trial":2,"sequence":"V4T","letter_input":"TV","number_input":"4","is_correct":true,"presentation_start_time":1677609037298.48,"presentation_end_time":1677609041798.26,"response_time":1677609046978.67},{"stage":"Calibration","trial":3,"sequence":"9Q1","letter_input":"Q","number_input":"19","is_correct":true,"presentation_start_time":1677609048511.34,"presentation_end_time":1677609053011.41,"response_time":1677609058841.35},{"stage":"Calibration","trial":4,"sequence":"L6H3","letter_input":"HL","number_input":"36","is_correct":true,"presentation_start_time":1677609060374.07,"presentation_end_time":1677609066373.49,"response_time":1677609073819.65},{"stage":"Calibration","trial":5,"sequence":"8W2E","letter_input":"EW","number_input":"28","is_correct":true,"presentation_start_time":1677609075352.39,"presentation_end_time":1677609081351.86,"response_time":1677609089231.23},{"stage":"Calibration","trial":6,"sequence":"C5Q3F","letter_input":"QCFQ","number_input":"35","is_correct":false,"presentation_start_time":1677609090763.94,"presentation_end_time":1677609098262.95,"response_time":1677609118988},{"stage":"Calibration","trial":7,"sequence":"1Y8J4","letter_input":"J","number_input":"148","is_correct":false,"presentation_start_time":1677609120520.78,"presentation_end_time":1677609128019.69,"response_time":1677609134382.9}]}