{"meta_data":{"additional_headers":{},"game_name":"Recollect","version":"2.53.01","user_name":"38","organization":"braingamecenter","study":"mpl2_2022_11","session_number":0,"device_id":"74342D95-EE82-45E3-8ADF-48FB3203C5DD"},"data":[{"stage":"Practice","trial":0,"sequence":"6F","letter_input":"F","number_input":"6","is_correct":true,"presentation_start_time":1677630830800.62,"presentation_end_time":1677630833801.08,"response_time":1677630840665.95},{"stage":"Practice","trial":1,"sequence":"G4","letter_input":"G","number_input":"4","is_correct":true,"presentation_start_time":1677630842196.91,"presentation_end_time":1677630845197.28,"response_time":1677630848961.47},{"stage":"Practice","trial":2,"sequence":"3W5","letter_input":"W","number_input":"5","is_correct":false,"presentation_start_time":1677630850494.27,"presentation_end_time":1677630854994.03,"response_time":1677630860774.24},{"stage":"Practice","trial":3,"sequence":"T7L","letter_input":"L","number_input":"2","is_correct":false,"presentation_start_time":1677630863806.39,"presentation_end_time":1677630868306.39,"response_time":1677630875036.15},{"stage":"Practice","trial":4,"sequence":"9J1","letter_input":"J","number_input":"19","is_correct":true,"presentation_start_time":1677630878068.34,"presentation_end_time":1677630882568.32,"response_time":1677630890331.14},{"stage":"Calibration","trial":0,"sequence":"E5","letter_input":"E","number_input":"5","is_correct":true,"presentation_start_time":1677630897445.28,"presentation_end_time":1677630900445.69,"response_time":1677630905509.35},{"stage":"Calibration","trial":1,"sequence":"6N","letter_input":"N","number_input":"6","is_correct":true,"presentation_start_time":1677630907042.12,"presentation_end_time":1677630910042.42,"response_time":1677630913540.04},{"stage":"Calibration","trial":2,"sequence":"R2P","letter_input":"PR","number_input":"2","is_correct":true,"presentation_start_time":1677630915072.77,"presentation_end_time":1677630919572.65,"response_time":1677630927885.27},{"stage":"Calibration","trial":3,"sequence":"5W3","letter_input":"W","number_input":"35","is_correct":true,"presentation_start_time":1677630929417.95,"presentation_end_time":1677630933917.94,"response_time":1677630938681.67},{"stage":"Calibration","trial":4,"sequence":"K6H4","letter_input":"HK","number_input":"46","is_correct":true,"presentation_start_time":1677630940214.37,"presentation_end_time":1677630946213.85,"response_time":1677630952243.9},{"stage":"Calibration","trial":5,"sequence":"8V5T","letter_input":"TV","number_input":"58","is_correct":true,"presentation_start_time":1677630953776.56,"presentation_end_time":1677630959776.08,"response_time":1677630965206.29},{"stage":"Calibration","trial":6,"sequence":"Q3J1S","letter_input":"JQS","number_input":"13","is_correct":true,"presentation_start_time":1677630966738.95,"presentation_end_time":1677630974237.91,"response_time":1677630984949.76},{"stage":"Calibration","trial":7,"sequence":"7Z2G9","letter_input":"GZ","number_input":"279","is_correct":true,"presentation_start_time":1677630986482.46,"presentation_end_time":1677630993981.47,"response_time":1677631000494.55},{"stage":"Calibration","trial":8,"sequence":"W3Q8D6","letter_input":"DQW","number_input":"368","is_correct":true,"presentation_start_time":1677631002027.27,"presentation_end_time":1677631011025.65,"response_time":1677631022620.68},{"stage":"Calibration","trial":9,"sequence":"5N1J7T","letter_input":"JNT","number_input":"157","is_correct":true,"presentation_start_time":1677631024153.32,"presentation_end_time":1677631033151.74,"response_time":1677631045846.23},{"stage":"Calibration","trial":10,"sequence":"E4Y2R6M","letter_input":"ELM","number_input":"246","is_correct":false,"presentation_start_time":1677631047378.93,"presentation_end_time":1677631057876.84,"response_time":1677631075636.3},{"stage":"Calibration","trial":11,"sequence":"3K1S9P5","letter_input":"KPS","number_input":"1359","is_correct":true,"presentation_start_time":1677631077169.01,"presentation_end_time":1677631087666.92,"response_time":1677631110224.9},{"stage":"Calibration","trial":12,"sequence":"W8T6Q4G2","letter_input":"GKW","number_input":"2468","is_correct":false,"presentation_start_time":1677631111757.55,"presentation_end_time":1677631123754.95,"response_time":1677631151111.37},{"stage":"Calibration","trial":13,"sequence":"3J1F9S5A","letter_input":"AFGS","number_input":"1379","is_correct":false,"presentation_start_time":1677631152644.04,"presentation_end_time":1677631164641.73,"response_time":1677631182301.07}]}