{"meta_data":{"additional_headers":{},"game_name":"Recollect","version":"2.53.01","user_name":"39","organization":"braingamecenter","study":"mpl2_2022_11","session_number":0,"device_id":"74342D95-EE82-45E3-8ADF-48FB3203C5DD"},"data":[{"stage":"Practice","trial":0,"sequence":"6F","letter_input":"F","number_input":"6","is_correct":true,"presentation_start_time":1677693278160.19,"presentation_end_time":1677693281160.8,"response_time":1677693287875.44},{"stage":"Practice","trial":1,"sequence":"G4","letter_input":"G","number_input":"4","is_correct":true,"presentation_start_time":1677693289406.53,"presentation_end_time":1677693292406.94,"response_time":1677693298170.47},{"stage":"Practice","trial":2,"sequence":"3W5","letter_input":"W","number_input":"35","is_correct":true,"presentation_start_time":1677693299703.16,"presentation_end_time":1677693304203.21,"response_time":1677693309400.12},{"stage":"Practice","trial":3,"sequence":"T7L","letter_input":"LT","number_input":"7","is_correct":true,"presentation_start_time":1677693310932.86,"presentation_end_time":1677693315432.77,"response_time":1677693324178.52},{"stage":"Practice","trial":4,"sequence":"9J1","letter_input":"J","number_input":"19","is_correct":true,"presentation_start_time":1677693325711.24,"presentation_end_time":1677693330211.34,"response_time":1677693335641.43},{"stage":"Calibration","trial":0,"sequence":"7A","letter_input":"A","number_input":"7","is_correct":true,"presentation_start_time":1677693342922.31,"presentation_end_time":1677693345922.79,"response_time":1677693350270.03},{"stage":"Calibration","trial":1,"sequence":"M1","letter_input":"M","number_input":"1","is_correct":true,"presentation_start_time":1677693351802.72,"presentation_end_time":1677693354803.11,"response_time":1677693358817.15},{"stage":"Calibration","trial":2,"sequence":"9W4","letter_input":"W","number_input":"49","is_correct":true,"presentation_start_time":1677693360349.91,"presentation_end_time":1677693364849.89,"response_time":1677693369413.78},{"stage":"Calibration","trial":3,"sequence":"R8D","letter_input":"DR","number_input":"8","is_correct":true,"presentation_start_time":1677693370946.39,"presentation_end_time":1677693375446.42,"response_time":1677693381093.16},{"stage":"Calibration","trial":4,"sequence":"7W3B","letter_input":"BW","number_input":"37","is_correct":true,"presentation_start_time":1677693382625.86,"presentation_end_time":1677693388625.42,"response_time":1677693395788.35},{"stage":"Calibration","trial":5,"sequence":"R8L5","letter_input":"LR","number_input":"58","is_correct":true,"presentation_start_time":1677693397321.11,"presentation_end_time":1677693403320.53,"response_time":1677693414665.46},{"stage":"Calibration","trial":6,"sequence":"1M6F3","letter_input":"FM","number_input":"136","is_correct":true,"presentation_start_time":1677693416198.21,"presentation_end_time":1677693423697.26,"response_time":1677693441589.95},{"stage":"Calibration","trial":7,"sequence":"D7W4T","letter_input":"DTW","number_input":"47","is_correct":true,"presentation_start_time":1677693443122.63,"presentation_end_time":1677693450621.74,"response_time":1677693465432.13},{"stage":"Calibration","trial":8,"sequence":"2Z8K6E","letter_input":"KZ","number_input":"268","is_correct":false,"presentation_start_time":1677693466964.87,"presentation_end_time":1677693475963.37,"response_time":1677693494122.7},{"stage":"Calibration","trial":9,"sequence":"R9L4F1","letter_input":"FLR","number_input":"149","is_correct":true,"presentation_start_time":1677693495655.37,"presentation_end_time":1677693504653.93,"response_time":1677693527228.49},{"stage":"Calibration","trial":10,"sequence":"2K5Y3V7","letter_input":"FKV","number_input":"237","is_correct":false,"presentation_start_time":1677693528761.2,"presentation_end_time":1677693539259.2,"response_time":1677693563366.6},{"stage":"Calibration","trial":11,"sequence":"H9F6W4B","letter_input":"H","number_input":"43","is_correct":false,"presentation_start_time":1677693564899.31,"presentation_end_time":1677693575397.3,"response_time":1677693583360.09}]}