{"meta_data":{"additional_headers":{},"game_name":"Recollect","version":"2.53.01","user_name":"40","organization":"braingamecenter","study":"mpl2_2022_11","session_number":0,"device_id":"74342D95-EE82-45E3-8ADF-48FB3203C5DD"},"data":[{"trial":0,"action":1,"button_pressed":8,"time_out":false,"dwell_time":47.6611328125,"response_time":1677783050839.7},{"trial":0,"action":1,"button_pressed":0,"time_out":false,"dwell_time":48.593994140625,"response_time":1677783051356.08},{"trial":0,"action":9,"button_pressed":-1,"time_out":false,"dwell_time":90.094970703125,"response_time":1677783052297},{"trial":1,"action":1,"button_pressed":3,"time_out":false,"dwell_time":64.4150390625,"response_time":1677783061902.29},{"trial":1,"action":1,"button_pressed":9,"time_out":false,"dwell_time":47.72802734375,"response_time":1677783062135.9},{"trial":1,"action":1,"button_pressed":7,"time_out":false,"dwell_time":13.242919921875,"response_time":1677783062701.08},{"trial":1,"action":9,"button_pressed":-1,"time_out":false,"dwell_time":82.155029296875,"response_time":1677783063602.1},{"trial":2,"action":1,"button_pressed":1,"time_out":false,"dwell_time":48.954833984375,"response_time":1677783075598.25},{"trial":2,"action":1,"button_pressed":6,"time_out":false,"dwell_time":64.31591796875,"response_time":1677783075880.45},{"trial":2,"action":1,"button_pressed":5,"time_out":false,"dwell_time":63.68798828125,"response_time":1677783076380.2},{"trial":2,"action":1,"button_pressed":10,"time_out":false,"dwell_time":31.223876953125,"response_time":1677783076981.2},{"trial":2,"action":9,"button_pressed":-1,"time_out":false,"dwell_time":148.714111328125,"response_time":1677783080380.01},{"trial":3,"action":1,"button_pressed":7,"time_out":false,"dwell_time":65.046875,"response_time":1677783095091.5},{"trial":3,"action":1,"button_pressed":4,"time_out":false,"dwell_time":64.587890625,"response_time":1677783095590.8},{"trial":3,"action":1,"button_pressed":11,"time_out":false,"dwell_time":64.138916015625,"response_time":1677783095990.43},{"trial":3,"action":1,"button_pressed":3,"time_out":false,"dwell_time":64.18994140625,"response_time":1677783096340.99},{"trial":3,"action":1,"button_pressed":10,"time_out":false,"dwell_time":63.527099609375,"response_time":1677783096789.53},{"trial":3,"action":9,"button_pressed":-1,"time_out":false,"dwell_time":131.826171875,"response_time":1677783098757.26},{"trial":4,"action":1,"button_pressed":5,"time_out":false,"dwell_time":81.237060546875,"response_time":1677783115934.11},{"trial":4,"action":1,"button_pressed":10,"time_out":false,"dwell_time":81.486083984375,"response_time":1677783116517.8},{"trial":4,"action":1,"button_pressed":7,"time_out":false,"dwell_time":64.146240234375,"response_time":1677783117250.81},{"trial":4,"action":1,"button_pressed":4,"time_out":false,"dwell_time":81.60888671875,"response_time":1677783117717.2},{"trial":4,"action":1,"button_pressed":0,"time_out":false,"dwell_time":47.4111328125,"response_time":1677783118016.98},{"trial":4,"action":1,"button_pressed":8,"time_out":false,"dwell_time":47.674072265625,"response_time":1677783118467.35},{"trial":4,"action":9,"button_pressed":-1,"time_out":false,"dwell_time":115.508056640625,"response_time":1677783119267.17},{"trial":5,"action":1,"button_pressed":5,"time_out":false,"dwell_time":64.722900390625,"response_time":1677783138893.12},{"trial":5,"action":1,"button_pressed":3,"time_out":false,"dwell_time":48.3828125,"response_time":1677783139426.54},{"trial":5,"action":1,"button_pressed":8,"time_out":false,"dwell_time":63.504150390625,"response_time":1677783139992.57},{"trial":5,"action":1,"button_pressed":11,"time_out":false,"dwell_time":81.744140625,"response_time":1677783140709.75},{"trial":5,"action":1,"button_pressed":7,"time_out":false,"dwell_time":47.85693359375,"response_time":1677783140993.26},{"trial":5,"action":1,"button_pressed":4,"time_out":false,"dwell_time":81.800048828125,"response_time":1677783141609.37},{"trial":5,"action":1,"button_pressed":10,"time_out":false,"dwell_time":81.92919921875,"response_time":1677783141876.26},{"trial":5,"action":9,"button_pressed":-1,"time_out":false,"dwell_time":113.741943359375,"response_time":1677783144858.03},{"trial":6,"action":1,"button_pressed":0,"time_out":false,"dwell_time":30.762939453125,"response_time":1677783168117.09},{"trial":6,"action":1,"button_pressed":8,"time_out":false,"dwell_time":63.592041015625,"response_time":1677783168866.46},{"trial":6,"action":1,"button_pressed":6,"time_out":false,"dwell_time":31.968994140625,"response_time":1677783172832.85},{"trial":6,"action":1,"button_pressed":5,"time_out":false,"dwell_time":81.401123046875,"response_time":1677783173615.14},{"trial":6,"action":1,"button_pressed":9,"time_out":false,"dwell_time":48.040771484375,"response_time":1677783175664.64},{"trial":6,"action":1,"button_pressed":7,"time_out":false,"dwell_time":48.859130859375,"response_time":1677783176315.11},{"trial":6,"action":1,"button_pressed":2,"time_out":false,"dwell_time":30.965087890625,"response_time":1677783176914.57},{"trial":6,"action":9,"button_pressed":-1,"time_out":false,"dwell_time":65.5458984375,"response_time":1677783177847.88},{"trial":7,"action":1,"button_pressed":1,"time_out":false,"dwell_time":81.2880859375,"response_time":1677783205805.22},{"trial":7,"action":1,"button_pressed":10,"time_out":false,"dwell_time":98.400146484375,"response_time":1677783206388.16},{"trial":7,"action":1,"button_pressed":0,"time_out":false,"dwell_time":114.23681640625,"response_time":1677783207237.21},{"trial":7,"action":1,"button_pressed":2,"time_out":false,"dwell_time":81.79296875,"response_time":1677783208287.54},{"trial":7,"action":1,"button_pressed":7,"time_out":false,"dwell_time":131.556884765625,"response_time":1677783214335.59},{"trial":7,"action":1,"button_pressed":6,"time_out":false,"dwell_time":131.862060546875,"response_time":1677783215335.33},{"trial":7,"action":1,"button_pressed":9,"time_out":false,"dwell_time":47.91796875,"response_time":1677783215818.76},{"trial":7,"action":9,"button_pressed":-1,"time_out":true,"dwell_time":10059.8588867188,"response_time":1677783225830.7},{"trial":8,"action":1,"button_pressed":7,"time_out":false,"dwell_time":64.4169921875,"response_time":1677783243342.33},{"trial":8,"action":1,"button_pressed":3,"time_out":false,"dwell_time":81.60693359375,"response_time":1677783243842.62},{"trial":8,"action":1,"button_pressed":8,"time_out":false,"dwell_time":96.7939453125,"response_time":1677783245674.72},{"trial":8,"action":1,"button_pressed":0,"time_out":false,"dwell_time":80.97607421875,"response_time":1677783246474.45},{"trial":8,"action":1,"button_pressed":4,"time_out":false,"dwell_time":48.802978515625,"response_time":1677783247025.25},{"trial":8,"action":1,"button_pressed":1,"time_out":false,"dwell_time":48.125,"response_time":1677783247507.87},{"trial":8,"action":9,"button_pressed":-1,"time_out":false,"dwell_time":65.39599609375,"response_time":1677783248191.67},{"trial":9,"action":1,"button_pressed":3,"time_out":false,"dwell_time":65.218017578125,"response_time":1677783269984.18},{"trial":9,"action":1,"button_pressed":0,"time_out":false,"dwell_time":47.449951171875,"response_time":1677783270367.08},{"trial":9,"action":1,"button_pressed":10,"time_out":false,"dwell_time":31.31494140625,"response_time":1677783270816.86},{"trial":9,"action":1,"button_pressed":5,"time_out":false,"dwell_time":63.406982421875,"response_time":1677783274381.8},{"trial":9,"action":1,"button_pressed":4,"time_out":false,"dwell_time":64.404052734375,"response_time":1677783274965.8},{"trial":9,"action":1,"button_pressed":1,"time_out":false,"dwell_time":64.453857421875,"response_time":1677783275382.4},{"trial":9,"action":1,"button_pressed":2,"time_out":false,"dwell_time":48.14697265625,"response_time":1677783275848.52},{"trial":9,"action":9,"button_pressed":-1,"time_out":false,"dwell_time":18.093994140625,"response_time":1677783276665.87},{"trial":10,"action":1,"button_pressed":8,"time_out":false,"dwell_time":81.072021484375,"response_time":1677783298757.34},{"trial":10,"action":1,"button_pressed":9,"time_out":false,"dwell_time":64.598876953125,"response_time":1677783299457.22},{"trial":10,"action":1,"button_pressed":10,"time_out":false,"dwell_time":63.5048828125,"response_time":1677783300223.45},{"trial":10,"action":1,"button_pressed":2,"time_out":false,"dwell_time":98.37109375,"response_time":1677783303173.23},{"trial":10,"action":1,"button_pressed":4,"time_out":false,"dwell_time":48.26611328125,"response_time":1677783303890.23},{"trial":10,"action":1,"button_pressed":1,"time_out":false,"dwell_time":48.10986328125,"response_time":1677783304472.48},{"trial":10,"action":1,"button_pressed":0,"time_out":false,"dwell_time":64.02099609375,"response_time":1677783304889.17},{"trial":10,"action":1,"button_pressed":5,"time_out":false,"dwell_time":48.94091796875,"response_time":1677783305339.71},{"trial":10,"action":9,"button_pressed":-1,"time_out":false,"dwell_time":81.325927734375,"response_time":1677783309537.53},{"trial":11,"action":1,"button_pressed":7,"time_out":false,"dwell_time":30.908935546875,"response_time":1677783331613.73},{"trial":11,"action":1,"button_pressed":5,"time_out":false,"dwell_time":64.20703125,"response_time":1677783332196.33},{"trial":11,"action":1,"button_pressed":3,"time_out":false,"dwell_time":81.72900390625,"response_time":1677783332830.17},{"trial":11,"action":1,"button_pressed":4,"time_out":false,"dwell_time":80.929931640625,"response_time":1677783333179.97},{"trial":11,"action":1,"button_pressed":1,"time_out":false,"dwell_time":47.411865234375,"response_time":1677783333646.25},{"trial":11,"action":1,"button_pressed":10,"time_out":false,"dwell_time":47.30810546875,"response_time":1677783334129.45},{"trial":11,"action":1,"button_pressed":2,"time_out":false,"dwell_time":64.240966796875,"response_time":1677783334578.77},{"trial":11,"action":1,"button_pressed":8,"time_out":false,"dwell_time":30.781982421875,"response_time":1677783334862.64},{"trial":11,"action":9,"button_pressed":-1,"time_out":false,"dwell_time":16.971923828125,"response_time":1677783335578.7},{"trial":12,"action":1,"button_pressed":2,"time_out":false,"dwell_time":81.281005859375,"response_time":1677783360037.24},{"trial":12,"action":1,"button_pressed":5,"time_out":false,"dwell_time":64.343994140625,"response_time":1677783360353.89},{"trial":12,"action":1,"button_pressed":9,"time_out":false,"dwell_time":31.094970703125,"response_time":1677783362837.43},{"trial":12,"action":1,"button_pressed":7,"time_out":false,"dwell_time":47.273193359375,"response_time":1677783363553.09},{"trial":12,"action":1,"button_pressed":3,"time_out":false,"dwell_time":81.123046875,"response_time":1677783364235.84},{"trial":12,"action":1,"button_pressed":11,"time_out":false,"dwell_time":81.60498046875,"response_time":1677783365336.14},{"trial":12,"action":1,"button_pressed":8,"time_out":false,"dwell_time":130.800048828125,"response_time":1677783370684.39},{"trial":12,"action":1,"button_pressed":0,"time_out":false,"dwell_time":97.656982421875,"response_time":1677783371250.26},{"trial":12,"action":9,"button_pressed":-1,"time_out":false,"dwell_time":130.740234375,"response_time":1677783381064.13},{"trial":13,"action":1,"button_pressed":9,"time_out":false,"dwell_time":97.845947265625,"response_time":1677783409421.16},{"trial":13,"action":1,"button_pressed":8,"time_out":false,"dwell_time":164.900146484375,"response_time":1677783413736.9},{"trial":13,"action":1,"button_pressed":2,"time_out":false,"dwell_time":47.22509765625,"response_time":1677783414186.48},{"trial":13,"action":1,"button_pressed":11,"time_out":false,"dwell_time":64.263916015625,"response_time":1677783414769.88},{"trial":13,"action":1,"button_pressed":6,"time_out":false,"dwell_time":64.764892578125,"response_time":1677783416236.12},{"trial":13,"action":1,"button_pressed":5,"time_out":false,"dwell_time":80.26806640625,"response_time":1677783417135.23},{"trial":13,"action":1,"button_pressed":4,"time_out":false,"dwell_time":49.379150390625,"response_time":1677783419351.43},{"trial":13,"action":1,"button_pressed":1,"time_out":false,"dwell_time":31.632080078125,"response_time":1677783422248.9},{"trial":13,"action":1,"button_pressed":10,"time_out":false,"dwell_time":48.69384765625,"response_time":1677783422566.32},{"trial":13,"action":9,"button_pressed":-1,"time_out":false,"dwell_time":16.7919921875,"response_time":1677783424432.9}]}