{"meta_data":{"additional_headers":{},"game_name":"Recollect","version":"2.53.01","user_name":"40","organization":"braingamecenter","study":"mpl2_2022_11","session_number":0,"device_id":"74342D95-EE82-45E3-8ADF-48FB3203C5DD"},"data":[{"stage":"Practice","trial":0,"sequence":"6F","letter_input":"F","number_input":"6","is_correct":true,"presentation_start_time":1677783455804.81,"presentation_end_time":1677783458805.27,"response_time":1677783465669.9},{"stage":"Practice","trial":1,"sequence":"G4","letter_input":"G","number_input":"4","is_correct":true,"presentation_start_time":1677783467201.1,"presentation_end_time":1677783470201.57,"response_time":1677783475914.96},{"stage":"Practice","trial":2,"sequence":"3W5","letter_input":"W","number_input":"35","is_correct":true,"presentation_start_time":1677783477447.67,"presentation_end_time":1677783481947.74,"response_time":1677783487027.98},{"stage":"Practice","trial":3,"sequence":"T7L","letter_input":"LT","number_input":"7","is_correct":true,"presentation_start_time":1677783488560.67,"presentation_end_time":1677783493060.71,"response_time":1677783499274},{"stage":"Practice","trial":4,"sequence":"9J1","letter_input":"J","number_input":"19","is_correct":true,"presentation_start_time":1677783500806.72,"presentation_end_time":1677783505306.7,"response_time":1677783509454.1},{"stage":"Calibration","trial":0,"sequence":"1E","letter_input":"E","number_input":"1","is_correct":true,"presentation_start_time":1677783514985.41,"presentation_end_time":1677783517985.9,"response_time":1677783521750.02},{"stage":"Calibration","trial":1,"sequence":"M3","letter_input":"M","number_input":"3","is_correct":true,"presentation_start_time":1677783523282.75,"presentation_end_time":1677783526283.22,"response_time":1677783529564.13},{"stage":"Calibration","trial":2,"sequence":"9G4","letter_input":"G","number_input":"49","is_correct":true,"presentation_start_time":1677783531096.82,"presentation_end_time":1677783535596.8,"response_time":1677783540460.5},{"stage":"Calibration","trial":3,"sequence":"Z3W","letter_input":"WZ","number_input":"3","is_correct":true,"presentation_start_time":1677783541993.24,"presentation_end_time":1677783546493.25,"response_time":1677783551723.53},{"stage":"Calibration","trial":4,"sequence":"9L1H","letter_input":"HL","number_input":"19","is_correct":true,"presentation_start_time":1677783553256.18,"presentation_end_time":1677783559255.93,"response_time":1677783564602.64},{"stage":"Calibration","trial":5,"sequence":"Q5C3","letter_input":"CQ","number_input":"35","is_correct":true,"presentation_start_time":1677783566135.32,"presentation_end_time":1677783572134.78,"response_time":1677783577398.45},{"stage":"Calibration","trial":6,"sequence":"4T8K6","letter_input":"TKKTKKKKKKK","number_input":"468","is_correct":false,"presentation_start_time":1677783578931.07,"presentation_end_time":1677783586430.08,"response_time":1677783649008.29},{"stage":"Calibration","trial":7,"sequence":"R5P3N","letter_input":"NPR","number_input":"35","is_correct":true,"presentation_start_time":1677783650540.98,"presentation_end_time":1677783658039.96,"response_time":1677783668568.58},{"stage":"Calibration","trial":8,"sequence":"9G4B2S","letter_input":"BGS","number_input":"249","is_correct":true,"presentation_start_time":1677783670101.24,"presentation_end_time":1677783679099.81,"response_time":1677783691760.86},{"stage":"Calibration","trial":9,"sequence":"R1F5W3","letter_input":"FRW","number_input":"135","is_correct":true,"presentation_start_time":1677783693293.65,"presentation_end_time":1677783702292.15,"response_time":1677783708322.18},{"stage":"Calibration","trial":10,"sequence":"2H7C4N9","letter_input":"CHN","number_input":"2479","is_correct":true,"presentation_start_time":1677783709854.9,"presentation_end_time":1677783720352.92,"response_time":1677783732997.36},{"stage":"Calibration","trial":11,"sequence":"Z1L8E5W","letter_input":"LTW","number_input":"358","is_correct":false,"presentation_start_time":1677783734530.04,"presentation_end_time":1677783745028.12,"response_time":1677783784063.95},{"stage":"Calibration","trial":12,"sequence":"7Q2J9G4C","letter_input":"CHQT","number_input":"3478","is_correct":false,"presentation_start_time":1677783785596.76,"presentation_end_time":1677783797594.26,"response_time":1677783842944.7},{"stage":"Calibration","trial":13,"sequence":"B8T5H3Z1","letter_input":"BTZ","number_input":"1358","is_correct":false,"presentation_start_time":1677783844477.36,"presentation_end_time":1677783856474.94,"response_time":1677783880082.53}]}