{"meta_data":{"additional_headers":{},"game_name":"Recollect","version":"2.53.01","user_name":"41","organization":"braingamecenter","study":"mpl2_2022_11","session_number":0,"device_id":"74342D95-EE82-45E3-8ADF-48FB3203C5DD"},"data":[{"trial":0,"action":1,"button_pressed":2,"time_out":false,"dwell_time":98.878173828125,"response_time":1677866377077.26},{"trial":0,"action":1,"button_pressed":9,"time_out":false,"dwell_time":81.950927734375,"response_time":1677866377960.14},{"trial":0,"action":9,"button_pressed":-1,"time_out":false,"dwell_time":91.5869140625,"response_time":1677866378769.44},{"trial":1,"action":1,"button_pressed":10,"time_out":false,"dwell_time":82.257080078125,"response_time":1677866388223.3},{"trial":1,"action":1,"button_pressed":0,"time_out":false,"dwell_time":98.453857421875,"response_time":1677866388623.08},{"trial":1,"action":1,"button_pressed":6,"time_out":false,"dwell_time":48.989013671875,"response_time":1677866388956.74},{"trial":1,"action":9,"button_pressed":-1,"time_out":false,"dwell_time":64.1298828125,"response_time":1677866389422.55},{"trial":2,"action":1,"button_pressed":5,"time_out":false,"dwell_time":114.754150390625,"response_time":1677866401318.5},{"trial":2,"action":1,"button_pressed":7,"time_out":false,"dwell_time":64.47802734375,"response_time":1677866402301.23},{"trial":2,"action":1,"button_pressed":1,"time_out":false,"dwell_time":48.4130859375,"response_time":1677866402601.76},{"trial":2,"action":1,"button_pressed":9,"time_out":false,"dwell_time":47.347900390625,"response_time":1677866402901.48},{"trial":2,"action":9,"button_pressed":-1,"time_out":false,"dwell_time":82.425048828125,"response_time":1677866404085.39},{"trial":3,"action":1,"button_pressed":10,"time_out":false,"dwell_time":63.85205078125,"response_time":1677866418445.91},{"trial":3,"action":1,"button_pressed":5,"time_out":false,"dwell_time":64.4677734375,"response_time":1677866418829.22},{"trial":3,"action":1,"button_pressed":3,"time_out":false,"dwell_time":81.051025390625,"response_time":1677866419246.26},{"trial":3,"action":1,"button_pressed":6,"time_out":false,"dwell_time":65.2861328125,"response_time":1677866419596.17},{"trial":3,"action":1,"button_pressed":2,"time_out":false,"dwell_time":63.9560546875,"response_time":1677866419995.59},{"trial":3,"action":9,"button_pressed":-1,"time_out":false,"dwell_time":31.317138671875,"response_time":1677866420446.23},{"trial":4,"action":1,"button_pressed":10,"time_out":false,"dwell_time":64.27197265625,"response_time":1677866437156.98},{"trial":4,"action":1,"button_pressed":5,"time_out":false,"dwell_time":81.052001953125,"response_time":1677866437456.99},{"trial":4,"action":1,"button_pressed":9,"time_out":false,"dwell_time":82.0458984375,"response_time":1677866437807.07},{"trial":4,"action":1,"button_pressed":2,"time_out":false,"dwell_time":47.510986328125,"response_time":1677866439606.03},{"trial":4,"action":1,"button_pressed":11,"time_out":false,"dwell_time":48.16796875,"response_time":1677866440206.43},{"trial":4,"action":1,"button_pressed":0,"time_out":false,"dwell_time":48.89208984375,"response_time":1677866440572.98},{"trial":4,"action":9,"button_pressed":-1,"time_out":false,"dwell_time":48.927978515625,"response_time":1677866441123.06},{"trial":5,"action":1,"button_pressed":2,"time_out":false,"dwell_time":47.694091796875,"response_time":1677866458549.88},{"trial":5,"action":1,"button_pressed":7,"time_out":false,"dwell_time":65.120849609375,"response_time":1677866458983.21},{"trial":5,"action":1,"button_pressed":10,"time_out":false,"dwell_time":81.87109375,"response_time":1677866459333.13},{"trial":5,"action":1,"button_pressed":3,"time_out":false,"dwell_time":64.7041015625,"response_time":1677866459716.57},{"trial":5,"action":1,"button_pressed":9,"time_out":false,"dwell_time":63.989990234375,"response_time":1677866460015.81},{"trial":5,"action":1,"button_pressed":6,"time_out":false,"dwell_time":65.08203125,"response_time":1677866460415.92},{"trial":5,"action":9,"button_pressed":-1,"time_out":false,"dwell_time":65.4169921875,"response_time":1677866461466.1},{"trial":6,"action":1,"button_pressed":0,"time_out":false,"dwell_time":65.44921875,"response_time":1677866474195.12},{"trial":6,"action":1,"button_pressed":11,"time_out":false,"dwell_time":64.64794921875,"response_time":1677866474478.3},{"trial":6,"action":1,"button_pressed":4,"time_out":false,"dwell_time":63.884033203125,"response_time":1677866474777.43},{"trial":6,"action":1,"button_pressed":1,"time_out":false,"dwell_time":81.525146484375,"response_time":1677866475078.26},{"trial":6,"action":9,"button_pressed":-1,"time_out":false,"dwell_time":65.295166015625,"response_time":1677866475627.84},{"trial":7,"action":1,"button_pressed":1,"time_out":false,"dwell_time":64.825927734375,"response_time":1677866488140.66},{"trial":7,"action":1,"button_pressed":5,"time_out":false,"dwell_time":81.94287109375,"response_time":1677866488673.49},{"trial":7,"action":1,"button_pressed":6,"time_out":false,"dwell_time":82.266845703125,"response_time":1677866489156.86},{"trial":7,"action":1,"button_pressed":5,"time_out":false,"dwell_time":65.339111328125,"response_time":1677866489806.56},{"trial":7,"action":1,"button_pressed":6,"time_out":false,"dwell_time":65.27001953125,"response_time":1677866490506.14},{"trial":7,"action":1,"button_pressed":6,"time_out":false,"dwell_time":47.72998046875,"response_time":1677866490839.28},{"trial":7,"action":1,"button_pressed":6,"time_out":false,"dwell_time":47.947021484375,"response_time":1677866491339.18},{"trial":7,"action":0,"button_pressed":-1,"time_out":false,"dwell_time":98.157958984375,"response_time":1677866492672.45},{"trial":7,"action":1,"button_pressed":1,"time_out":false,"dwell_time":81.907958984375,"response_time":1677866493455.3},{"trial":7,"action":1,"button_pressed":6,"time_out":false,"dwell_time":81.85107421875,"response_time":1677866493772.14},{"trial":7,"action":1,"button_pressed":5,"time_out":false,"dwell_time":64.307861328125,"response_time":1677866494354.86},{"trial":7,"action":1,"button_pressed":10,"time_out":false,"dwell_time":65.076904296875,"response_time":1677866494654.63},{"trial":7,"action":9,"button_pressed":-1,"time_out":false,"dwell_time":48.677978515625,"response_time":1677866495088.89},{"trial":8,"action":1,"button_pressed":4,"time_out":false,"dwell_time":67.23583984375,"response_time":1677866509800.08},{"trial":8,"action":1,"button_pressed":11,"time_out":false,"dwell_time":81.98095703125,"response_time":1677866510133.35},{"trial":8,"action":1,"button_pressed":5,"time_out":false,"dwell_time":63.843017578125,"response_time":1677866510532.48},{"trial":8,"action":1,"button_pressed":3,"time_out":false,"dwell_time":82.0400390625,"response_time":1677866510999.52},{"trial":8,"action":1,"button_pressed":9,"time_out":false,"dwell_time":48.14013671875,"response_time":1677866511332.54},{"trial":8,"action":9,"button_pressed":-1,"time_out":false,"dwell_time":81.718017578125,"response_time":1677866511966.32},{"trial":9,"action":1,"button_pressed":0,"time_out":false,"dwell_time":81.580078125,"response_time":1677866528660.71},{"trial":9,"action":1,"button_pressed":4,"time_out":false,"dwell_time":80.6611328125,"response_time":1677866529093.19},{"trial":9,"action":1,"button_pressed":3,"time_out":false,"dwell_time":81.505126953125,"response_time":1677866529393},{"trial":9,"action":1,"button_pressed":5,"time_out":false,"dwell_time":63.869140625,"response_time":1677866530142.63},{"trial":9,"action":1,"button_pressed":7,"time_out":false,"dwell_time":63.901123046875,"response_time":1677866530609.13},{"trial":9,"action":0,"button_pressed":-1,"time_out":false,"dwell_time":81.66796875,"response_time":1677866531759.32},{"trial":9,"action":1,"button_pressed":0,"time_out":false,"dwell_time":64.714111328125,"response_time":1677866532325.48},{"trial":9,"action":1,"button_pressed":4,"time_out":false,"dwell_time":64.52490234375,"response_time":1677866532659.1},{"trial":9,"action":1,"button_pressed":3,"time_out":false,"dwell_time":64.328125,"response_time":1677866532992.18},{"trial":9,"action":1,"button_pressed":11,"time_out":false,"dwell_time":82.07080078125,"response_time":1677866533375.79},{"trial":9,"action":1,"button_pressed":5,"time_out":false,"dwell_time":64.050048828125,"response_time":1677866533858.44},{"trial":9,"action":1,"button_pressed":7,"time_out":false,"dwell_time":81.133056640625,"response_time":1677866534358.61},{"trial":9,"action":9,"button_pressed":-1,"time_out":false,"dwell_time":99.384765625,"response_time":1677866536275.19},{"trial":10,"action":1,"button_pressed":4,"time_out":false,"dwell_time":97.94091796875,"response_time":1677866553285.78},{"trial":10,"action":1,"button_pressed":7,"time_out":false,"dwell_time":98.35009765625,"response_time":1677866553985.19},{"trial":10,"action":0,"button_pressed":-1,"time_out":false,"dwell_time":82.056884765625,"response_time":1677866555168.74},{"trial":10,"action":1,"button_pressed":4,"time_out":false,"dwell_time":81.123046875,"response_time":1677866555917.38},{"trial":10,"action":1,"button_pressed":3,"time_out":false,"dwell_time":98.56005859375,"response_time":1677866556384.57},{"trial":10,"action":1,"button_pressed":7,"time_out":false,"dwell_time":98.6240234375,"response_time":1677866556867.82},{"trial":10,"action":1,"button_pressed":10,"time_out":false,"dwell_time":64.592041015625,"response_time":1677866558350.93},{"trial":10,"action":1,"button_pressed":2,"time_out":false,"dwell_time":64.5869140625,"response_time":1677866558933.77},{"trial":10,"action":1,"button_pressed":0,"time_out":false,"dwell_time":48.0927734375,"response_time":1677866559900.42},{"trial":10,"action":9,"button_pressed":-1,"time_out":false,"dwell_time":65.23681640625,"response_time":1677866560333.26}]}