{"meta_data":{"additional_headers":{},"game_name":"Recollect","version":"2.53.01","user_name":"41","organization":"braingamecenter","study":"mpl2_2022_11","session_number":0,"device_id":"74342D95-EE82-45E3-8ADF-48FB3203C5DD"},"data":[{"stage":"Practice","trial":0,"sequence":"6F","letter_input":"F","number_input":"6","is_correct":true,"presentation_start_time":1677866579225.42,"presentation_end_time":1677866582225.89,"response_time":1677866589192.07},{"stage":"Practice","trial":1,"sequence":"G4","letter_input":"G","number_input":"4","is_correct":true,"presentation_start_time":1677866590721.69,"presentation_end_time":1677866593722.22,"response_time":1677866599102.3},{"stage":"Practice","trial":2,"sequence":"3W5","letter_input":"W","number_input":"35","is_correct":true,"presentation_start_time":1677866600635.02,"presentation_end_time":1677866605135.02,"response_time":1677866610965.08},{"stage":"Practice","trial":3,"sequence":"T7L","letter_input":"LT","number_input":"7","is_correct":true,"presentation_start_time":1677866612497.77,"presentation_end_time":1677866616997.86,"response_time":1677866625726.84},{"stage":"Practice","trial":4,"sequence":"9J1","letter_input":"J","number_input":"19","is_correct":true,"presentation_start_time":1677866627259.57,"presentation_end_time":1677866631759.59,"response_time":1677866637422.98},{"stage":"Calibration","trial":0,"sequence":"3E","letter_input":"E","number_input":"3","is_correct":true,"presentation_start_time":1677866640588.54,"presentation_end_time":1677866643589.02,"response_time":1677866648102.9},{"stage":"Calibration","trial":1,"sequence":"V2","letter_input":"V","number_input":"2","is_correct":true,"presentation_start_time":1677866649635.55,"presentation_end_time":1677866652635.92,"response_time":1677866657116.49},{"stage":"Calibration","trial":2,"sequence":"7G5","letter_input":"G","number_input":"57","is_correct":true,"presentation_start_time":1677866658649.19,"presentation_end_time":1677866663149.2,"response_time":1677866667763.03},{"stage":"Calibration","trial":3,"sequence":"R2E","letter_input":"ER","number_input":"2","is_correct":true,"presentation_start_time":1677866669295.74,"presentation_end_time":1677866673795.66,"response_time":1677866680025.59},{"stage":"Calibration","trial":4,"sequence":"5N1L","letter_input":"LN","number_input":"15","is_correct":true,"presentation_start_time":1677866681558.35,"presentation_end_time":1677866687557.9,"response_time":1677866694504.19},{"stage":"Calibration","trial":5,"sequence":"Y8S3","letter_input":"SY","number_input":"38","is_correct":true,"presentation_start_time":1677866696036.82,"presentation_end_time":1677866702036.39,"response_time":1677866708349.66},{"stage":"Calibration","trial":6,"sequence":"7P1N9","letter_input":"N","number_input":"179","is_correct":false,"presentation_start_time":1677866709882.28,"presentation_end_time":1677866717381.32,"response_time":1677866724960.78},{"stage":"Calibration","trial":7,"sequence":"B8K5D","letter_input":"BDK","number_input":"58","is_correct":true,"presentation_start_time":1677866726493.47,"presentation_end_time":1677866733992.61,"response_time":1677866747636.7},{"stage":"Calibration","trial":8,"sequence":"7P3G1V","letter_input":"GP","number_input":"137","is_correct":false,"presentation_start_time":1677866749169.35,"presentation_end_time":1677866758167.84,"response_time":1677866765947.27},{"stage":"Calibration","trial":9,"sequence":"Y2T8K5","letter_input":"KTY","number_input":"258","is_correct":true,"presentation_start_time":1677866767480.12,"presentation_end_time":1677866776478.54,"response_time":1677866787956.7},{"stage":"Calibration","trial":10,"sequence":"9W4M1C6","letter_input":"JKG","number_input":"146","is_correct":false,"presentation_start_time":1677866789489.38,"presentation_end_time":1677866799987.53,"response_time":1677866812448.6},{"stage":"Calibration","trial":11,"sequence":"V8G5A2J","letter_input":"GV","number_input":"58","is_correct":false,"presentation_start_time":1677866813981.35,"presentation_end_time":1677866824479.4,"response_time":1677866839539.71}]}