{"meta_data":{"additional_headers":{},"game_name":"Recollect","version":"2.53.01","user_name":"42","organization":"braingamecenter","study":"mpl2_2022_11","session_number":0,"device_id":"74342D95-EE82-45E3-8ADF-48FB3203C5DD"},"data":[{"stage":"Practice","trial":0,"sequence":"6F","letter_input":"F","number_input":"6","is_correct":true,"presentation_start_time":1677874023581.78,"presentation_end_time":1677874026582.33,"response_time":1677874031630.94},{"stage":"Practice","trial":1,"sequence":"G4","letter_input":"G","number_input":"4","is_correct":true,"presentation_start_time":1677874033162.02,"presentation_end_time":1677874036162.56,"response_time":1677874040309.81},{"stage":"Practice","trial":2,"sequence":"3W5","letter_input":"W","number_input":"35","is_correct":true,"presentation_start_time":1677874041842.43,"presentation_end_time":1677874046342.58,"response_time":1677874051156.43},{"stage":"Practice","trial":3,"sequence":"T7L","letter_input":"LT","number_input":"7","is_correct":true,"presentation_start_time":1677874052688.88,"presentation_end_time":1677874057188.93,"response_time":1677874062535.84},{"stage":"Practice","trial":4,"sequence":"9J1","letter_input":"J","number_input":"19","is_correct":true,"presentation_start_time":1677874064068.46,"presentation_end_time":1677874068568.45,"response_time":1677874072332.56},{"stage":"Calibration","trial":0,"sequence":"5G","letter_input":"G","number_input":"5","is_correct":true,"presentation_start_time":1677874079363.45,"presentation_end_time":1677874082363.94,"response_time":1677874085978.1},{"stage":"Calibration","trial":1,"sequence":"S8","letter_input":"S","number_input":"8","is_correct":true,"presentation_start_time":1677874087510.73,"presentation_end_time":1677874090511.32,"response_time":1677874093958.78},{"stage":"Calibration","trial":2,"sequence":"9R6","letter_input":"R","number_input":"69","is_correct":true,"presentation_start_time":1677874095491.44,"presentation_end_time":1677874099991.5,"response_time":1677874103205.72},{"stage":"Calibration","trial":3,"sequence":"M1J","letter_input":"JM","number_input":"1","is_correct":true,"presentation_start_time":1677874104738.41,"presentation_end_time":1677874109238.6,"response_time":1677874114485.31},{"stage":"Calibration","trial":4,"sequence":"9T4E","letter_input":"ET","number_input":"49","is_correct":true,"presentation_start_time":1677874116018.04,"presentation_end_time":1677874122017.56,"response_time":1677874126448.02},{"stage":"Calibration","trial":5,"sequence":"L6G2","letter_input":"GL","number_input":"26","is_correct":true,"presentation_start_time":1677874127980.78,"presentation_end_time":1677874133980.22,"response_time":1677874141909.61},{"stage":"Calibration","trial":6,"sequence":"4Y9H7","letter_input":"HY","number_input":"479","is_correct":true,"presentation_start_time":1677874143442.35,"presentation_end_time":1677874150941.36,"response_time":1677874154822.16},{"stage":"Calibration","trial":7,"sequence":"C5R2K","letter_input":"CKR","number_input":"25","is_correct":true,"presentation_start_time":1677874156354.72,"presentation_end_time":1677874163853.8,"response_time":1677874171883.12},{"stage":"Calibration","trial":8,"sequence":"1Y8W6M","letter_input":"MWY","number_input":"186","is_correct":false,"presentation_start_time":1677874173415.81,"presentation_end_time":1677874182414.33,"response_time":1677874200323.65},{"stage":"Calibration","trial":9,"sequence":"E7T4P2","letter_input":"EPT","number_input":"247","is_correct":true,"presentation_start_time":1677874201856.37,"presentation_end_time":1677874210854.97,"response_time":1677874220200.39},{"stage":"Calibration","trial":10,"sequence":"6C3Y1J9","letter_input":"CJY","number_input":"1369","is_correct":true,"presentation_start_time":1677874221733.19,"presentation_end_time":1677874232231.26,"response_time":1677874240277.26},{"stage":"Calibration","trial":11,"sequence":"N4G2Z8R","letter_input":"GNRZ","number_input":"89","is_correct":false,"presentation_start_time":1677874241809.96,"presentation_end_time":1677874252307.97,"response_time":1677874265285.6},{"stage":"Calibration","trial":12,"sequence":"1M5W3J7T","letter_input":"JMW","number_input":"1357","is_correct":false,"presentation_start_time":1677874266818.29,"presentation_end_time":1677874278815.8,"response_time":1677874289711.09},{"stage":"Calibration","trial":13,"sequence":"D2Z8S6B4","letter_input":"BDZ","number_input":"268","is_correct":false,"presentation_start_time":1677874291243.64,"presentation_end_time":1677874303241.21,"response_time":1677874312836.65}]}