{"meta_data":{"additional_headers":{},"game_name":"Recollect","version":"2.53.01","user_name":"43","organization":"braingamecenter","study":"mpl2_2022_11","session_number":0,"device_id":"74342D95-EE82-45E3-8ADF-48FB3203C5DD"},"data":[{"stage":"Practice","trial":0,"sequence":"6F","letter_input":"F","number_input":"6","is_correct":true,"presentation_start_time":1677880931599.88,"presentation_end_time":1677880934600.43,"response_time":1677880941298.41},{"stage":"Practice","trial":1,"sequence":"G4","letter_input":"G","number_input":"4","is_correct":true,"presentation_start_time":1677880942829.46,"presentation_end_time":1677880945829.9,"response_time":1677880950527.07},{"stage":"Practice","trial":2,"sequence":"3W5","letter_input":"W","number_input":"35","is_correct":true,"presentation_start_time":1677880952059.79,"presentation_end_time":1677880956559.74,"response_time":1677880961290.18},{"stage":"Practice","trial":3,"sequence":"T7L","letter_input":"LT","number_input":"7","is_correct":true,"presentation_start_time":1677880962822.86,"presentation_end_time":1677880967323,"response_time":1677880976918.3},{"stage":"Practice","trial":4,"sequence":"9J1","letter_input":"JL","number_input":"19","is_correct":false,"presentation_start_time":1677880978451.04,"presentation_end_time":1677880982951.1,"response_time":1677880990597.11},{"stage":"Calibration","trial":0,"sequence":"V7","letter_input":"V","number_input":"7","is_correct":true,"presentation_start_time":1677880999860.63,"presentation_end_time":1677881002861.13,"response_time":1677881007658.19},{"stage":"Calibration","trial":1,"sequence":"9D","letter_input":"D","number_input":"9","is_correct":true,"presentation_start_time":1677881009190.84,"presentation_end_time":1677881012191.37,"response_time":1677881016055.37},{"stage":"Calibration","trial":2,"sequence":"J5G","letter_input":"GJ","number_input":"5","is_correct":true,"presentation_start_time":1677881017588,"presentation_end_time":1677881022088.16,"response_time":1677881029884.18},{"stage":"Calibration","trial":3,"sequence":"6Q2","letter_input":"Q","number_input":"26","is_correct":true,"presentation_start_time":1677881031416.83,"presentation_end_time":1677881035916.89,"response_time":1677881040147.27},{"stage":"Calibration","trial":4,"sequence":"E9B5","letter_input":"BE","number_input":"59","is_correct":true,"presentation_start_time":1677881041680.08,"presentation_end_time":1677881047679.58,"response_time":1677881054142.74},{"stage":"Calibration","trial":5,"sequence":"4Z2V","letter_input":"ZV","number_input":"24","is_correct":false,"presentation_start_time":1677881055675.35,"presentation_end_time":1677881061674.94,"response_time":1677881071403.64},{"stage":"Calibration","trial":6,"sequence":"B9J3F","letter_input":"BJA","number_input":"39","is_correct":false,"presentation_start_time":1677881072936.36,"presentation_end_time":1677881080435.39,"response_time":1677881092613.32},{"stage":"Calibration","trial":7,"sequence":"7P4L2","letter_input":"QA","number_input":"742","is_correct":false,"presentation_start_time":1677881094146.02,"presentation_end_time":1677881101644.96,"response_time":1677881112140.28}]}