{"meta_data":{"additional_headers":{},"game_name":"Recollect","version":"2.53.01","user_name":"44","organization":"braingamecenter","study":"mpl2_2022_11","session_number":0,"device_id":"74342D95-EE82-45E3-8ADF-48FB3203C5DD"},"data":[{"stage":"Practice","trial":0,"sequence":"6F","letter_input":"F","number_input":"6","is_correct":true,"presentation_start_time":1678123685354.06,"presentation_end_time":1678123688354.68,"response_time":1678123697736.58},{"stage":"Practice","trial":1,"sequence":"G4","letter_input":"G","number_input":"4","is_correct":true,"presentation_start_time":1678123699266.14,"presentation_end_time":1678123702266.68,"response_time":1678123707530.15},{"stage":"Practice","trial":2,"sequence":"3W5","letter_input":"W","number_input":"5","is_correct":false,"presentation_start_time":1678123709062.9,"presentation_end_time":1678123713562.99,"response_time":1678123717160.36},{"stage":"Practice","trial":3,"sequence":"T7L","letter_input":"LT","number_input":"7","is_correct":true,"presentation_start_time":1678123720192.64,"presentation_end_time":1678123724692.74,"response_time":1678123741069.25},{"stage":"Practice","trial":4,"sequence":"9J1","letter_input":"J","number_input":"19","is_correct":true,"presentation_start_time":1678123742602.05,"presentation_end_time":1678123747102.04,"response_time":1678123750999.35},{"stage":"Calibration","trial":0,"sequence":"J3","letter_input":"J","number_input":"3","is_correct":true,"presentation_start_time":1678123757980.39,"presentation_end_time":1678123760980.83,"response_time":1678123764978.16},{"stage":"Calibration","trial":1,"sequence":"6B","letter_input":"B","number_input":"6","is_correct":true,"presentation_start_time":1678123766510.89,"presentation_end_time":1678123769511.42,"response_time":1678123772775.75},{"stage":"Calibration","trial":2,"sequence":"Y8M","letter_input":"MY","number_input":"8","is_correct":true,"presentation_start_time":1678123774308.43,"presentation_end_time":1678123778808.58,"response_time":1678123799866.86},{"stage":"Calibration","trial":3,"sequence":"4K2","letter_input":"K","number_input":"24","is_correct":true,"presentation_start_time":1678123801399.6,"presentation_end_time":1678123805899.54,"response_time":1678123809164.04},{"stage":"Calibration","trial":4,"sequence":"Q5J1","letter_input":"JQ","number_input":"15","is_correct":true,"presentation_start_time":1678123810696.57,"presentation_end_time":1678123816696.1,"response_time":1678123826191.64},{"stage":"Calibration","trial":5,"sequence":"7Z2S","letter_input":"SZ","number_input":"27","is_correct":true,"presentation_start_time":1678123827724.59,"presentation_end_time":1678123833723.96,"response_time":1678123837604.62},{"stage":"Calibration","trial":6,"sequence":"Q6D4T","letter_input":"DQT","number_input":"46","is_correct":true,"presentation_start_time":1678123839137.33,"presentation_end_time":1678123846636.47,"response_time":1678123865728.84},{"stage":"Calibration","trial":7,"sequence":"8M5A1","letter_input":"AM","number_input":"158","is_correct":true,"presentation_start_time":1678123867261.6,"presentation_end_time":1678123874760.83,"response_time":1678123879291.27},{"stage":"Calibration","trial":8,"sequence":"F9B6R3","letter_input":"BFR","number_input":"369","is_correct":true,"presentation_start_time":1678123880823.85,"presentation_end_time":1678123889822.41,"response_time":1678123899501.33},{"stage":"Calibration","trial":9,"sequence":"2C8Z5P","letter_input":"CPZ","number_input":"258","is_correct":true,"presentation_start_time":1678123901033.98,"presentation_end_time":1678123910032.5,"response_time":1678123915845.99},{"stage":"Calibration","trial":10,"sequence":"H6S4N9J","letter_input":"HNSZ","number_input":"469","is_correct":false,"presentation_start_time":1678123917378.67,"presentation_end_time":1678123927876.84,"response_time":1678123949734.88},{"stage":"Calibration","trial":11,"sequence":"8A5L2F9","letter_input":"AFL","number_input":"2589","is_correct":true,"presentation_start_time":1678123951267.7,"presentation_end_time":1678123961765.69,"response_time":1678123973160.58},{"stage":"Calibration","trial":12,"sequence":"Q7V1N6S3","letter_input":"NQSV","number_input":"1367","is_correct":true,"presentation_start_time":1678123974693.38,"presentation_end_time":1678123986690.98,"response_time":1678124025943.51},{"stage":"Calibration","trial":13,"sequence":"9W4F3Y2R","letter_input":"FRWY","number_input":"2349","is_correct":true,"presentation_start_time":1678124027476.27,"presentation_end_time":1678124039473.93,"response_time":1678124080808.98},{"stage":"Calibration","trial":14,"sequence":"G8E5L2B1Z","letter_input":"BEGLZ","number_input":"1258","is_correct":true,"presentation_start_time":1678124082341.87,"presentation_end_time":1678124095838.9,"response_time":1678124104384.73},{"stage":"Calibration","trial":15,"sequence":"7P4W9T5R3","letter_input":"PWZR","number_input":"34579","is_correct":false,"presentation_start_time":1678124105917.46,"presentation_end_time":1678124119414.67,"response_time":1678124134741.51},{"stage":"Calibration","trial":16,"sequence":"G8S1K6V3B7","letter_input":"BGKSV","number_input":"13768","is_correct":false,"presentation_start_time":1678124136274.21,"presentation_end_time":1678124151271.02,"response_time":1678124170946.37},{"stage":"Calibration","trial":17,"sequence":"4A2J9Q6N1D","letter_input":"ADJQN","number_input":"12469","is_correct":false,"presentation_start_time":1678124172479.1,"presentation_end_time":1678124187475.72,"response_time":1678124198337.47}]}