{"meta_data":{"additional_headers":{},"game_name":"Recollect","version":"2.53.01","user_name":"45","organization":"braingamecenter","study":"mpl2_2022_11","session_number":0,"device_id":"74342D95-EE82-45E3-8ADF-48FB3203C5DD"},"data":[{"stage":"Practice","trial":0,"sequence":"6F","letter_input":"F","number_input":"6","is_correct":true,"presentation_start_time":1678212412374.79,"presentation_end_time":1678212415375.38,"response_time":1678212423341.1},{"stage":"Practice","trial":1,"sequence":"G4","letter_input":"G","number_input":"4","is_correct":true,"presentation_start_time":1678212424870.67,"presentation_end_time":1678212427871.28,"response_time":1678212435600.71},{"stage":"Practice","trial":2,"sequence":"3W5","letter_input":"W","number_input":"5","is_correct":false,"presentation_start_time":1678212437133.29,"presentation_end_time":1678212441633.38,"response_time":1678212446480.39},{"stage":"Practice","trial":3,"sequence":"T7L","letter_input":"LT","number_input":"7","is_correct":true,"presentation_start_time":1678212449512.68,"presentation_end_time":1678212454012.79,"response_time":1678212462225.25},{"stage":"Practice","trial":4,"sequence":"9J1","letter_input":"J","number_input":"19","is_correct":true,"presentation_start_time":1678212463757.94,"presentation_end_time":1678212468258.09,"response_time":1678212473438.24},{"stage":"Calibration","trial":0,"sequence":"5N","letter_input":"N","number_input":"5","is_correct":true,"presentation_start_time":1678212487716.87,"presentation_end_time":1678212490717.43,"response_time":1678212495781.02},{"stage":"Calibration","trial":1,"sequence":"J7","letter_input":"J","number_input":"7","is_correct":true,"presentation_start_time":1678212497313.72,"presentation_end_time":1678212500314.28,"response_time":1678212503894.98},{"stage":"Calibration","trial":2,"sequence":"5K3","letter_input":"K","number_input":"35","is_correct":true,"presentation_start_time":1678212505427.8,"presentation_end_time":1678212509927.94,"response_time":1678212514608.14},{"stage":"Calibration","trial":3,"sequence":"V4L","letter_input":"LV","number_input":"4","is_correct":true,"presentation_start_time":1678212516140.86,"presentation_end_time":1678212520641.06,"response_time":1678212525887.87},{"stage":"Calibration","trial":4,"sequence":"9M6D","letter_input":"M","number_input":"69","is_correct":false,"presentation_start_time":1678212527420.54,"presentation_end_time":1678212533420.23,"response_time":1678212543115.52},{"stage":"Calibration","trial":5,"sequence":"Y8R1","letter_input":"RY","number_input":"18","is_correct":true,"presentation_start_time":1678212544648.27,"presentation_end_time":1678212550647.84,"response_time":1678212558493.83},{"stage":"Calibration","trial":6,"sequence":"5P3D9","letter_input":"P","number_input":"359","is_correct":false,"presentation_start_time":1678212560026.61,"presentation_end_time":1678212567525.6,"response_time":1678212576887.87},{"stage":"Calibration","trial":7,"sequence":"N8L1G","letter_input":"GLN","number_input":"18","is_correct":true,"presentation_start_time":1678212578420.59,"presentation_end_time":1678212585919.83,"response_time":1678212602979.33},{"stage":"Calibration","trial":8,"sequence":"3M9F6W","letter_input":"M","number_input":"369","is_correct":false,"presentation_start_time":1678212604511.99,"presentation_end_time":1678212613510.76,"response_time":1678212624322.37},{"stage":"Calibration","trial":9,"sequence":"D2S7H5","letter_input":"D","number_input":"257","is_correct":false,"presentation_start_time":1678212625855.12,"presentation_end_time":1678212634853.79,"response_time":1678212642316.42}]}