{"meta_data":{"additional_headers":{},"game_name":"Recollect","version":"2.53.01","user_name":"46","organization":"braingamecenter","study":"mpl2_2022_11","session_number":0,"device_id":"74342D95-EE82-45E3-8ADF-48FB3203C5DD"},"data":[{"trial":0,"action":1,"button_pressed":4,"time_out":false,"dwell_time":48.48291015625,"response_time":1678220851220.72},{"trial":0,"action":1,"button_pressed":11,"time_out":false,"dwell_time":48.619873046875,"response_time":1678220851353.93},{"trial":0,"action":9,"button_pressed":-1,"time_out":false,"dwell_time":59.677978515625,"response_time":1678220851765.13},{"trial":1,"action":1,"button_pressed":0,"time_out":false,"dwell_time":64.613037109375,"response_time":1678220861100.33},{"trial":1,"action":1,"button_pressed":10,"time_out":false,"dwell_time":64.15087890625,"response_time":1678220861316.85},{"trial":1,"action":1,"button_pressed":11,"time_out":false,"dwell_time":30.660888671875,"response_time":1678220861533.83},{"trial":1,"action":9,"button_pressed":-1,"time_out":false,"dwell_time":47.946044921875,"response_time":1678220861934.21},{"trial":2,"action":1,"button_pressed":8,"time_out":false,"dwell_time":63.721923828125,"response_time":1678220873612.94},{"trial":2,"action":1,"button_pressed":1,"time_out":false,"dwell_time":80.27294921875,"response_time":1678220873862.78},{"trial":2,"action":1,"button_pressed":3,"time_out":false,"dwell_time":48.173095703125,"response_time":1678220874562.83},{"trial":2,"action":1,"button_pressed":11,"time_out":false,"dwell_time":31.220947265625,"response_time":1678220874812.99},{"trial":2,"action":9,"button_pressed":-1,"time_out":false,"dwell_time":49.39892578125,"response_time":1678220875230.56},{"trial":3,"action":1,"button_pressed":0,"time_out":false,"dwell_time":65.19287109375,"response_time":1678220889575.05},{"trial":3,"action":1,"button_pressed":7,"time_out":false,"dwell_time":47.306884765625,"response_time":1678220889758.09},{"trial":3,"action":1,"button_pressed":10,"time_out":false,"dwell_time":64.35107421875,"response_time":1678220890007.54},{"trial":3,"action":1,"button_pressed":4,"time_out":false,"dwell_time":64.973876953125,"response_time":1678220890291.49},{"trial":3,"action":1,"button_pressed":1,"time_out":false,"dwell_time":14.2509765625,"response_time":1678220890574.61},{"trial":3,"action":9,"button_pressed":-1,"time_out":false,"dwell_time":48.885009765625,"response_time":1678220891475.59},{"trial":4,"action":1,"button_pressed":8,"time_out":false,"dwell_time":80.31298828125,"response_time":1678220908201.84},{"trial":4,"action":1,"button_pressed":0,"time_out":false,"dwell_time":48.23681640625,"response_time":1678220908718.52},{"trial":4,"action":1,"button_pressed":1,"time_out":false,"dwell_time":81.197021484375,"response_time":1678220909034.88},{"trial":4,"action":1,"button_pressed":9,"time_out":false,"dwell_time":48.539794921875,"response_time":1678220909352.35},{"trial":4,"action":1,"button_pressed":3,"time_out":false,"dwell_time":47.421875,"response_time":1678220909718.27},{"trial":4,"action":1,"button_pressed":5,"time_out":false,"dwell_time":49.048095703125,"response_time":1678220910085.49},{"trial":4,"action":9,"button_pressed":-1,"time_out":false,"dwell_time":48.589111328125,"response_time":1678220910751.7},{"trial":5,"action":1,"button_pressed":6,"time_out":false,"dwell_time":80.926025390625,"response_time":1678220930111.31},{"trial":5,"action":1,"button_pressed":4,"time_out":false,"dwell_time":81.7919921875,"response_time":1678220930378.55},{"trial":5,"action":1,"button_pressed":10,"time_out":false,"dwell_time":64.137939453125,"response_time":1678220930578.43},{"trial":5,"action":1,"button_pressed":11,"time_out":false,"dwell_time":81.382080078125,"response_time":1678220930828.42},{"trial":5,"action":1,"button_pressed":3,"time_out":false,"dwell_time":47.491943359375,"response_time":1678220939158.77},{"trial":5,"action":1,"button_pressed":8,"time_out":false,"dwell_time":47.291015625,"response_time":1678220939541.95},{"trial":5,"action":1,"button_pressed":9,"time_out":false,"dwell_time":48.4970703125,"response_time":1678220939975.75},{"trial":5,"action":1,"button_pressed":0,"time_out":false,"dwell_time":65.072021484375,"response_time":1678220940391.84},{"trial":5,"action":9,"button_pressed":-1,"time_out":false,"dwell_time":48.5,"response_time":1678220940859.43},{"trial":6,"action":1,"button_pressed":8,"time_out":false,"dwell_time":30.76806640625,"response_time":1678220964184.08},{"trial":6,"action":1,"button_pressed":1,"time_out":false,"dwell_time":47.343994140625,"response_time":1678220964717.11},{"trial":6,"action":1,"button_pressed":6,"time_out":false,"dwell_time":47.239013671875,"response_time":1678220964983.61},{"trial":6,"action":1,"button_pressed":0,"time_out":false,"dwell_time":48.044921875,"response_time":1678220965350.94},{"trial":6,"action":1,"button_pressed":7,"time_out":false,"dwell_time":64.22705078125,"response_time":1678220969682.46},{"trial":6,"action":1,"button_pressed":11,"time_out":false,"dwell_time":64.63720703125,"response_time":1678220970248.98},{"trial":6,"action":1,"button_pressed":4,"time_out":false,"dwell_time":64.153076171875,"response_time":1678220970598.16},{"trial":6,"action":1,"button_pressed":4,"time_out":false,"dwell_time":30.8271484375,"response_time":1678220971614.93},{"trial":6,"action":1,"button_pressed":3,"time_out":false,"dwell_time":64.430908203125,"response_time":1678220972131.07},{"trial":6,"action":9,"button_pressed":-1,"time_out":false,"dwell_time":48.565185546875,"response_time":1678220972815.11},{"trial":7,"action":1,"button_pressed":10,"time_out":false,"dwell_time":64.866943359375,"response_time":1678220987426.8},{"trial":7,"action":1,"button_pressed":4,"time_out":false,"dwell_time":48.22216796875,"response_time":1678220987677.23},{"trial":7,"action":1,"button_pressed":1,"time_out":false,"dwell_time":64.929931640625,"response_time":1678220987893.17},{"trial":7,"action":1,"button_pressed":5,"time_out":false,"dwell_time":30.907958984375,"response_time":1678220988076.35},{"trial":7,"action":1,"button_pressed":3,"time_out":false,"dwell_time":48.10986328125,"response_time":1678220988259.43},{"trial":7,"action":9,"button_pressed":-1,"time_out":false,"dwell_time":48.64404296875,"response_time":1678220988627.38},{"trial":8,"action":1,"button_pressed":9,"time_out":false,"dwell_time":47.303955078125,"response_time":1678221003288.14},{"trial":8,"action":1,"button_pressed":0,"time_out":false,"dwell_time":47.488037109375,"response_time":1678221003621.26},{"trial":8,"action":1,"button_pressed":2,"time_out":false,"dwell_time":48.302978515625,"response_time":1678221003905.31},{"trial":8,"action":1,"button_pressed":1,"time_out":false,"dwell_time":49.028076171875,"response_time":1678221004305.11},{"trial":8,"action":1,"button_pressed":6,"time_out":false,"dwell_time":64.5791015625,"response_time":1678221004587.56},{"trial":8,"action":9,"button_pressed":-1,"time_out":false,"dwell_time":81.60498046875,"response_time":1678221007653.31},{"trial":9,"action":1,"button_pressed":9,"time_out":false,"dwell_time":47.864013671875,"response_time":1678221024548.58},{"trial":9,"action":1,"button_pressed":1,"time_out":false,"dwell_time":64.39013671875,"response_time":1678221024931.31},{"trial":9,"action":1,"button_pressed":2,"time_out":false,"dwell_time":63.69091796875,"response_time":1678221025330.48},{"trial":9,"action":1,"button_pressed":8,"time_out":false,"dwell_time":47.47900390625,"response_time":1678221025647.56},{"trial":9,"action":1,"button_pressed":6,"time_out":false,"dwell_time":47.987060546875,"response_time":1678221026047.98},{"trial":9,"action":1,"button_pressed":11,"time_out":false,"dwell_time":64.994873046875,"response_time":1678221026330.78},{"trial":9,"action":9,"button_pressed":-1,"time_out":false,"dwell_time":98.965087890625,"response_time":1678221026764.62},{"trial":10,"action":1,"button_pressed":10,"time_out":false,"dwell_time":47.135009765625,"response_time":1678221046190.81},{"trial":10,"action":1,"button_pressed":1,"time_out":false,"dwell_time":65.029052734375,"response_time":1678221046624.19},{"trial":10,"action":1,"button_pressed":2,"time_out":false,"dwell_time":65.056884765625,"response_time":1678221047040.71},{"trial":10,"action":1,"button_pressed":6,"time_out":false,"dwell_time":63.991943359375,"response_time":1678221047423.92},{"trial":10,"action":1,"button_pressed":7,"time_out":false,"dwell_time":47.391845703125,"response_time":1678221047707.1},{"trial":10,"action":1,"button_pressed":3,"time_out":false,"dwell_time":48.322998046875,"response_time":1678221047990.27},{"trial":10,"action":1,"button_pressed":4,"time_out":false,"dwell_time":30.98095703125,"response_time":1678221048206.97},{"trial":10,"action":9,"button_pressed":-1,"time_out":false,"dwell_time":16.757080078125,"response_time":1678221048606.5},{"trial":11,"action":1,"button_pressed":9,"time_out":false,"dwell_time":80.593017578125,"response_time":1678221068083.62},{"trial":11,"action":1,"button_pressed":3,"time_out":false,"dwell_time":64.751953125,"response_time":1678221068383.58},{"trial":11,"action":1,"button_pressed":7,"time_out":false,"dwell_time":80.93798828125,"response_time":1678221068650.47},{"trial":11,"action":1,"button_pressed":1,"time_out":false,"dwell_time":47.007080078125,"response_time":1678221069000.07},{"trial":11,"action":1,"button_pressed":6,"time_out":false,"dwell_time":64.487060546875,"response_time":1678221069316.77},{"trial":11,"action":1,"button_pressed":11,"time_out":false,"dwell_time":31.7529296875,"response_time":1678221069550.19},{"trial":11,"action":1,"button_pressed":8,"time_out":false,"dwell_time":64.18896484375,"response_time":1678221069882.7},{"trial":11,"action":9,"button_pressed":-1,"time_out":false,"dwell_time":48.678955078125,"response_time":1678221070766.64}]}