{"meta_data":{"additional_headers":{},"game_name":"Recollect","version":"2.53.01","user_name":"47","organization":"braingamecenter","study":"mpl2_2022_11","session_number":0,"device_id":"74342D95-EE82-45E3-8ADF-48FB3203C5DD"},"data":[{"stage":"Practice","trial":0,"sequence":"6F","letter_input":"F","number_input":"6","is_correct":true,"presentation_start_time":1678300362650.49,"presentation_end_time":1678300365651.22,"response_time":1678300372333.85},{"stage":"Practice","trial":1,"sequence":"G4","letter_input":"G","number_input":"4","is_correct":true,"presentation_start_time":1678300373863.53,"presentation_end_time":1678300376864.1,"response_time":1678300381494.52},{"stage":"Practice","trial":2,"sequence":"3W5","letter_input":"W","number_input":"35","is_correct":true,"presentation_start_time":1678300383027.24,"presentation_end_time":1678300387527.26,"response_time":1678300393190.61},{"stage":"Practice","trial":3,"sequence":"T7L","letter_input":"TL","number_input":"7","is_correct":false,"presentation_start_time":1678300394723.34,"presentation_end_time":1678300399223.58,"response_time":1678300409068.76},{"stage":"Practice","trial":4,"sequence":"9J1","letter_input":"J","number_input":"19","is_correct":true,"presentation_start_time":1678300412100.97,"presentation_end_time":1678300416601.19,"response_time":1678300422281.08},{"stage":"Calibration","trial":0,"sequence":"S6","letter_input":"S","number_input":"6","is_correct":true,"presentation_start_time":1678300426246.35,"presentation_end_time":1678300429246.97,"response_time":1678300433410.77},{"stage":"Calibration","trial":1,"sequence":"3H","letter_input":"H","number_input":"3","is_correct":true,"presentation_start_time":1678300434943.51,"presentation_end_time":1678300437944.05,"response_time":1678300441458.13},{"stage":"Calibration","trial":2,"sequence":"R5N","letter_input":"NR","number_input":"5","is_correct":true,"presentation_start_time":1678300442990.79,"presentation_end_time":1678300447491,"response_time":1678300453037.72},{"stage":"Calibration","trial":3,"sequence":"9F4","letter_input":"F","number_input":"49","is_correct":true,"presentation_start_time":1678300454570.36,"presentation_end_time":1678300459070.48,"response_time":1678300463400.98},{"stage":"Calibration","trial":4,"sequence":"Z8Q6","letter_input":"ZH","number_input":"68","is_correct":false,"presentation_start_time":1678300464933.54,"presentation_end_time":1678300470933.28,"response_time":1678300482044.76},{"stage":"Calibration","trial":5,"sequence":"9S7A","letter_input":"AS","number_input":"79","is_correct":true,"presentation_start_time":1678300483577.48,"presentation_end_time":1678300489577.12,"response_time":1678300493357.77},{"stage":"Calibration","trial":6,"sequence":"N8Z3W","letter_input":"WZ","number_input":"38","is_correct":false,"presentation_start_time":1678300494890.51,"presentation_end_time":1678300502389.67,"response_time":1678300507386.51},{"stage":"Calibration","trial":7,"sequence":"4J9A6","letter_input":"AJ","number_input":"469","is_correct":true,"presentation_start_time":1678300508919.12,"presentation_end_time":1678300516418.33,"response_time":1678300520748.71},{"stage":"Calibration","trial":8,"sequence":"M2G8W5","letter_input":"GH","number_input":"258","is_correct":false,"presentation_start_time":1678300522282.18,"presentation_end_time":1678300531280.07,"response_time":1678300539942.52},{"stage":"Calibration","trial":9,"sequence":"6Z4V1Q","letter_input":"GVZ","number_input":"146","is_correct":false,"presentation_start_time":1678300541475.13,"presentation_end_time":1678300550473.82,"response_time":1678300558319.75}]}