Audio_Only_Files,Video_Files,Original_Word_List,noiseLevelCode,conditionCodes,noiseLevelFile1,noiseLevelFile2,InstrTextVar,targetSpeakerName,targetSpeakerEccen,targetSpkrChannel,targetSpkrSound,targetVisualDegrees,visStimLoc,visStimLoc2,visStimW,visStimH,practiceTrials.thisRepN,practiceTrials.thisTrialN,practiceTrials.thisN,practiceTrials.thisIndex,trials.thisRepN,trials.thisTrialN,trials.thisN,trials.thisIndex,audLocalLoop.thisRepN,audLocalLoop.thisTrialN,audLocalLoop.thisN,audLocalLoop.thisIndex,visualLocalLoop.thisRepN,visualLocalLoop.thisTrialN,visualLocalLoop.thisN,visualLocalLoop.thisIndex,letsGoAlready.keys,letsGoAlready.rt,letsGoAlready.started,letsGoAlready.stopped,text_2.started,text_2.stopped,text_3.started,text_3.stopped,key_resp_2.keys,key_resp_2.rt,key_resp_2.started,key_resp_2.stopped,text_5.started,text_5.stopped,fixCross.started,fixCross.stopped,fixCross2.started,fixCross2.stopped,answerPrompt.started,answerPrompt.stopped,getAnswer.text,getAnswer.started,getAnswer.stopped,goToNext.keys,goToNext.rt,goToNext.started,goToNext.stopped,stretchBreakTxrt.started,stretchBreakTxrt.stopped,key_resp_3.keys,key_resp_3.rt,key_resp_3.started,key_resp_3.stopped,letsGoLocal.keys,letsGoLocal.rt,letsGoLocal.started,letsGoLocal.stopped,text_4.started,text_4.stopped,prepFixTxt.started,prepFixTxt.stopped,prepFixTxt_2.started,prepFixTxt_2.stopped,respPromptLocal.started,respPromptLocal.stopped,slider.response,slider.rt,slider.started,slider.stopped,letsGoLocal_2.keys,letsGoLocal_2.rt,letsGoLocal_2.started,letsGoLocal_2.stopped,text_7.started,text_7.stopped,prepFixTxt_3.started,prepFixTxt_3.stopped,grating.started,grating.stopped,participant,session,date,expName,psychopyVersion,frameRate,
,,,,,,,,,,,,,,,,,,,,,,,,,,,,,,,,,space,56.85255171498284,16.505584166850895,None,,,,,,,,,,,,,,,,,,,,,,,,,,,,,,,,,,,,,,,,,,,,,,,,,,,,,,,,47,001,2023_Mar_08_1129,SpeechDraft1Carolyn_lessNoise_PlusLocalization,2021.2.3,59.905239399415535,
,,,,,,,,,,,,,,,,,,,,,,,,,,,,,,,,,,,,,16.505584166850895,None,73.48874776088633,None,space,1.886123256990686,73.67207112000324,None,,,,,,,,,,,,,,,,,,,,,,,,,,,,,,,,,,,,,,,,,,,,,,,,47,001,2023_Mar_08_1129,SpeechDraft1Carolyn_lessNoise_PlusLocalization,2021.2.3,59.905239399415535,
ash.wav,ash.mpg,ash,1,A,Pink_Noise_1_1.wav,Pink_Noise_1_2.wav,"This is an example of an

AUDIO trial",,,,,,,,,,0,0,0,0,,,,,,,,,,,,,,,,,,,,,,,,,75.62161843897775,None,76.60540784988552,None,79.92165301181376,None,81.30554687581025,None,"ash
",81.30554687581025,None,return,2.7853833578992635,81.38870641286485,None,,,,,,,,,,,,,,,,,,,,,,,,,,,,,,,,,47,001,2023_Mar_08_1129,SpeechDraft1Carolyn_lessNoise_PlusLocalization,2021.2.3,59.905239399415535,
ash.wav,ash.mpg,ash,1,AV,Pink_Noise_1_1.wav,Pink_Noise_1_2.wav,"This is an example of an

AUDIO + VIDEO  trial",,,,,,,,,,0,1,1,1,,,,,,,,,,,,,,,,,,,,,,,,,84.2382121658884,None,85.23845955380239,None,86.72227709600702,None,88.10514241084456,None,ash,88.10514241084456,None,return,1.8896860650274903,88.18858683900908,None,,,,,,,,,,,,,,,,,,,,,,,,,,,,,,,,,47,001,2023_Mar_08_1129,SpeechDraft1Carolyn_lessNoise_PlusLocalization,2021.2.3,59.905239399415535,
,,,,,,,,,,,,,,,,,,,,,,,,,,,,,,,,,,,,,,,,,,,,,,,,,,,,,,,,,,,,90.12168163596652,None,space,15.22882070299238,90.30526469601318,None,,,,,,,,,,,,,,,,,,,,,,,,,,,47,001,2023_Mar_08_1129,SpeechDraft1Carolyn_lessNoise_PlusLocalization,2021.2.3,59.905239399415535,
die.wav,die.mpg,die,2,A,Pink_Noise_2_1.wav,Pink_Noise_2_2.wav,,,,,,,,,,,,,,,0,0,0,37,,,,,,,,,,,,,,,,,,,,,,,105.58827310497873,None,107.07176408590749,None,108.45559932594188,None,dark,108.45559932594188,None,return,2.7395548089407384,108.53865385288373,None,,,,,,,,,,,,,,,,,,,,,,,,,,,,,,,,,47,001,2023_Mar_08_1129,SpeechDraft1Carolyn_lessNoise_PlusLocalization,2021.2.3,59.905239399415535,
den.wav,den.mpg,den,1,A,Pink_Noise_1_1.wav,Pink_Noise_1_2.wav,,,,,,,,,,,,,,,0,1,1,51,,,,,,,,,,,,,,,,,,,,,,,111.30535408481956,None,112.80535975587554,None,114.18864245899022,None,day,114.18864245899022,None,return,1.037938785040751,114.27215680782683,None,,,,,,,,,,,,,,,,,,,,,,,,,,,,,,,,,47,001,2023_Mar_08_1129,SpeechDraft1Carolyn_lessNoise_PlusLocalization,2021.2.3,59.905239399415535,
crypt.wav,crypt.mpg,crypt,1,A,Pink_Noise_1_1.wav,Pink_Noise_1_2.wav,,,,,,,,,,,,,,,0,2,2,23,,,,,,,,,,,,,,,,,,,,,,,115.33867484983057,None,116.8383644039277,None,118.22227446897887,None,cript,118.22227446897887,None,return,2.2048527628649026,118.30526653397828,None,,,,,,,,,,,,,,,,,,,,,,,,,,,,,,,,,47,001,2023_Mar_08_1129,SpeechDraft1Carolyn_lessNoise_PlusLocalization,2021.2.3,59.905239399415535,
curb.wav,curb.mpg,curb,2,A,Pink_Noise_2_1.wav,Pink_Noise_2_2.wav,,,,,,,,,,,,,,,0,3,3,29,,,,,,,,,,,,,,,,,,,,,,,120.53861871990375,None,122.03841226990335,None,123.42213984881528,None,curve,123.42213984881528,None,return,1.1406793799251318,123.50544504984282,None,,,,,,,,,,,,,,,,,,,,,,,,,,,,,,,,,47,001,2023_Mar_08_1129,SpeechDraft1Carolyn_lessNoise_PlusLocalization,2021.2.3,59.905239399415535,
bride.wav,bride.mpg,bride,1,AV,Pink_Noise_1_1.wav,Pink_Noise_1_2.wav,,,,,,,,,,,,,,,0,4,4,88,,,,,,,,,,,,,,,,,,,,,,,124.6721639719326,None,126.17205708497204,None,127.55545132397674,None,bride,127.55545132397674,None,return,1.1274028720799834,127.63866713480093,None,,,,,,,,,,,,,,,,,,,,,,,,,,,,,,,,,47,001,2023_Mar_08_1129,SpeechDraft1Carolyn_lessNoise_PlusLocalization,2021.2.3,59.905239399415535,
fox.wav,fox.mpg,fox,5,AV,Pink_Noise_5_1.wav,Pink_Noise_5_2.wav,,,,,,,,,,,,,,,0,5,5,116,,,,,,,,,,,,,,,,,,,,,,,128.78884851397015,None,130.28843585401773,None,131.6718501308933,None,fast,131.6718501308933,None,return,1.0826185329351574,131.7555697199423,None,,,,,,,,,,,,,,,,,,,,,,,,,,,,,,,,,47,001,2023_Mar_08_1129,SpeechDraft1Carolyn_lessNoise_PlusLocalization,2021.2.3,59.905239399415535,
bleak.wav,bleak.mpg,bleak,6,AV,Pink_Noise_6_1.wav,Pink_Noise_6_2.wav,,,,,,,,,,,,,,,0,6,6,103,,,,,,,,,,,,,,,,,,,,,,,132.85550854494795,None,134.35509021393955,None,135.7387190849986,None,bee,135.7387190849986,None,return,2.8960660670418292,135.82201619981788,None,,,,,,,,,,,,,,,,,,,,,,,,,,,,,,,,,47,001,2023_Mar_08_1129,SpeechDraft1Carolyn_lessNoise_PlusLocalization,2021.2.3,59.905239399415535,
crook.wav,crook.mpg,crook,1,A,Pink_Noise_1_1.wav,Pink_Noise_1_2.wav,,,,,,,,,,,,,,,0,7,7,40,,,,,,,,,,,,,,,,,,,,,,,138.73862562980503,None,140.23830310883932,None,141.62218326795846,None,crook,141.62218326795846,None,return,0.9566990579478443,141.70543907000683,None,,,,,,,,,,,,,,,,,,,,,,,,,,,,,,,,,47,001,2023_Mar_08_1129,SpeechDraft1Carolyn_lessNoise_PlusLocalization,2021.2.3,59.905239399415535,
unit.wav,unit.mpg,unit,5,AV,Pink_Noise_5_1.wav,Pink_Noise_5_2.wav,,,,,,,,,,,,,,,0,8,8,107,,,,,,,,,,,,,,,,,,,,,,,142.6887631949503,None,144.1883405209519,None,145.57194076594897,None,newt,145.57194076594897,None,return,1.2705797019880265,145.65550645790063,None,,,,,,,,,,,,,,,,,,,,,,,,,,,,,,,,,47,001,2023_Mar_08_1129,SpeechDraft1Carolyn_lessNoise_PlusLocalization,2021.2.3,59.905239399415535,
bake.wav,bake.mpg,bake,3,A,Pink_Noise_3_1.wav,Pink_Noise_3_2.wav,,,,,,,,,,,,,,,0,9,9,14,,,,,,,,,,,,,,,,,,,,,,,146.95547473896295,None,148.45517536182888,None,149.83884025295265,None,bake,149.83884025295265,None,return,7.139767932007089,149.92236798582599,None,,,,,,,,,,,,,,,,,,,,,,,,,,,,,,,,,47,001,2023_Mar_08_1129,SpeechDraft1Carolyn_lessNoise_PlusLocalization,2021.2.3,59.905239399415535,
fan.wav,fan.mpg,fan,4,A,Pink_Noise_4_1.wav,Pink_Noise_4_2.wav,,,,,,,,,,,,,,,0,10,10,45,,,,,,,,,,,,,,,,,,,,,,,157.0890006488189,None,158.58835513098165,None,159.9719638689421,None,"fan
",159.9719638689421,None,return,1.1506019930820912,160.05547962291166,None,,,,,,,,,,,,,,,,,,,,,,,,,,,,,,,,,47,001,2023_Mar_08_1129,SpeechDraft1Carolyn_lessNoise_PlusLocalization,2021.2.3,59.905239399415535,
guide.wav,guide.mpg,guide,2,A,Pink_Noise_2_1.wav,Pink_Noise_2_2.wav,,,,,,,,,,,,,,,0,11,11,32,,,,,,,,,,,,,,,,,,,,,,,161.23859060998075,None,162.7382829489652,None,164.13875620788895,None,guide,164.13875620788895,None,return,3.647764705121517,164.22231551189907,None,,,,,,,,,,,,,,,,,,,,,,,,,,,,,,,,,47,001,2023_Mar_08_1129,SpeechDraft1Carolyn_lessNoise_PlusLocalization,2021.2.3,59.905239399415535,
rid.wav,rid.mpg,rid,2,AV,Pink_Noise_2_1.wav,Pink_Noise_2_2.wav,,,,,,,,,,,,,,,0,12,12,82,,,,,,,,,,,,,,,,,,,,,,,167.88866197597235,None,169.38876891182736,None,170.77206984185614,None,rid,170.77206984185614,None,return,1.4228542288765311,170.85534174391069,None,,,,,,,,,,,,,,,,,,,,,,,,,,,,,,,,,47,001,2023_Mar_08_1129,SpeechDraft1Carolyn_lessNoise_PlusLocalization,2021.2.3,59.905239399415535,
dump.wav,dump.mpg,dump,5,AV,Pink_Noise_5_1.wav,Pink_Noise_5_2.wav,,,,,,,,,,,,,,,0,13,13,83,,,,,,,,,,,,,,,,,,,,,,,172.30566388182342,None,173.8052317139227,None,175.1898901129607,None,"dump
",175.1898901129607,None,return,1.5179112881887704,175.27216346981004,None,,,,,,,,,,,,,,,,,,,,,,,,,,,,,,,,,47,001,2023_Mar_08_1129,SpeechDraft1Carolyn_lessNoise_PlusLocalization,2021.2.3,59.905239399415535,
cape.wav,cape.mpg,cape,1,A,Pink_Noise_1_1.wav,Pink_Noise_1_2.wav,,,,,,,,,,,,,,,0,14,14,54,,,,,,,,,,,,,,,,,,,,,,,176.82203845889308,None,178.32215479784645,None,179.7053133849986,None,ca[e,179.7053133849986,None,return,1.0333638871088624,179.78872084780596,None,,,,,,,,,,,,,,,,,,,,,,,,,,,,,,,,,47,001,2023_Mar_08_1129,SpeechDraft1Carolyn_lessNoise_PlusLocalization,2021.2.3,59.905239399415535,
flea.wav,flea.mpg,flea,6,AV,Pink_Noise_6_1.wav,Pink_Noise_6_2.wav,,,,,,,,,,,,,,,0,15,15,84,,,,,,,,,,,,,,,,,,,,,,,180.8387315098662,None,182.33838686579838,None,183.72188824694604,None,fleee,183.72188824694604,None,return,2.192505991086364,183.80556867294945,None,,,,,,,,,,,,,,,,,,,,,,,,,,,,,,,,,47,001,2023_Mar_08_1129,SpeechDraft1Carolyn_lessNoise_PlusLocalization,2021.2.3,59.905239399415535,
coat.wav,coat.mpg,coat,4,AV,Pink_Noise_4_1.wav,Pink_Noise_4_2.wav,,,,,,,,,,,,,,,0,16,16,77,,,,,,,,,,,,,,,,,,,,,,,186.02221914101392,None,187.52177292993292,None,188.90570606384426,None,coat,188.90570606384426,None,return,5.809376691002399,188.9886940009892,None,,,,,,,,,,,,,,,,,,,,,,,,,,,,,,,,,47,001,2023_Mar_08_1129,SpeechDraft1Carolyn_lessNoise_PlusLocalization,2021.2.3,59.905239399415535,
beat.wav,beat.mpg,beat,1,AV,Pink_Noise_1_1.wav,Pink_Noise_1_2.wav,,,,,,,,,,,,,,,0,17,17,114,,,,,,,,,,,,,,,,,,,,,,,194.82215842581354,None,196.32178461086005,None,197.70543788583018,None,"beay
",197.70543788583018,None,return,1.0015046130865812,197.78858611593023,None,,,,,,,,,,,,,,,,,,,,,,,,,,,,,,,,,47,001,2023_Mar_08_1129,SpeechDraft1Carolyn_lessNoise_PlusLocalization,2021.2.3,59.905239399415535,
blend.wav,blend.mpg,blend,4,A,Pink_Noise_4_1.wav,Pink_Noise_4_2.wav,,,,,,,,,,,,,,,0,18,18,49,,,,,,,,,,,,,,,,,,,,,,,198.82253295788541,None,200.32183511485346,None,201.70530830183998,None,rain,201.70530830183998,None,return,3.0573682540562004,201.78881084988825,None,,,,,,,,,,,,,,,,,,,,,,,,,,,,,,,,,47,001,2023_Mar_08_1129,SpeechDraft1Carolyn_lessNoise_PlusLocalization,2021.2.3,59.905239399415535,
doom.wav,doom.mpg,doom,4,AV,Pink_Noise_4_1.wav,Pink_Noise_4_2.wav,,,,,,,,,,,,,,,0,19,19,65,,,,,,,,,,,,,,,,,,,,,,,204.87224498088472,None,206.37185269990005,None,207.75547998095863,None,"doom
",207.75547998095863,None,return,3.2393237110227346,207.8387704899069,None,,,,,,,,,,,,,,,,,,,,,,,,,,,,,,,,,47,001,2023_Mar_08_1129,SpeechDraft1Carolyn_lessNoise_PlusLocalization,2021.2.3,59.905239399415535,
bone.wav,bone.mpg,bone,3,A,Pink_Noise_3_1.wav,Pink_Noise_3_2.wav,,,,,,,,,,,,,,,0,20,20,16,,,,,,,,,,,,,,,,,,,,,,,211.1224789880216,None,212.62193777784705,None,214.0056574039627,None,"bone
",214.0056574039627,None,return,1.501263365149498,214.08881387882866,None,,,,,,,,,,,,,,,,,,,,,,,,,,,,,,,,,47,001,2023_Mar_08_1129,SpeechDraft1Carolyn_lessNoise_PlusLocalization,2021.2.3,59.905239399415535,
crop.wav,crop.mpg,crop,3,AV,Pink_Noise_3_1.wav,Pink_Noise_3_2.wav,,,,,,,,,,,,,,,0,21,21,94,,,,,,,,,,,,,,,,,,,,,,,215.62202326301485,None,217.12188444682397,None,218.50546117289923,None,"crop
",218.50546117289923,None,return,1.7532120139803737,218.5888755938504,None,,,,,,,,,,,,,,,,,,,,,,,,,,,,,,,,,47,001,2023_Mar_08_1129,SpeechDraft1Carolyn_lessNoise_PlusLocalization,2021.2.3,59.905239399415535,
gate.wav,gate.mpg,gate,1,AV,Pink_Noise_1_1.wav,Pink_Noise_1_2.wav,,,,,,,,,,,,,,,0,22,22,67,,,,,,,,,,,,,,,,,,,,,,,220.37225769180804,None,221.87181348493323,None,223.2555291999597,None,gate,223.2555291999597,None,return,3.9793329420499504,223.33877375000156,None,,,,,,,,,,,,,,,,,,,,,,,,,,,,,,,,,47,001,2023_Mar_08_1129,SpeechDraft1Carolyn_lessNoise_PlusLocalization,2021.2.3,59.905239399415535,
fast.wav,fast.mpg,fast,5,AV,Pink_Noise_5_1.wav,Pink_Noise_5_2.wav,,,,,,,,,,,,,,,0,23,23,87,,,,,,,,,,,,,,,,,,,,,,,227.33877265593037,None,228.83859821991064,None,230.22248922195286,None,fast,230.22248922195286,None,return,2.228639463894069,230.3054480839055,None,,,,,,,,,,,,,,,,,,,,,,,,,,,,,,,,,47,001,2023_Mar_08_1129,SpeechDraft1Carolyn_lessNoise_PlusLocalization,2021.2.3,59.905239399415535,
foam.wav,foam.mpg,foam,1,AV,Pink_Noise_1_1.wav,Pink_Noise_1_2.wav,,,,,,,,,,,,,,,0,24,24,80,,,,,,,,,,,,,,,,,,,,,,,232.55555987195112,None,234.05512358387932,None,235.43902560183778,None,foam,235.43902560183778,None,return,5.091808496043086,235.52227338589728,None,,,,,,,,,,,,,,,,,,,,,,,,,,,,,,,,,47,001,2023_Mar_08_1129,SpeechDraft1Carolyn_lessNoise_PlusLocalization,2021.2.3,59.905239399415535,
bun.wav,bun.mpg,bun,3,AV,Pink_Noise_3_1.wav,Pink_Noise_3_2.wav,,,,,,,,,,,,,,,0,25,25,117,,,,,,,,,,,,,,,,,,,,,,,240.6390952609945,None,242.13865967397578,None,243.52218983182684,None,bark,243.52218983182684,None,return,1.496437479974702,243.6057474259287,None,,,,,,,,,,,,,,,,,,,,,,,,,,,,,,,,,47,001,2023_Mar_08_1129,SpeechDraft1Carolyn_lessNoise_PlusLocalization,2021.2.3,59.905239399415535,
dead.wav,dead.mpg,dead,2,AV,Pink_Noise_2_1.wav,Pink_Noise_2_2.wav,,,,,,,,,,,,,,,0,26,26,85,,,,,,,,,,,,,,,,,,,,,,,245.12213072786108,None,246.62189913587645,None,248.02190006198362,None,dead,248.02190006198362,None,return,2.149256939999759,248.08892083982937,None,,,,,,,,,,,,,,,,,,,,,,,,,,,,,,,,,47,001,2023_Mar_08_1129,SpeechDraft1Carolyn_lessNoise_PlusLocalization,2021.2.3,59.905239399415535,
chomp.wav,chomp.mpg,chomp,3,AV,Pink_Noise_3_1.wav,Pink_Noise_3_2.wav,,,,,,,,,,,,,,,0,27,27,63,,,,,,,,,,,,,,,,,,,,,,,250.25558553496376,None,251.75510010495782,None,253.13886553398333,None,chop,253.13886553398333,None,return,2.4239041211549193,253.22230426385067,None,,,,,,,,,,,,,,,,,,,,,,,,,,,,,,,,,47,001,2023_Mar_08_1129,SpeechDraft1Carolyn_lessNoise_PlusLocalization,2021.2.3,59.905239399415535,
pride.wav,pride.mpg,pride,1,A,Pink_Noise_1_1.wav,Pink_Noise_1_2.wav,,,,,,,,,,,,,,,0,28,28,12,,,,,,,,,,,,,,,,,,,,,,,255.6724878270179,None,257.172095452901,None,258.5556890878361,None,pride,258.5556890878361,None,return,7.279305689968169,258.63882128498517,None,,,,,,,,,,,,,,,,,,,,,,,,,,,,,,,,,47,001,2023_Mar_08_1129,SpeechDraft1Carolyn_lessNoise_PlusLocalization,2021.2.3,59.905239399415535,
green.wav,green.mpg,green,2,AV,Pink_Noise_2_1.wav,Pink_Noise_2_2.wav,,,,,,,,,,,,,,,0,29,29,89,,,,,,,,,,,,,,,,,,,,,,,265.9389054188505,None,267.4387440360151,None,268.8220900108572,None,"green
",268.8220900108572,None,return,1.9004704230464995,268.9056189409457,None,,,,,,,,,,,,,,,,,,,,,,,,,,,,,,,,,47,001,2023_Mar_08_1129,SpeechDraft1Carolyn_lessNoise_PlusLocalization,2021.2.3,59.905239399415535,
layer.wav,layer.mpg,layer,6,A,Pink_Noise_6_1.wav,Pink_Noise_6_2.wav,,,,,,,,,,,,,,,0,30,30,11,,,,,,,,,,,,,,,,,,,,,,,270.83884503901936,None,272.33875991101377,None,273.722265239805,None,"light
",273.722265239805,None,return,2.0003136079758406,273.8057690039277,None,,,,,,,,,,,,,,,,,,,,,,,,,,,,,,,,,47,001,2023_Mar_08_1129,SpeechDraft1Carolyn_lessNoise_PlusLocalization,2021.2.3,59.905239399415535,
phase.wav,phase.mpg,phase,4,AV,Pink_Noise_4_1.wav,Pink_Noise_4_2.wav,,,,,,,,,,,,,,,0,31,31,110,,,,,,,,,,,,,,,,,,,,,,,275.8388724930119,None,277.33850346994586,None,278.7234428159427,None,face,278.7234428159427,None,return,1.192512865876779,278.8055587038398,None,,,,,,,,,,,,,,,,,,,,,,,,,,,,,,,,,47,001,2023_Mar_08_1129,SpeechDraft1Carolyn_lessNoise_PlusLocalization,2021.2.3,59.905239399415535,
creek.wav,creek.mpg,creek,6,A,Pink_Noise_6_1.wav,Pink_Noise_6_2.wav,,,,,,,,,,,,,,,0,32,32,30,,,,,,,,,,,,,,,,,,,,,,,280.0222678638529,None,281.5219246027991,None,282.90565504087135,None,feet,282.90565504087135,None,return,1.897133843973279,282.988990342943,None,,,,,,,,,,,,,,,,,,,,,,,,,,,,,,,,,47,001,2023_Mar_08_1129,SpeechDraft1Carolyn_lessNoise_PlusLocalization,2021.2.3,59.905239399415535,
fine.wav,fine.mpg,fine,3,A,Pink_Noise_3_1.wav,Pink_Noise_3_2.wav,,,,,,,,,,,,,,,0,33,33,7,,,,,,,,,,,,,,,,,,,,,,,284.9055117899552,None,286.40522021381184,None,287.7890089438297,None,fern,287.7890089438297,None,return,1.7259139618836343,287.8721539869439,None,,,,,,,,,,,,,,,,,,,,,,,,,,,,,,,,,47,001,2023_Mar_08_1129,SpeechDraft1Carolyn_lessNoise_PlusLocalization,2021.2.3,59.905239399415535,
game.wav,game.mpg,game,1,A,Pink_Noise_1_1.wav,Pink_Noise_1_2.wav,,,,,,,,,,,,,,,0,34,34,28,,,,,,,,,,,,,,,,,,,,,,,289.6223833959084,None,291.1223102977965,None,292.5056624978315,None,game,292.5056624978315,None,return,2.545112001011148,292.5890164459124,None,,,,,,,,,,,,,,,,,,,,,,,,,,,,,,,,,47,001,2023_Mar_08_1129,SpeechDraft1Carolyn_lessNoise_PlusLocalization,2021.2.3,59.905239399415535,
chore.wav,chore.mpg,chore,2,A,Pink_Noise_2_1.wav,Pink_Noise_2_2.wav,,,,,,,,,,,,,,,0,35,35,48,,,,,,,,,,,,,,,,,,,,,,,295.1559287228156,None,296.65547433285974,None,298.038814377971,None,"chore
",298.038814377971,None,return,1.4679457589518279,298.122139534913,None,,,,,,,,,,,,,,,,,,,,,,,,,,,,,,,,,47,001,2023_Mar_08_1129,SpeechDraft1Carolyn_lessNoise_PlusLocalization,2021.2.3,59.905239399415535,
clot.wav,clot.mpg,clot,1,AV,Pink_Noise_1_1.wav,Pink_Noise_1_2.wav,,,,,,,,,,,,,,,0,36,36,62,,,,,,,,,,,,,,,,,,,,,,,299.62221834482625,None,301.12217410001904,None,302.5054085799493,None,crot,302.5054085799493,None,return,1.905130075989291,302.5890655689873,None,,,,,,,,,,,,,,,,,,,,,,,,,,,,,,,,,47,001,2023_Mar_08_1129,SpeechDraft1Carolyn_lessNoise_PlusLocalization,2021.2.3,59.905239399415535,
roar.wav,roar.mpg,roar,4,A,Pink_Noise_4_1.wav,Pink_Noise_4_2.wav,,,,,,,,,,,,,,,0,37,37,46,,,,,,,,,,,,,,,,,,,,,,,304.52242649393156,None,306.0218657308724,None,307.4055479269009,None,roar,307.4055479269009,None,return,1.1970982309430838,307.48903491697274,None,,,,,,,,,,,,,,,,,,,,,,,,,,,,,,,,,47,001,2023_Mar_08_1129,SpeechDraft1Carolyn_lessNoise_PlusLocalization,2021.2.3,59.905239399415535,
fowl.wav,fowl.mpg,fowl,4,A,Pink_Noise_4_1.wav,Pink_Noise_4_2.wav,,,,,,,,,,,,,,,0,38,38,24,,,,,,,,,,,,,,,,,,,,,,,308.70576027198695,None,310.2053301669657,None,311.5890349438414,None,firre,311.5890349438414,None,return,2.3978161020204425,311.67229397501796,None,,,,,,,,,,,,,,,,,,,,,,,,,,,,,,,,,47,001,2023_Mar_08_1129,SpeechDraft1Carolyn_lessNoise_PlusLocalization,2021.2.3,59.905239399415535,
fate.wav,fate.mpg,fate,5,AV,Pink_Noise_5_1.wav,Pink_Noise_5_2.wav,,,,,,,,,,,,,,,0,39,39,100,,,,,,,,,,,,,,,,,,,,,,,314.0889536528848,None,315.5888358638622,None,316.9721295880154,None,fate,316.9721295880154,None,return,1.6384508272167295,317.05571808689274,None,,,,,,,,,,,,,,,,,,,,,,,,,,,,,,,,,47,001,2023_Mar_08_1129,SpeechDraft1Carolyn_lessNoise_PlusLocalization,2021.2.3,59.905239399415535,
dare.wav,dare.mpg,dare,2,A,Pink_Noise_2_1.wav,Pink_Noise_2_2.wav,,,,,,,,,,,,,,,0,40,40,6,,,,,,,,,,,,,,,,,,,,,,,318.72220798488706,None,320.22216464183293,None,321.60575351980515,None,"dare
",321.60575351980515,None,return,1.117136555025354,321.6889340488706,None,,,,,,,,,,,,,,,,,,,,,,,,,,,,,,,,,47,001,2023_Mar_08_1129,SpeechDraft1Carolyn_lessNoise_PlusLocalization,2021.2.3,59.905239399415535,
gut.wav,gut.mpg,gut,1,A,Pink_Noise_1_1.wav,Pink_Noise_1_2.wav,,,,,,,,,,,,,,,0,41,41,1,,,,,,,,,,,,,,,,,,,,,,,322.8389627879951,None,324.3388707838021,None,325.7221988218371,None,gut,325.7221988218371,None,return,1.432433262001723,325.805730846012,None,,,,,,,,,,,,,,,,,,,,,,,,,,,,,,,,,47,001,2023_Mar_08_1129,SpeechDraft1Carolyn_lessNoise_PlusLocalization,2021.2.3,59.905239399415535,
gross.wav,gross.mpg,gross,2,AV,Pink_Noise_2_1.wav,Pink_Noise_2_2.wav,,,,,,,,,,,,,,,0,42,42,93,,,,,,,,,,,,,,,,,,,,,,,327.25581903592683,None,328.75536226900294,None,330.13897786894813,None,gross,330.13897786894813,None,return,1.6075976649299264,330.222507962957,None,,,,,,,,,,,,,,,,,,,,,,,,,,,,,,,,,47,001,2023_Mar_08_1129,SpeechDraft1Carolyn_lessNoise_PlusLocalization,2021.2.3,59.905239399415535,
blank.wav,blank.mpg,blank,6,A,Pink_Noise_6_1.wav,Pink_Noise_6_2.wav,,,,,,,,,,,,,,,0,43,43,22,,,,,,,,,,,,,,,,,,,,,,,331.85559200891294,None,333.3557125288062,None,334.7388371869456,None,"run
",334.7388371869456,None,return,1.5676516159437597,334.8224312188104,None,,,,,,,,,,,,,,,,,,,,,,,,,,,,,,,,,47,001,2023_Mar_08_1129,SpeechDraft1Carolyn_lessNoise_PlusLocalization,2021.2.3,59.905239399415535,
crack.wav,crack.mpg,crack,4,A,Pink_Noise_4_1.wav,Pink_Noise_4_2.wav,,,,,,,,,,,,,,,0,44,44,9,,,,,,,,,,,,,,,,,,,,,,,336.4223946209531,None,337.9222319298424,None,339.3056883828249,None,cru,339.3056883828249,None,return,1.4490812339354306,339.38908009487204,None,,,,,,,,,,,,,,,,,,,,,,,,,,,,,,,,,47,001,2023_Mar_08_1129,SpeechDraft1Carolyn_lessNoise_PlusLocalization,2021.2.3,59.905239399415535,
belt.wav,belt.mpg,belt,4,A,Pink_Noise_4_1.wav,Pink_Noise_4_2.wav,,,,,,,,,,,,,,,0,45,45,39,,,,,,,,,,,,,,,,,,,,,,,340.85562907601707,None,342.35605217097327,None,343.7389904288575,None,felt,343.7389904288575,None,return,1.1118393228389323,343.8222473040223,None,,,,,,,,,,,,,,,,,,,,,,,,,,,,,,,,,47,001,2023_Mar_08_1129,SpeechDraft1Carolyn_lessNoise_PlusLocalization,2021.2.3,59.905239399415535,
tank.wav,tank.mpg,tank,3,A,Pink_Noise_3_1.wav,Pink_Noise_3_2.wav,,,,,,,,,,,,,,,0,46,46,34,,,,,,,,,,,,,,,,,,,,,,,344.95572847500443,None,346.4553950219415,None,347.8389372508973,None,take,347.8389372508973,None,return,1.4598385808058083,347.9222320129629,None,,,,,,,,,,,,,,,,,,,,,,,,,,,,,,,,,47,001,2023_Mar_08_1129,SpeechDraft1Carolyn_lessNoise_PlusLocalization,2021.2.3,59.905239399415535,
chef.wav,chef.mpg,chef,4,AV,Pink_Noise_4_1.wav,Pink_Noise_4_2.wav,,,,,,,,,,,,,,,0,47,47,64,,,,,,,,,,,,,,,,,,,,,,,349.40582931390963,None,350.90595875587314,None,352.2888382039964,None,chef,352.2888382039964,None,return,1.8656979009974748,352.3724736578297,None,,,,,,,,,,,,,,,,,,,,,,,,,,,,,,,,,47,001,2023_Mar_08_1129,SpeechDraft1Carolyn_lessNoise_PlusLocalization,2021.2.3,59.905239399415535,
crane.wav,crane.mpg,crane,2,AV,Pink_Noise_2_1.wav,Pink_Noise_2_2.wav,,,,,,,,,,,,,,,0,48,48,102,,,,,,,,,,,,,,,,,,,,,,,354.25574346794747,None,355.7555911578238,None,357.1390266099479,None,crain,357.1390266099479,None,return,2.799693931126967,357.2224796907976,None,,,,,,,,,,,,,,,,,,,,,,,,,,,,,,,,,47,001,2023_Mar_08_1129,SpeechDraft1Carolyn_lessNoise_PlusLocalization,2021.2.3,59.905239399415535,
bold.wav,bold.mpg,bold,3,AV,Pink_Noise_3_1.wav,Pink_Noise_3_2.wav,,,,,,,,,,,,,,,0,49,49,60,,,,,,,,,,,,,,,,,,,,,,,360.03894229000434,None,361.55565917887725,None,362.9392797779292,None,"bowl
",362.9392797779292,None,return,2.7036626311019063,363.0224273519125,None,,,,,,,,,,,,,,,,,,,,,,,,,,,,,,,,,47,001,2023_Mar_08_1129,SpeechDraft1Carolyn_lessNoise_PlusLocalization,2021.2.3,59.905239399415535,
gaze.wav,gaze.mpg,gaze,1,AV,Pink_Noise_1_1.wav,Pink_Noise_1_2.wav,,,,,,,,,,,,,,,0,50,50,91,,,,,,,,,,,,,,,,,,,,,,,365.7556284889579,None,367.25715793389827,None,368.63892027782276,None,"gaze
",368.63892027782276,None,return,1.4675354191567749,368.7225561309606,None,,,,,,,,,,,,,,,,,,,,,,,,,,,,,,,,,47,001,2023_Mar_08_1129,SpeechDraft1Carolyn_lessNoise_PlusLocalization,2021.2.3,59.905239399415535,
dust.wav,dust.mpg,dust,3,A,Pink_Noise_3_1.wav,Pink_Noise_3_2.wav,,,,,,,,,,,,,,,0,51,51,42,,,,,,,,,,,,,,,,,,,,,,,370.22245391481556,None,371.7223211408127,None,373.10588231589645,None,dust,373.10588231589645,None,return,2.5290551870130002,373.18904977384955,None,,,,,,,,,,,,,,,,,,,,,,,,,,,,,,,,,47,001,2023_Mar_08_1129,SpeechDraft1Carolyn_lessNoise_PlusLocalization,2021.2.3,59.905239399415535,
damn.wav,damn.mpg,damn,4,AV,Pink_Noise_4_1.wav,Pink_Noise_4_2.wav,,,,,,,,,,,,,,,0,52,52,90,,,,,,,,,,,,,,,,,,,,,,,375.7392762468662,None,377.23889455292374,None,378.6236002140213,None,"dam
",378.6236002140213,None,return,1.7004378230776638,378.705662549939,None,,,,,,,,,,,,,,,,,,,,,,,,,,,,,,,,,47,001,2023_Mar_08_1129,SpeechDraft1Carolyn_lessNoise_PlusLocalization,2021.2.3,59.905239399415535,
cheap.wav,cheap.mpg,cheap,5,A,Pink_Noise_5_1.wav,Pink_Noise_5_2.wav,,,,,,,,,,,,,,,0,53,53,31,,,,,,,,,,,,,,,,,,,,,,,380.4391973980237,None,381.9556011229288,None,383.34000966185704,None,"chase
",383.34000966185704,None,return,4.135784092824906,383.42230900283903,None,,,,,,,,,,,,,,,,,,,,,,,,,,,,,,,,,47,001,2023_Mar_08_1129,SpeechDraft1Carolyn_lessNoise_PlusLocalization,2021.2.3,59.905239399415535,
fluent.wav,fluent.mpg,fluent,3,AV,Pink_Noise_3_1.wav,Pink_Noise_3_2.wav,,,,,,,,,,,,,,,0,54,54,69,,,,,,,,,,,,,,,,,,,,,,,387.58911405084655,None,389.08923312998377,None,390.47237234795466,None,fluent,390.47237234795466,None,return,1.4744555598590523,390.555684590945,None,,,,,,,,,,,,,,,,,,,,,,,,,,,,,,,,,47,001,2023_Mar_08_1129,SpeechDraft1Carolyn_lessNoise_PlusLocalization,2021.2.3,59.905239399415535,
fail.wav,fail.mpg,fail,5,A,Pink_Noise_5_1.wav,Pink_Noise_5_2.wav,,,,,,,,,,,,,,,0,55,55,57,,,,,,,,,,,,,,,,,,,,,,,392.0558161428198,None,393.55577514483593,None,394.9393285380211,None,"faor
",394.9393285380211,None,return,2.767678433796391,395.0224034199491,None,,,,,,,,,,,,,,,,,,,,,,,,,,,,,,,,,47,001,2023_Mar_08_1129,SpeechDraft1Carolyn_lessNoise_PlusLocalization,2021.2.3,59.905239399415535,
flirt.wav,flirt.mpg,flirt,1,A,Pink_Noise_1_1.wav,Pink_Noise_1_2.wav,,,,,,,,,,,,,,,0,56,56,43,,,,,,,,,,,,,,,,,,,,,,,397.82241001399234,None,399.32222590083256,None,400.70573726692237,None,"flrt
",400.70573726692237,None,return,1.5688303071074188,400.7892609669361,None,,,,,,,,,,,,,,,,,,,,,,,,,,,,,,,,,47,001,2023_Mar_08_1129,SpeechDraft1Carolyn_lessNoise_PlusLocalization,2021.2.3,59.905239399415535,
grill.wav,grill.mpg,grill,2,AV,Pink_Noise_2_1.wav,Pink_Noise_2_2.wav,,,,,,,,,,,,,,,0,57,57,81,,,,,,,,,,,,,,,,,,,,,,,402.3891067588702,None,403.8891060289461,None,405.27232083887793,None,grill,405.27232083887793,None,return,2.306560361990705,405.3557005620096,None,,,,,,,,,,,,,,,,,,,,,,,,,,,,,,,,,47,001,2023_Mar_08_1129,SpeechDraft1Carolyn_lessNoise_PlusLocalization,2021.2.3,59.905239399415535,
grand.wav,grand.mpg,grand,1,A,Pink_Noise_1_1.wav,Pink_Noise_1_2.wav,,,,,,,,,,,,,,,0,58,58,52,,,,,,,,,,,,,,,,,,,,,,,407.68901043687947,None,409.20572929200716,None,410.5893855539616,None,grand,410.5893855539616,None,return,3.6217082960065454,410.6723706368357,None,,,,,,,,,,,,,,,,,,,,,,,,,,,,,,,,,47,001,2023_Mar_08_1129,SpeechDraft1Carolyn_lessNoise_PlusLocalization,2021.2.3,59.905239399415535,
globe.wav,globe.mpg,globe,6,AV,Pink_Noise_6_1.wav,Pink_Noise_6_2.wav,,,,,,,,,,,,,,,0,59,59,99,,,,,,,,,,,,,,,,,,,,,,,414.3225664009806,None,415.8222743209917,None,417.2058535059914,None,gross,417.2058535059914,None,return,2.2611386380158365,417.2889386608731,None,,,,,,,,,,,,,,,,,,,,,,,,,,,,,,,,,47,001,2023_Mar_08_1129,SpeechDraft1Carolyn_lessNoise_PlusLocalization,2021.2.3,59.905239399415535,
stain.wav,stain.mpg,stain,3,AV,Pink_Noise_3_1.wav,Pink_Noise_3_2.wav,,,,,,,,,,,,,,,0,60,60,61,,,,,,,,,,,,,,,,,,,,,,,419.57261115894653,None,421.0723968569655,None,422.4557273359969,None,stain,422.4557273359969,None,return,1.6988419611006975,422.5392740420066,None,,,,,,,,,,,,,,,,,,,,,,,,,,,,,,,,,47,001,2023_Mar_08_1129,SpeechDraft1Carolyn_lessNoise_PlusLocalization,2021.2.3,59.905239399415535,
strive.wav,strive.mpg,strive,4,A,Pink_Noise_4_1.wav,Pink_Noise_4_2.wav,,,,,,,,,,,,,,,0,61,61,44,,,,,,,,,,,,,,,,,,,,,,,424.255862504011,None,425.7559153349139,None,427.13920318800956,None,strive,427.13920318800956,None,return,6.063820014940575,427.22230608202517,None,,,,,,,,,,,,,,,,,,,,,,,,,,,,,,,,,47,001,2023_Mar_08_1129,SpeechDraft1Carolyn_lessNoise_PlusLocalization,2021.2.3,59.905239399415535,
bind.wav,bind.mpg,bind,2,AV,Pink_Noise_2_1.wav,Pink_Noise_2_2.wav,,,,,,,,,,,,,,,0,62,62,97,,,,,,,,,,,,,,,,,,,,,,,433.30591607792303,None,434.8054667469114,None,436.1891313740052,None,bind,436.1891313740052,None,return,1.709802060155198,436.2722593098879,None,,,,,,,,,,,,,,,,,,,,,,,,,,,,,,,,,47,001,2023_Mar_08_1129,SpeechDraft1Carolyn_lessNoise_PlusLocalization,2021.2.3,59.905239399415535,
born.wav,born.mpg,born,4,AV,Pink_Noise_4_1.wav,Pink_Noise_4_2.wav,,,,,,,,,,,,,,,0,63,63,75,,,,,,,,,,,,,,,,,,,,,,,438.0060265518259,None,439.5056337919086,None,440.889214343857,None,bored,440.889214343857,None,return,2.6895980569534004,440.97258961200714,None,,,,,,,,,,,,,,,,,,,,,,,,,,,,,,,,,47,001,2023_Mar_08_1129,SpeechDraft1Carolyn_lessNoise_PlusLocalization,2021.2.3,59.905239399415535,
ask.wav,ask.mpg,ask,5,AV,Pink_Noise_5_1.wav,Pink_Noise_5_2.wav,,,,,,,,,,,,,,,0,64,64,86,,,,,,,,,,,,,,,,,,,,,,,443.6890955339186,None,445.2058707929682,None,446.58916960679926,None,task,446.58916960679926,None,return,4.181819589110091,446.67233739583753,None,,,,,,,,,,,,,,,,,,,,,,,,,,,,,,,,,47,001,2023_Mar_08_1129,SpeechDraft1Carolyn_lessNoise_PlusLocalization,2021.2.3,59.905239399415535,
truck.wav,truck.mpg,truck,5,A,Pink_Noise_5_1.wav,Pink_Noise_5_2.wav,,,,,,,,,,,,,,,0,65,65,18,,,,,,,,,,,,,,,,,,,,,,,450.8726042818744,None,452.38889935589395,None,453.77238150988705,None,trop,453.77238150988705,None,return,3.4381823129951954,453.8558992969338,None,,,,,,,,,,,,,,,,,,,,,,,,,,,,,,,,,47,001,2023_Mar_08_1129,SpeechDraft1Carolyn_lessNoise_PlusLocalization,2021.2.3,59.905239399415535,
bible.wav,bible.mpg,bible,2,AV,Pink_Noise_2_1.wav,Pink_Noise_2_2.wav,,,,,,,,,,,,,,,0,66,66,74,,,,,,,,,,,,,,,,,,,,,,,457.3224208129104,None,458.8224291948136,None,460.2058463799767,None,"bible
",460.2058463799767,None,return,1.469024718971923,460.289057422895,None,,,,,,,,,,,,,,,,,,,,,,,,,,,,,,,,,47,001,2023_Mar_08_1129,SpeechDraft1Carolyn_lessNoise_PlusLocalization,2021.2.3,59.905239399415535,
swayed.wav,swayed.mpg,swayed,4,AV,Pink_Noise_4_1.wav,Pink_Noise_4_2.wav,,,,,,,,,,,,,,,0,67,67,96,,,,,,,,,,,,,,,,,,,,,,,461.78923035692424,None,463.2891482389532,None,464.6723664228339,None,"sway
",464.6723664228339,None,return,1.7701028080191463,464.7559931529686,None,,,,,,,,,,,,,,,,,,,,,,,,,,,,,,,,,47,001,2023_Mar_08_1129,SpeechDraft1Carolyn_lessNoise_PlusLocalization,2021.2.3,59.905239399415535,
gem.wav,gem.mpg,gem,2,A,Pink_Noise_2_1.wav,Pink_Noise_2_2.wav,,,,,,,,,,,,,,,0,68,68,58,,,,,,,,,,,,,,,,,,,,,,,466.5558135698084,None,468.0557581859175,None,469.4393136037979,None,"gem
",469.4393136037979,None,return,1.067353358026594,469.52273702900857,None,,,,,,,,,,,,,,,,,,,,,,,,,,,,,,,,,47,001,2023_Mar_08_1129,SpeechDraft1Carolyn_lessNoise_PlusLocalization,2021.2.3,59.905239399415535,
cash.wav,cash.mpg,cash,5,A,Pink_Noise_5_1.wav,Pink_Noise_5_2.wav,,,,,,,,,,,,,,,0,69,69,0,,,,,,,,,,,,,,,,,,,,,,,470.6227648979984,None,472.1390167300124,None,473.52251453790814,None,catch,473.52251453790814,None,return,2.3923571261111647,473.60571338795125,None,,,,,,,,,,,,,,,,,,,,,,,,,,,,,,,,,47,001,2023_Mar_08_1129,SpeechDraft1Carolyn_lessNoise_PlusLocalization,2021.2.3,59.905239399415535,
axe.wav,axe.mpg,axe,1,AV,Pink_Noise_1_1.wav,Pink_Noise_1_2.wav,,,,,,,,,,,,,,,0,70,70,111,,,,,,,,,,,,,,,,,,,,,,,476.0223390830215,None,477.53885880485177,None,478.9227591508534,None,xe,478.9227591508534,None,return,0.8564279789570719,479.00578610994853,None,,,,,,,,,,,,,,,,,,,,,,,,,,,,,,,,,47,001,2023_Mar_08_1129,SpeechDraft1Carolyn_lessNoise_PlusLocalization,2021.2.3,59.905239399415535,
ton.wav,ton.mpg,ton,5,AV,Pink_Noise_5_1.wav,Pink_Noise_5_2.wav,,,,,,,,,,,,,,,0,71,71,106,,,,,,,,,,,,,,,,,,,,,,,479.88936936692335,None,481.42219136399217,None,482.8060362848919,None,tongue,482.8060362848919,None,return,2.677014428190887,482.88905081688426,None,,,,,,,,,,,,,,,,,,,,,,,,,,,,,,,,,47,001,2023_Mar_08_1129,SpeechDraft1Carolyn_lessNoise_PlusLocalization,2021.2.3,59.905239399415535,
guest.wav,guest.mpg,guest,6,AV,Pink_Noise_6_1.wav,Pink_Noise_6_2.wav,,,,,,,,,,,,,,,0,72,72,105,,,,,,,,,,,,,,,,,,,,,,,485.5893563129939,None,487.0902935238555,None,488.4725621358957,None,next,488.4725621358957,None,return,1.49819321394898,488.5559760488104,None,,,,,,,,,,,,,,,,,,,,,,,,,,,,,,,,,47,001,2023_Mar_08_1129,SpeechDraft1Carolyn_lessNoise_PlusLocalization,2021.2.3,59.905239399415535,
foot.wav,foot.mpg,foot,2,AV,Pink_Noise_2_1.wav,Pink_Noise_2_2.wav,,,,,,,,,,,,,,,0,73,73,76,,,,,,,,,,,,,,,,,,,,,,,490.0725699488539,None,491.5891978708096,None,492.9726226378698,None,foot,492.9726226378698,None,return,1.3904504168312997,493.0557703208178,None,,,,,,,,,,,,,,,,,,,,,,,,,,,,,,,,,47,001,2023_Mar_08_1129,SpeechDraft1Carolyn_lessNoise_PlusLocalization,2021.2.3,59.905239399415535,
curse.wav,curse.mpg,curse,6,AV,Pink_Noise_6_1.wav,Pink_Noise_6_2.wav,,,,,,,,,,,,,,,0,74,74,119,,,,,,,,,,,,,,,,,,,,,,,494.4726942908019,None,495.9733113378752,None,497.3559214367997,None,"goose
",497.3559214367997,None,return,2.502765379147604,497.43931817798875,None,,,,,,,,,,,,,,,,,,,,,,,,,,,,,,,,,47,001,2023_Mar_08_1129,SpeechDraft1Carolyn_lessNoise_PlusLocalization,2021.2.3,59.905239399415535,
dice.wav,dice.mpg,dice,4,A,Pink_Noise_4_1.wav,Pink_Noise_4_2.wav,,,,,,,,,,,,,,,0,75,75,55,,,,,,,,,,,,,,,,,,,,,,,499.97269593901,None,501.4721812468488,None,502.85577455186285,None,dice,502.85577455186285,None,return,2.7547369180247188,502.93935280898586,None,,,,,,,,,,,,,,,,,,,,,,,,,,,,,,,,,47,001,2023_Mar_08_1129,SpeechDraft1Carolyn_lessNoise_PlusLocalization,2021.2.3,59.905239399415535,
warmth.wav,warmth.mpg,warmth,3,AV,Pink_Noise_3_1.wav,Pink_Noise_3_2.wav,,,,,,,,,,,,,,,0,76,76,104,,,,,,,,,,,,,,,,,,,,,,,505.72267002798617,None,507.2391318269074,None,508.6224789849948,None,warped,508.6224789849948,None,return,2.516089002136141,508.70604767580517,None,,,,,,,,,,,,,,,,,,,,,,,,,,,,,,,,,47,001,2023_Mar_08_1129,SpeechDraft1Carolyn_lessNoise_PlusLocalization,2021.2.3,59.905239399415535,
curl.wav,curl.mpg,curl,6,AV,Pink_Noise_6_1.wav,Pink_Noise_6_2.wav,,,,,,,,,,,,,,,0,77,77,79,,,,,,,,,,,,,,,,,,,,,,,511.23923696693964,None,512.7556261769496,None,514.1392210228369,None,"curl
",514.1392210228369,None,return,1.1194496110547334,514.2226402908564,None,,,,,,,,,,,,,,,,,,,,,,,,,,,,,,,,,47,001,2023_Mar_08_1129,SpeechDraft1Carolyn_lessNoise_PlusLocalization,2021.2.3,59.905239399415535,
news.wav,news.mpg,news,5,A,Pink_Noise_5_1.wav,Pink_Noise_5_2.wav,,,,,,,,,,,,,,,0,78,78,59,,,,,,,,,,,,,,,,,,,,,,,515.372437095968,None,516.8892136239447,None,518.2726724517997,None,reese,518.2726724517997,None,return,3.6102384158875793,518.3558498839848,None,,,,,,,,,,,,,,,,,,,,,,,,,,,,,,,,,47,001,2023_Mar_08_1129,SpeechDraft1Carolyn_lessNoise_PlusLocalization,2021.2.3,59.905239399415535,
chest.wav,chest.mpg,chest,1,A,Pink_Noise_1_1.wav,Pink_Noise_1_2.wav,,,,,,,,,,,,,,,0,79,79,41,,,,,,,,,,,,,,,,,,,,,,,521.9891818678007,None,523.5058624858502,None,524.8726750109345,None,chest,524.8726750109345,None,return,4.554255180992186,524.9558333319146,None,,,,,,,,,,,,,,,,,,,,,,,,,,,,,,,,,47,001,2023_Mar_08_1129,SpeechDraft1Carolyn_lessNoise_PlusLocalization,2021.2.3,59.905239399415535,
guard.wav,guard.mpg,guard,5,A,Pink_Noise_5_1.wav,Pink_Noise_5_2.wav,,,,,,,,,,,,,,,0,80,80,20,,,,,,,,,,,,,,,,,,,,,,,529.5394064909779,None,531.0556925549172,None,532.4228664459661,None,large,532.4228664459661,None,return,2.3483052221126854,532.5058451008517,None,,,,,,,,,,,,,,,,,,,,,,,,,,,,,,,,,47,001,2023_Mar_08_1129,SpeechDraft1Carolyn_lessNoise_PlusLocalization,2021.2.3,59.905239399415535,
grail.wav,grail.mpg,grail,2,A,Pink_Noise_2_1.wav,Pink_Noise_2_2.wav,,,,,,,,,,,,,,,0,81,81,4,,,,,,,,,,,,,,,,,,,,,,,534.8727190589998,None,536.390724463854,None,537.7726780408993,None,"grill
",537.7726780408993,None,return,2.3020424880087376,537.8560435369145,None,,,,,,,,,,,,,,,,,,,,,,,,,,,,,,,,,47,001,2023_Mar_08_1129,SpeechDraft1Carolyn_lessNoise_PlusLocalization,2021.2.3,59.905239399415535,
fake.wav,fake.mpg,fake,3,AV,Pink_Noise_3_1.wav,Pink_Noise_3_2.wav,,,,,,,,,,,,,,,0,82,82,108,,,,,,,,,,,,,,,,,,,,,,,540.1893135579303,None,541.705960465828,None,543.0892042468768,None,fale,543.0892042468768,None,return,2.8654696971643716,543.1726758219302,None,,,,,,,,,,,,,,,,,,,,,,,,,,,,,,,,,47,001,2023_Mar_08_1129,SpeechDraft1Carolyn_lessNoise_PlusLocalization,2021.2.3,59.905239399415535,
cold.wav,cold.mpg,cold,5,A,Pink_Noise_5_1.wav,Pink_Noise_5_2.wav,,,,,,,,,,,,,,,0,83,83,8,,,,,,,,,,,,,,,,,,,,,,,546.0559787759557,None,547.5730973789468,None,548.9560969588347,None,fail,548.9560969588347,None,return,3.3105358220636845,549.0395590278786,None,,,,,,,,,,,,,,,,,,,,,,,,,,,,,,,,,47,001,2023_Mar_08_1129,SpeechDraft1Carolyn_lessNoise_PlusLocalization,2021.2.3,59.905239399415535,
spire.wav,spire.mpg,spire,3,AV,Pink_Noise_3_1.wav,Pink_Noise_3_2.wav,,,,,,,,,,,,,,,0,84,84,92,,,,,,,,,,,,,,,,,,,,,,,552.3726433478296,None,553.889021134004,None,555.2557920769323,None,"inspire
",555.2557920769323,None,return,1.7549312449991703,555.3391599869356,None,,,,,,,,,,,,,,,,,,,,,,,,,,,,,,,,,47,001,2023_Mar_08_1129,SpeechDraft1Carolyn_lessNoise_PlusLocalization,2021.2.3,59.905239399415535,
gram.wav,gram.mpg,gram,5,AV,Pink_Noise_5_1.wav,Pink_Noise_5_2.wav,,,,,,,,,,,,,,,0,85,85,78,,,,,,,,,,,,,,,,,,,,,,,557.1226663009729,None,558.6556755178608,None,560.0391204468906,None,grape,560.0391204468906,None,return,3.1316461788956076,560.1225377309602,None,,,,,,,,,,,,,,,,,,,,,,,,,,,,,,,,,47,001,2023_Mar_08_1129,SpeechDraft1Carolyn_lessNoise_PlusLocalization,2021.2.3,59.905239399415535,
dial.wav,dial.mpg,dial,3,A,Pink_Noise_3_1.wav,Pink_Noise_3_2.wav,,,,,,,,,,,,,,,0,86,86,13,,,,,,,,,,,,,,,,,,,,,,,563.2725033778697,None,564.7891086938325,None,566.1726787528023,None,dial,566.1726787528023,None,return,1.1740644869860262,566.256101150997,None,,,,,,,,,,,,,,,,,,,,,,,,,,,,,,,,,47,001,2023_Mar_08_1129,SpeechDraft1Carolyn_lessNoise_PlusLocalization,2021.2.3,59.905239399415535,
faith.wav,faith.mpg,faith,6,AV,Pink_Noise_6_1.wav,Pink_Noise_6_2.wav,,,,,,,,,,,,,,,0,87,87,73,,,,,,,,,,,,,,,,,,,,,,,567.4559202138335,None,568.9723570949864,None,570.3561318679713,None,faith,570.3561318679713,None,return,3.222967489855364,570.4392280608881,None,,,,,,,,,,,,,,,,,,,,,,,,,,,,,,,,,47,001,2023_Mar_08_1129,SpeechDraft1Carolyn_lessNoise_PlusLocalization,2021.2.3,59.905239399415535,
fool.wav,fool.mpg,fool,3,A,Pink_Noise_3_1.wav,Pink_Noise_3_2.wav,,,,,,,,,,,,,,,0,88,88,26,,,,,,,,,,,,,,,,,,,,,,,573.6892696889117,None,575.2056551179849,None,576.5893682069145,None,pool,576.5893682069145,None,return,1.6612914151046425,576.6727965869941,None,,,,,,,,,,,,,,,,,,,,,,,,,,,,,,,,,47,001,2023_Mar_08_1129,SpeechDraft1Carolyn_lessNoise_PlusLocalization,2021.2.3,59.905239399415535,
beef.wav,beef.mpg,beef,4,A,Pink_Noise_4_1.wav,Pink_Noise_4_2.wav,,,,,,,,,,,,,,,0,89,89,33,,,,,,,,,,,,,,,,,,,,,,,578.3726247940212,None,579.9057772709057,None,581.2893719398417,None,"feet
",581.2893719398417,None,return,1.4012095651123673,581.3728594139684,None,,,,,,,,,,,,,,,,,,,,,,,,,,,,,,,,,47,001,2023_Mar_08_1129,SpeechDraft1Carolyn_lessNoise_PlusLocalization,2021.2.3,59.905239399415535,
cease.wav,cease.mpg,cease,1,AV,Pink_Noise_1_1.wav,Pink_Noise_1_2.wav,,,,,,,,,,,,,,,0,90,90,98,,,,,,,,,,,,,,,,,,,,,,,582.80608772696,None,584.3225428368896,None,585.7058391859755,None,"sease
",585.7058391859755,None,return,3.2166862869635224,585.7894048099406,None,,,,,,,,,,,,,,,,,,,,,,,,,,,,,,,,,47,001,2023_Mar_08_1129,SpeechDraft1Carolyn_lessNoise_PlusLocalization,2021.2.3,59.905239399415535,
thrown.wav,thrown.mpg,thrown,5,A,Pink_Noise_5_1.wav,Pink_Noise_5_2.wav,,,,,,,,,,,,,,,0,91,91,38,,,,,,,,,,,,,,,,,,,,,,,589.039512128802,None,590.5891791409813,None,591.9727427139878,None,grove,591.9727427139878,None,return,2.0220414439681917,592.0560404038988,None,,,,,,,,,,,,,,,,,,,,,,,,,,,,,,,,,47,001,2023_Mar_08_1129,SpeechDraft1Carolyn_lessNoise_PlusLocalization,2021.2.3,59.905239399415535,
cheer.wav,cheer.mpg,cheer,1,AV,Pink_Noise_1_1.wav,Pink_Noise_1_2.wav,,,,,,,,,,,,,,,0,92,92,66,,,,,,,,,,,,,,,,,,,,,,,594.1061626449227,None,595.6224861978553,None,597.0062065138482,None,cheer,597.0062065138482,None,return,0.9566680621355772,597.089451400796,None,,,,,,,,,,,,,,,,,,,,,,,,,,,,,,,,,47,001,2023_Mar_08_1129,SpeechDraft1Carolyn_lessNoise_PlusLocalization,2021.2.3,59.905239399415535,
bay.wav,bay.mpg,bay,2,A,Pink_Noise_2_1.wav,Pink_Noise_2_2.wav,,,,,,,,,,,,,,,0,93,93,3,,,,,,,,,,,,,,,,,,,,,,,598.0725774059538,None,599.5891914248932,None,600.9727746900171,None,bay,600.9727746900171,None,return,1.4300526750739664,601.0560953628737,None,,,,,,,,,,,,,,,,,,,,,,,,,,,,,,,,,47,001,2023_Mar_08_1129,SpeechDraft1Carolyn_lessNoise_PlusLocalization,2021.2.3,59.905239399415535,
dash.wav,dash.mpg,dash,6,A,Pink_Noise_6_1.wav,Pink_Noise_6_2.wav,,,,,,,,,,,,,,,0,94,94,10,,,,,,,,,,,,,,,,,,,,,,,602.5060365248937,None,604.022301863879,None,605.4060820639133,None,death,605.4060820639133,None,return,3.196691646007821,605.4894507050049,None,,,,,,,,,,,,,,,,,,,,,,,,,,,,,,,,,47,001,2023_Mar_08_1129,SpeechDraft1Carolyn_lessNoise_PlusLocalization,2021.2.3,59.905239399415535,
damp.wav,damp.mpg,damp,6,A,Pink_Noise_6_1.wav,Pink_Noise_6_2.wav,,,,,,,,,,,,,,,0,95,95,2,,,,,,,,,,,,,,,,,,,,,,,608.7061491408385,None,610.2065845909528,None,611.5894254618324,None,will,611.5894254618324,None,return,3.077349964994937,611.6727221189067,None,,,,,,,,,,,,,,,,,,,,,,,,,,,,,,,,,47,001,2023_Mar_08_1129,SpeechDraft1Carolyn_lessNoise_PlusLocalization,2021.2.3,59.905239399415535,
edge.wav,edge.mpg,edge,6,AV,Pink_Noise_6_1.wav,Pink_Noise_6_2.wav,,,,,,,,,,,,,,,0,96,96,101,,,,,,,,,,,,,,,,,,,,,,,614.7726375819184,None,616.2726305657998,None,617.6560487698298,None,edge,617.6560487698298,None,return,1.7625207260716707,617.7395518010017,None,,,,,,,,,,,,,,,,,,,,,,,,,,,,,,,,,47,001,2023_Mar_08_1129,SpeechDraft1Carolyn_lessNoise_PlusLocalization,2021.2.3,59.905239399415535,
flip.wav,flip.mpg,flip,5,AV,Pink_Noise_5_1.wav,Pink_Noise_5_2.wav,,,,,,,,,,,,,,,0,97,97,118,,,,,,,,,,,,,,,,,,,,,,,619.5225638968404,None,621.0393580088858,None,622.4060989669524,None,flip,622.4060989669524,None,return,8.044393192976713,622.4896783798467,None,,,,,,,,,,,,,,,,,,,,,,,,,,,,,,,,,47,001,2023_Mar_08_1129,SpeechDraft1Carolyn_lessNoise_PlusLocalization,2021.2.3,59.905239399415535,
cough.wav,cough.mpg,cough,2,AV,Pink_Noise_2_1.wav,Pink_Noise_2_2.wav,,,,,,,,,,,,,,,0,98,98,115,,,,,,,,,,,,,,,,,,,,,,,630.5562504618429,None,632.0900218239985,None,633.4728818319272,None,cough,633.4728818319272,None,return,7.057893702061847,633.556159034837,None,,,,,,,,,,,,,,,,,,,,,,,,,,,,,,,,,47,001,2023_Mar_08_1129,SpeechDraft1Carolyn_lessNoise_PlusLocalization,2021.2.3,59.905239399415535,
chant.wav,chant.mpg,chant,6,A,Pink_Noise_6_1.wav,Pink_Noise_6_2.wav,,,,,,,,,,,,,,,0,99,99,17,,,,,,,,,,,,,,,,,,,,,,,640.6394208020065,None,642.1560900518671,None,643.5395344279241,None,doom,643.5395344279241,None,return,3.9114134069532156,643.6226846668869,None,,,,,,,,,,,,,,,,,,,,,,,,,,,,,,,,,47,001,2023_Mar_08_1129,SpeechDraft1Carolyn_lessNoise_PlusLocalization,2021.2.3,59.905239399415535,
due.wav,due.mpg,due,4,AV,Pink_Noise_4_1.wav,Pink_Noise_4_2.wav,,,,,,,,,,,,,,,0,100,100,68,,,,,,,,,,,,,,,,,,,,,,,647.556249212008,None,649.072469495004,None,650.4562094670255,None,do,650.4562094670255,None,return,2.162716483930126,650.5393929958809,None,,,,,,,,,,,,,,,,,,,,,,,,,,,,,,,,,47,001,2023_Mar_08_1129,SpeechDraft1Carolyn_lessNoise_PlusLocalization,2021.2.3,59.905239399415535,
eight.wav,eight.mpg,eight,4,A,Pink_Noise_4_1.wav,Pink_Noise_4_2.wav,,,,,,,,,,,,,,,0,101,101,15,,,,,,,,,,,,,,,,,,,,,,,652.7230168718379,None,654.239340932807,None,655.6229369568173,None,it,655.6229369568173,None,return,1.1161324460990727,655.7060777819715,None,,,,,,,,,,,,,,,,,,,,,,,,,,,,,,,,,47,001,2023_Mar_08_1129,SpeechDraft1Carolyn_lessNoise_PlusLocalization,2021.2.3,59.905239399415535,
blast.wav,blast.mpg,blast,2,A,Pink_Noise_2_1.wav,Pink_Noise_2_2.wav,,,,,,,,,,,,,,,0,102,102,53,,,,,,,,,,,,,,,,,,,,,,,656.8394918809645,None,658.3557586178649,None,659.7395348940045,None,last,659.7395348940045,None,return,1.111302865901962,659.8227895270102,None,,,,,,,,,,,,,,,,,,,,,,,,,,,,,,,,,47,001,2023_Mar_08_1129,SpeechDraft1Carolyn_lessNoise_PlusLocalization,2021.2.3,59.905239399415535,
clog.wav,clog.mpg,clog,3,A,Pink_Noise_3_1.wav,Pink_Noise_3_2.wav,,,,,,,,,,,,,,,0,103,103,5,,,,,,,,,,,,,,,,,,,,,,,660.956029873807,None,662.4724160709884,None,663.856007770868,None,quad,663.856007770868,None,return,2.666596272960305,663.9395565649029,None,,,,,,,,,,,,,,,,,,,,,,,,,,,,,,,,,47,001,2023_Mar_08_1129,SpeechDraft1Carolyn_lessNoise_PlusLocalization,2021.2.3,59.905239399415535,
clothe.wav,clothe.mpg,clothe,5,A,Pink_Noise_5_1.wav,Pink_Noise_5_2.wav,,,,,,,,,,,,,,,0,104,104,50,,,,,,,,,,,,,,,,,,,,,,,666.6227990898769,None,668.1724640878383,None,669.5563576049171,None,"prove
",669.5563576049171,None,return,1.5187010141089559,669.6393815518823,None,,,,,,,,,,,,,,,,,,,,,,,,,,,,,,,,,47,001,2023_Mar_08_1129,SpeechDraft1Carolyn_lessNoise_PlusLocalization,2021.2.3,59.905239399415535,
catch.wav,catch.mpg,catch,6,AV,Pink_Noise_6_1.wav,Pink_Noise_6_2.wav,,,,,,,,,,,,,,,0,105,105,109,,,,,,,,,,,,,,,,,,,,,,,671.1894040368497,None,672.7058374728076,None,674.0894321708474,None,lash,674.0894321708474,None,return,1.857347414130345,674.1728588507976,None,,,,,,,,,,,,,,,,,,,,,,,,,,,,,,,,,47,001,2023_Mar_08_1129,SpeechDraft1Carolyn_lessNoise_PlusLocalization,2021.2.3,59.905239399415535,
fence.wav,fence.mpg,fence,5,AV,Pink_Noise_5_1.wav,Pink_Noise_5_2.wav,,,,,,,,,,,,,,,0,106,106,113,,,,,,,,,,,,,,,,,,,,,,,676.0562752278056,None,677.7559765300248,None,679.1393028968014,None,fence,679.1393028968014,None,return,1.3834132479969412,679.2227554169949,None,,,,,,,,,,,,,,,,,,,,,,,,,,,,,,,,,47,001,2023_Mar_08_1129,SpeechDraft1Carolyn_lessNoise_PlusLocalization,2021.2.3,59.905239399415535,
cane.wav,cane.mpg,cane,6,AV,Pink_Noise_6_1.wav,Pink_Noise_6_2.wav,,,,,,,,,,,,,,,0,107,107,71,,,,,,,,,,,,,,,,,,,,,,,680.6228345369454,None,682.1395164278802,None,683.5226747367997,None,lay,683.5226747367997,None,return,3.0478247459977865,683.6062582128216,None,,,,,,,,,,,,,,,,,,,,,,,,,,,,,,,,,47,001,2023_Mar_08_1129,SpeechDraft1Carolyn_lessNoise_PlusLocalization,2021.2.3,59.905239399415535,
draw.wav,draw.mpg,draw,4,AV,Pink_Noise_4_1.wav,Pink_Noise_4_2.wav,,,,,,,,,,,,,,,0,108,108,112,,,,,,,,,,,,,,,,,,,,,,,686.6729565470014,None,688.1891708839685,None,689.5726961188484,None,draw,689.5726961188484,None,return,1.0220363659318537,689.656061748974,None,,,,,,,,,,,,,,,,,,,,,,,,,,,,,,,,,47,001,2023_Mar_08_1129,SpeechDraft1Carolyn_lessNoise_PlusLocalization,2021.2.3,59.905239399415535,
build.wav,build.mpg,build,3,AV,Pink_Noise_3_1.wav,Pink_Noise_3_2.wav,,,,,,,,,,,,,,,0,109,109,70,,,,,,,,,,,,,,,,,,,,,,,690.7062070399988,None,692.2226647408679,None,693.6061538108625,None,build,693.6061538108625,None,return,1.3244600298348814,693.6897524299566,None,,,,,,,,,,,,,,,,,,,,,,,,,,,,,,,,,47,001,2023_Mar_08_1129,SpeechDraft1Carolyn_lessNoise_PlusLocalization,2021.2.3,59.905239399415535,
brisk.wav,brisk.mpg,brisk,5,A,Pink_Noise_5_1.wav,Pink_Noise_5_2.wav,,,,,,,,,,,,,,,0,110,110,25,,,,,,,,,,,,,,,,,,,,,,,695.0396453808062,None,696.5559987938032,None,697.939485396957,None,"risk
",697.939485396957,None,return,1.135315754916519,698.0227681079414,None,,,,,,,,,,,,,,,,,,,,,,,,,,,,,,,,,47,001,2023_Mar_08_1129,SpeechDraft1Carolyn_lessNoise_PlusLocalization,2021.2.3,59.905239399415535,
vest.wav,vest.mpg,vest,6,A,Pink_Noise_6_1.wav,Pink_Noise_6_2.wav,,,,,,,,,,,,,,,0,111,111,47,,,,,,,,,,,,,,,,,,,,,,,699.1895966478623,None,700.7391214768868,None,702.1229357849807,None,fact,702.1229357849807,None,return,1.4559520008042455,702.2062667168211,None,,,,,,,,,,,,,,,,,,,,,,,,,,,,,,,,,47,001,2023_Mar_08_1129,SpeechDraft1Carolyn_lessNoise_PlusLocalization,2021.2.3,59.905239399415535,
fond.wav,fond.mpg,fond,4,AV,Pink_Noise_4_1.wav,Pink_Noise_4_2.wav,,,,,,,,,,,,,,,0,112,112,72,,,,,,,,,,,,,,,,,,,,,,,703.6895948229358,None,705.2062616317999,None,706.5896088290028,None,fine,706.5896088290028,None,return,1.0613010150846094,706.6727613077965,None,,,,,,,,,,,,,,,,,,,,,,,,,,,,,,,,,47,001,2023_Mar_08_1129,SpeechDraft1Carolyn_lessNoise_PlusLocalization,2021.2.3,59.905239399415535,
frail.wav,frail.mpg,frail,3,A,Pink_Noise_3_1.wav,Pink_Noise_3_2.wav,,,,,,,,,,,,,,,0,113,113,56,,,,,,,,,,,,,,,,,,,,,,,707.7562235919759,None,709.272533794865,None,710.6560450019315,None,"frail
",710.6560450019315,None,return,1.602506552124396,710.7395919598639,None,,,,,,,,,,,,,,,,,,,,,,,,,,,,,,,,,47,001,2023_Mar_08_1129,SpeechDraft1Carolyn_lessNoise_PlusLocalization,2021.2.3,59.905239399415535,
brow.wav,brow.mpg,brow,3,A,Pink_Noise_3_1.wav,Pink_Noise_3_2.wav,,,,,,,,,,,,,,,0,114,114,36,,,,,,,,,,,,,,,,,,,,,,,712.372987920884,None,713.8893596408889,None,715.2728401129134,None,round,715.2728401129134,None,return,2.8740571490488946,715.3561521309894,None,,,,,,,,,,,,,,,,,,,,,,,,,,,,,,,,,47,001,2023_Mar_08_1129,SpeechDraft1Carolyn_lessNoise_PlusLocalization,2021.2.3,59.905239399415535,
drag.wav,drag.mpg,drag,6,A,Pink_Noise_6_1.wav,Pink_Noise_6_2.wav,,,,,,,,,,,,,,,0,115,115,19,,,,,,,,,,,,,,,,,,,,,,,718.2562316579279,None,719.7726400988176,None,721.1574330439325,None,walk,721.1574330439325,None,return,2.2067003049887717,721.2394887059927,None,,,,,,,,,,,,,,,,,,,,,,,,,,,,,,,,,47,001,2023_Mar_08_1129,SpeechDraft1Carolyn_lessNoise_PlusLocalization,2021.2.3,59.905239399415535,
crust.wav,crust.mpg,crust,6,A,Pink_Noise_6_1.wav,Pink_Noise_6_2.wav,,,,,,,,,,,,,,,0,116,116,35,,,,,,,,,,,,,,,,,,,,,,,723.47300356091,None,724.9893419288564,None,726.3727245349437,None,must,726.3727245349437,None,return,3.125883188098669,726.4562863698229,None,,,,,,,,,,,,,,,,,,,,,,,,,,,,,,,,,47,001,2023_Mar_08_1129,SpeechDraft1Carolyn_lessNoise_PlusLocalization,2021.2.3,59.905239399415535,
snake.wav,snake.mpg,snake,1,AV,Pink_Noise_1_1.wav,Pink_Noise_1_2.wav,,,,,,,,,,,,,,,0,117,117,95,,,,,,,,,,,,,,,,,,,,,,,729.6060961338226,None,731.1225853320211,None,732.5061222508084,None,snake,732.5061222508084,None,return,1.480392131023109,732.5897033249494,None,,,,,,,,,,,,,,,,,,,,,,,,,,,,,,,,,47,001,2023_Mar_08_1129,SpeechDraft1Carolyn_lessNoise_PlusLocalization,2021.2.3,59.905239399415535,
fall.wav,fall.mpg,fall,2,A,Pink_Noise_2_1.wav,Pink_Noise_2_2.wav,,,,,,,,,,,,,,,0,118,118,21,,,,,,,,,,,,,,,,,,,,,,,734.0896214339882,None,735.606167916907,None,736.9894330508541,None,"fall
",736.9894330508541,None,return,1.3171576329041272,737.0729320228565,None,,,,,,,,,,,,,,,,,,,,,,,,,,,,,,,,,47,001,2023_Mar_08_1129,SpeechDraft1Carolyn_lessNoise_PlusLocalization,2021.2.3,59.905239399415535,
ditch.wav,ditch.mpg,ditch,6,A,Pink_Noise_6_1.wav,Pink_Noise_6_2.wav,,,,,,,,,,,,,,,0,119,119,27,,,,,,,,,,,,,,,,,,,,,,,738.4228721268009,None,739.9724225599784,None,741.3396587828174,None,ditch,741.3396587828174,None,return,2.7589959329925478,741.4230745898094,None,,,,,,,,,,,,,,,,,,,,,,,,,,,,,,,,,47,001,2023_Mar_08_1129,SpeechDraft1Carolyn_lessNoise_PlusLocalization,2021.2.3,59.905239399415535,
,,,,,,,,,,,,,,,,,,,,,,,,,,,,,,,,,,,,,,,,,,,,,,,,,,,,,,,,,,,,,,,,,,space,7.059691530885175,744.3063853108324,None,,,,,,,,,,,,,,,,,,,,,,,47,001,2023_Mar_08_1129,SpeechDraft1Carolyn_lessNoise_PlusLocalization,2021.2.3,59.905239399415535,
,,,,,,,,farRight,19.1,4,ch1Sound_localizationTask.wav,19.1,"(1237, 878)","(277,-202)",285,-338,,,,,,,,,0,0,0,6,,,,,,,,,,,,,,,,,,,,,,,,,,,,,,,,,,,,,,,,,,744.3063853108324,None,751.4060567580163,None,752.5231432828587,None,753.4392397128977,None,1.0656084656084657,8.420792085118592,753.4392397128977,None,,,,,,,,,,,47,001,2023_Mar_08_1129,SpeechDraft1Carolyn_lessNoise_PlusLocalization,2021.2.3,59.905239399415535,
,,,,,,,,nearLeft,-6.5,1,ch1Sound_localizationTask.wav,-6.5,"(857, 878)","(-103,-202)",-95,-338,,,,,,,,,0,1,1,2,,,,,,,,,,,,,,,,,,,,,,,,,,,,,,,,,,,,,,,,,,,,761.8730815788731,None,762.9724726008717,None,763.9059732179157,None,1.1037037037037036,1.2329269831534475,763.9059732179157,None,,,,,,,,,,,47,001,2023_Mar_08_1129,SpeechDraft1Carolyn_lessNoise_PlusLocalization,2021.2.3,59.905239399415535,
,,,,,,,,farLeft,-19.1,5,ch1Sound_localizationTask.wav,-19.1,"(667, 878)","(-293,-202)",-285,-338,,,,,,,,,0,2,2,0,,,,,,,,,,,,,,,,,,,,,,,,,,,,,,,,,,,,,,,,,,,,765.1401426699013,None,766.2392187668011,None,767.1726081068628,None,1.0502645502645502,0.7663304491434246,767.1726081068628,None,,,,,,,,,,,47,001,2023_Mar_08_1129,SpeechDraft1Carolyn_lessNoise_PlusLocalization,2021.2.3,59.905239399415535,
,,,,,,,,center,0.0,6,ch1Sound_localizationTask.wav,0.0,"(952, 878)","(-8,-202)",0,-338,,,,,,,,,0,3,3,3,,,,,,,,,,,,,,,,,,,,,,,,,,,,,,,,,,,,,,,,,,,,767.9406498989556,None,769.0391574259847,None,769.9727226179093,None,1.5820105820105819,1.8829182779882103,769.9727226179093,None,,,,,,,,,,,47,001,2023_Mar_08_1129,SpeechDraft1Carolyn_lessNoise_PlusLocalization,2021.2.3,59.905239399415535,
,,,,,,,,center,0.0,6,ch1Sound_localizationTask.wav,0.0,"(952, 878)","(-8,-202)",0,-338,,,,,,,,,0,4,4,3,,,,,,,,,,,,,,,,,,,,,,,,,,,,,,,,,,,,,,,,,,,,771.8570445519872,None,772.9561112918891,None,773.8891191729344,None,1.508994708994709,0.8659627521410584,773.8891191729344,None,,,,,,,,,,,47,001,2023_Mar_08_1129,SpeechDraft1Carolyn_lessNoise_PlusLocalization,2021.2.3,59.905239399415535,
,,,,,,,,nearRight,6.5,0,ch1Sound_localizationTask.wav,6.5,"(1047, 878)","(87, -202)",95,-338,,,,,,,,,0,5,5,4,,,,,,,,,,,,,,,,,,,,,,,,,,,,,,,,,,,,,,,,,,,,774.756859799847,None,775.8560893449467,None,776.7893002748024,None,1.6179894179894179,0.6003192770294845,776.7893002748024,None,,,,,,,,,,,47,001,2023_Mar_08_1129,SpeechDraft1Carolyn_lessNoise_PlusLocalization,2021.2.3,59.905239399415535,
,,,,,,,,nearLeft,-6.5,1,ch1Sound_localizationTask.wav,-6.5,"(857, 878)","(-103,-202)",-95,-338,,,,,,,,,0,6,6,2,,,,,,,,,,,,,,,,,,,,,,,,,,,,,,,,,,,,,,,,,,,,777.4061302959453,None,778.5062411879189,None,779.4394379230216,None,1.3105820105820105,3.734450323972851,779.4394379230216,None,,,,,,,,,,,47,001,2023_Mar_08_1129,SpeechDraft1Carolyn_lessNoise_PlusLocalization,2021.2.3,59.905239399415535,
,,,,,,,,midRight,13.0,3,ch1Sound_localizationTask.wav,13.0,"(1142, 878)","(182, -202)",190,-338,,,,,,,,,1,0,7,5,,,,,,,,,,,,,,,,,,,,,,,,,,,,,,,,,,,,,,,,,,,,783.1897290258203,None,784.2895717700012,None,785.2227172448765,None,1.601058201058201,0.7333607887849212,785.2227172448765,None,,,,,,,,,,,47,001,2023_Mar_08_1129,SpeechDraft1Carolyn_lessNoise_PlusLocalization,2021.2.3,59.905239399415535,
,,,,,,,,midRight,13.0,3,ch1Sound_localizationTask.wav,13.0,"(1142, 878)","(182, -202)",190,-338,,,,,,,,,1,1,8,5,,,,,,,,,,,,,,,,,,,,,,,,,,,,,,,,,,,,,,,,,,,,785.956627456937,None,787.0560094199609,None,787.9891848119441,None,1.6386243386243386,0.5829140639398247,787.9891848119441,None,,,,,,,,,,,47,001,2023_Mar_08_1129,SpeechDraft1Carolyn_lessNoise_PlusLocalization,2021.2.3,59.905239399415535,
,,,,,,,,midLeft,-13.0,2,ch1Sound_localizationTask.wav,-13.0,"(762, 878)","(-198,-202)",-190,-338,,,,,,,,,1,2,9,1,,,,,,,,,,,,,,,,,,,,,,,,,,,,,,,,,,,,,,,,,,,,788.5734009388834,None,789.6727086238097,None,790.606024893932,None,1.2433862433862433,0.8003938619513065,790.606024893932,None,,,,,,,,,,,47,001,2023_Mar_08_1129,SpeechDraft1Carolyn_lessNoise_PlusLocalization,2021.2.3,59.905239399415535,
,,,,,,,,farLeft,-19.1,5,ch1Sound_localizationTask.wav,-19.1,"(667, 878)","(-293,-202)",-285,-338,,,,,,,,,1,3,10,0,,,,,,,,,,,,,,,,,,,,,,,,,,,,,,,,,,,,,,,,,,,,791.4231544528157,None,792.5226872668136,None,793.4561557560228,None,1.1703703703703705,0.530165835050866,793.4561557560228,None,,,,,,,,,,,47,001,2023_Mar_08_1129,SpeechDraft1Carolyn_lessNoise_PlusLocalization,2021.2.3,59.905239399415535,
,,,,,,,,nearLeft,-6.5,1,ch1Sound_localizationTask.wav,-6.5,"(857, 878)","(-103,-202)",-95,-338,,,,,,,,,1,4,11,2,,,,,,,,,,,,,,,,,,,,,,,,,,,,,,,,,,,,,,,,,,,,793.9899712370243,None,795.0893692309037,None,796.0229262148496,None,1.4772486772486773,0.7512776418589056,796.0229262148496,None,,,,,,,,,,,47,001,2023_Mar_08_1129,SpeechDraft1Carolyn_lessNoise_PlusLocalization,2021.2.3,59.905239399415535,
,,,,,,,,farRight,19.1,4,ch1Sound_localizationTask.wav,19.1,"(1237, 878)","(277,-202)",285,-338,,,,,,,,,1,5,12,6,,,,,,,,,,,,,,,,,,,,,,,,,,,,,,,,,,,,,,,,,,,,796.789684335934,None,797.8895094108302,None,798.8224861298222,None,1.7275132275132274,0.6328313089907169,798.8224861298222,None,,,,,,,,,,,47,001,2023_Mar_08_1129,SpeechDraft1Carolyn_lessNoise_PlusLocalization,2021.2.3,59.905239399415535,
,,,,,,,,nearRight,6.5,0,ch1Sound_localizationTask.wav,6.5,"(1047, 878)","(87, -202)",95,-338,,,,,,,,,1,6,13,4,,,,,,,,,,,,,,,,,,,,,,,,,,,,,,,,,,,,,,,,,,,,799.4563885140233,None,800.5558049858082,None,801.4893814169336,None,1.4984126984126984,0.8497667629271746,801.4893814169336,None,,,,,,,,,,,47,001,2023_Mar_08_1129,SpeechDraft1Carolyn_lessNoise_PlusLocalization,2021.2.3,59.905239399415535,
,,,,,,,,midRight,13.0,3,ch1Sound_localizationTask.wav,13.0,"(1142, 878)","(182, -202)",190,-338,,,,,,,,,2,0,14,5,,,,,,,,,,,,,,,,,,,,,,,,,,,,,,,,,,,,,,,,,,,,802.3400921279099,None,803.439229182899,None,804.3727010409348,None,1.664021164021164,0.5341936009936035,804.3727010409348,None,,,,,,,,,,,47,001,2023_Mar_08_1129,SpeechDraft1Carolyn_lessNoise_PlusLocalization,2021.2.3,59.905239399415535,
,,,,,,,,nearLeft,-6.5,1,ch1Sound_localizationTask.wav,-6.5,"(857, 878)","(-103,-202)",-95,-338,,,,,,,,,2,1,15,2,,,,,,,,,,,,,,,,,,,,,,,,,,,,,,,,,,,,,,,,,,,,804.9229462658986,None,806.0228816349991,None,806.9558191939723,None,1.1481481481481481,0.9010870719794184,806.9558191939723,None,,,,,,,,,,,47,001,2023_Mar_08_1129,SpeechDraft1Carolyn_lessNoise_PlusLocalization,2021.2.3,59.905239399415535,
,,,,,,,,midLeft,-13.0,2,ch1Sound_localizationTask.wav,-13.0,"(762, 878)","(-198,-202)",-190,-338,,,,,,,,,2,2,16,1,,,,,,,,,,,,,,,,,,,,,,,,,,,,,,,,,,,,,,,,,,,,807.8728821238037,None,808.9726802348159,None,809.905981229851,None,1.301058201058201,0.9322197351139039,809.905981229851,None,,,,,,,,,,,47,001,2023_Mar_08_1129,SpeechDraft1Carolyn_lessNoise_PlusLocalization,2021.2.3,59.905239399415535,
,,,,,,,,farRight,19.1,4,ch1Sound_localizationTask.wav,19.1,"(1237, 878)","(277,-202)",285,-338,,,,,,,,,2,3,17,6,,,,,,,,,,,,,,,,,,,,,,,,,,,,,,,,,,,,,,,,,,,,810.8406676619779,None,811.9396136580035,None,812.8729233138729,None,1.624867724867725,0.6826686579734087,812.8729233138729,None,,,,,,,,,,,47,001,2023_Mar_08_1129,SpeechDraft1Carolyn_lessNoise_PlusLocalization,2021.2.3,59.905239399415535,
,,,,,,,,farRight,19.1,4,ch1Sound_localizationTask.wav,19.1,"(1237, 878)","(277,-202)",285,-338,,,,,,,,,2,4,18,6,,,,,,,,,,,,,,,,,,,,,,,,,,,,,,,,,,,,,,,,,,,,813.5569706310052,None,814.6562270789873,None,815.5897497239057,None,1.637037037037037,0.8330307540018111,815.5897497239057,None,,,,,,,,,,,47,001,2023_Mar_08_1129,SpeechDraft1Carolyn_lessNoise_PlusLocalization,2021.2.3,59.905239399415535,
,,,,,,,,farRight,19.1,4,ch1Sound_localizationTask.wav,19.1,"(1237, 878)","(277,-202)",285,-338,,,,,,,,,2,5,19,6,,,,,,,,,,,,,,,,,,,,,,,,,,,,,,,,,,,,,,,,,,,,816.4234032297973,None,817.5229728999548,None,818.4561305029783,None,1.6592592592592592,0.55036655603908,818.4561305029783,None,,,,,,,,,,,47,001,2023_Mar_08_1129,SpeechDraft1Carolyn_lessNoise_PlusLocalization,2021.2.3,59.905239399415535,
,,,,,,,,farRight,19.1,4,ch1Sound_localizationTask.wav,19.1,"(1237, 878)","(277,-202)",285,-338,,,,,,,,,2,6,20,6,,,,,,,,,,,,,,,,,,,,,,,,,,,,,,,,,,,,,,,,,,,,819.0231815699954,None,820.1226984688547,None,821.056082154857,None,1.6587301587301586,1.2162609479855746,821.056082154857,None,,,,,,,,,,,47,001,2023_Mar_08_1129,SpeechDraft1Carolyn_lessNoise_PlusLocalization,2021.2.3,59.905239399415535,
,,,,,,,,center,0.0,6,ch1Sound_localizationTask.wav,0.0,"(952, 878)","(-8,-202)",0,-338,,,,,,,,,3,0,21,3,,,,,,,,,,,,,,,,,,,,,,,,,,,,,,,,,,,,,,,,,,,,822.27301003295,None,823.3729660469107,None,824.3060725620016,None,1.482010582010582,0.584519234020263,824.3060725620016,None,,,,,,,,,,,47,001,2023_Mar_08_1129,SpeechDraft1Carolyn_lessNoise_PlusLocalization,2021.2.3,59.905239399415535,
,,,,,,,,center,0.0,6,ch1Sound_localizationTask.wav,0.0,"(952, 878)","(-8,-202)",0,-338,,,,,,,,,3,1,22,3,,,,,,,,,,,,,,,,,,,,,,,,,,,,,,,,,,,,,,,,,,,,824.906227480853,None,826.0060347078834,None,826.9394204148557,None,1.2634920634920634,0.7993645921815187,826.9394204148557,None,,,,,,,,,,,47,001,2023_Mar_08_1129,SpeechDraft1Carolyn_lessNoise_PlusLocalization,2021.2.3,59.905239399415535,
,,,,,,,,nearLeft,-6.5,1,ch1Sound_localizationTask.wav,-6.5,"(857, 878)","(-103,-202)",-95,-338,,,,,,,,,3,2,23,2,,,,,,,,,,,,,,,,,,,,,,,,,,,,,,,,,,,,,,,,,,,,827.739862825023,None,828.8394406589214,None,829.7727650029119,None,1.271957671957672,0.6332811019383371,829.7727650029119,None,,,,,,,,,,,47,001,2023_Mar_08_1129,SpeechDraft1Carolyn_lessNoise_PlusLocalization,2021.2.3,59.905239399415535,
,,,,,,,,nearRight,6.5,0,ch1Sound_localizationTask.wav,6.5,"(1047, 878)","(87, -202)",95,-338,,,,,,,,,3,3,24,4,,,,,,,,,,,,,,,,,,,,,,,,,,,,,,,,,,,,,,,,,,,,830.4069780018181,None,831.5060983428266,None,832.4396813488565,None,1.271957671957672,0.6335015071090311,832.4396813488565,None,,,,,,,,,,,47,001,2023_Mar_08_1129,SpeechDraft1Carolyn_lessNoise_PlusLocalization,2021.2.3,59.905239399415535,
,,,,,,,,midRight,13.0,3,ch1Sound_localizationTask.wav,13.0,"(1142, 878)","(182, -202)",190,-338,,,,,,,,,3,4,25,5,,,,,,,,,,,,,,,,,,,,,,,,,,,,,,,,,,,,,,,,,,,,833.0736175340135,None,834.1728688618168,None,835.1060969638638,None,1.4835978835978836,1.0822962648235261,835.1060969638638,None,,,,,,,,,,,47,001,2023_Mar_08_1129,SpeechDraft1Carolyn_lessNoise_PlusLocalization,2021.2.3,59.905239399415535,
,,,,,,,,nearRight,6.5,0,ch1Sound_localizationTask.wav,6.5,"(1047, 878)","(87, -202)",95,-338,,,,,,,,,3,5,26,4,,,,,,,,,,,,,,,,,,,,,,,,,,,,,,,,,,,,,,,,,,,,836.1900610399898,None,837.2896305730101,None,838.2228336958215,None,1.4582010582010583,0.5997409119736403,838.2228336958215,None,,,,,,,,,,,47,001,2023_Mar_08_1129,SpeechDraft1Carolyn_lessNoise_PlusLocalization,2021.2.3,59.905239399415535,
,,,,,,,,nearRight,6.5,0,ch1Sound_localizationTask.wav,6.5,"(1047, 878)","(87, -202)",95,-338,,,,,,,,,3,6,27,4,,,,,,,,,,,,,,,,,,,,,,,,,,,,,,,,,,,,,,,,,,,,838.8240169070195,None,839.9226196748205,None,840.8559580589645,None,1.4587301587301587,0.6330586900003254,840.8559580589645,None,,,,,,,,,,,47,001,2023_Mar_08_1129,SpeechDraft1Carolyn_lessNoise_PlusLocalization,2021.2.3,59.905239399415535,
,,,,,,,,center,0.0,6,ch1Sound_localizationTask.wav,0.0,"(952, 878)","(-8,-202)",0,-338,,,,,,,,,4,0,28,3,,,,,,,,,,,,,,,,,,,,,,,,,,,,,,,,,,,,,,,,,,,,841.4900049648713,None,842.5894230178092,None,843.5230380289722,None,1.4587301587301587,0.6829983459319919,843.5230380289722,None,,,,,,,,,,,47,001,2023_Mar_08_1129,SpeechDraft1Carolyn_lessNoise_PlusLocalization,2021.2.3,59.905239399415535,
,,,,,,,,midLeft,-13.0,2,ch1Sound_localizationTask.wav,-13.0,"(762, 878)","(-198,-202)",-190,-338,,,,,,,,,4,1,29,1,,,,,,,,,,,,,,,,,,,,,,,,,,,,,,,,,,,,,,,,,,,,844.2065919998568,None,845.3062650749926,None,846.2393352969084,None,1.2984126984126985,0.7333937301300466,846.2393352969084,None,,,,,,,,,,,47,001,2023_Mar_08_1129,SpeechDraft1Carolyn_lessNoise_PlusLocalization,2021.2.3,59.905239399415535,
,,,,,,,,farLeft,-19.1,5,ch1Sound_localizationTask.wav,-19.1,"(667, 878)","(-293,-202)",-285,-338,,,,,,,,,4,2,30,0,,,,,,,,,,,,,,,,,,,,,,,,,,,,,,,,,,,,,,,,,,,,846.9735301409382,None,848.0726123538334,None,849.0061058069114,None,1.3021164021164022,0.5826606799382716,849.0061058069114,None,,,,,,,,,,,47,001,2023_Mar_08_1129,SpeechDraft1Carolyn_lessNoise_PlusLocalization,2021.2.3,59.905239399415535,
,,,,,,,,midLeft,-13.0,2,ch1Sound_localizationTask.wav,-13.0,"(762, 878)","(-198,-202)",-190,-338,,,,,,,,,4,3,31,1,,,,,,,,,,,,,,,,,,,,,,,,,,,,,,,,,,,,,,,,,,,,849.5902350419201,None,850.6894215359353,None,851.6228174278513,None,1.2486772486772486,0.6658656438812613,851.6228174278513,None,,,,,,,,,,,47,001,2023_Mar_08_1129,SpeechDraft1Carolyn_lessNoise_PlusLocalization,2021.2.3,59.905239399415535,
,,,,,,,,farLeft,-19.1,5,ch1Sound_localizationTask.wav,-19.1,"(667, 878)","(-293,-202)",-285,-338,,,,,,,,,4,4,32,0,,,,,,,,,,,,,,,,,,,,,,,,,,,,,,,,,,,,,,,,,,,,852.2904962189496,None,853.38943069987,None,854.3228252949193,None,1.2497354497354498,0.4346503051929176,854.3228252949193,None,,,,,,,,,,,47,001,2023_Mar_08_1129,SpeechDraft1Carolyn_lessNoise_PlusLocalization,2021.2.3,59.905239399415535,
,,,,,,,,midLeft,-13.0,2,ch1Sound_localizationTask.wav,-13.0,"(762, 878)","(-198,-202)",-190,-338,,,,,,,,,4,5,33,1,,,,,,,,,,,,,,,,,,,,,,,,,,,,,,,,,,,,,,,,,,,,854.7731294028927,None,855.8727715739515,None,856.8059822448995,None,1.2486772486772486,0.48339918884448707,856.8059822448995,None,,,,,,,,,,,47,001,2023_Mar_08_1129,SpeechDraft1Carolyn_lessNoise_PlusLocalization,2021.2.3,59.905239399415535,
,,,,,,,,nearLeft,-6.5,1,ch1Sound_localizationTask.wav,-6.5,"(857, 878)","(-103,-202)",-95,-338,,,,,,,,,4,6,34,2,,,,,,,,,,,,,,,,,,,,,,,,,,,,,,,,,,,,,,,,,,,,857.2907561289612,None,858.40599685302,None,859.3228963098954,None,1.2486772486772486,0.38251714198850095,859.3228963098954,None,,,,,,,,,,,47,001,2023_Mar_08_1129,SpeechDraft1Carolyn_lessNoise_PlusLocalization,2021.2.3,59.905239399415535,
,,,,,,,,midRight,13.0,3,ch1Sound_localizationTask.wav,13.0,"(1142, 878)","(182, -202)",190,-338,,,,,,,,,5,0,35,5,,,,,,,,,,,,,,,,,,,,,,,,,,,,,,,,,,,,,,,,,,,,859.7066821479239,None,860.8059642389417,None,861.7396470860112,None,1.4862433862433861,0.8171888140495867,861.7396470860112,None,,,,,,,,,,,47,001,2023_Mar_08_1129,SpeechDraft1Carolyn_lessNoise_PlusLocalization,2021.2.3,59.905239399415535,
,,,,,,,,nearRight,6.5,0,ch1Sound_localizationTask.wav,6.5,"(1047, 878)","(87, -202)",95,-338,,,,,,,,,5,1,36,4,,,,,,,,,,,,,,,,,,,,,,,,,,,,,,,,,,,,,,,,,,,,862.572929658927,None,863.6727207920048,None,864.6058864858933,None,1.4502645502645501,0.5323639919515699,864.6058864858933,None,,,,,,,,,,,47,001,2023_Mar_08_1129,SpeechDraft1Carolyn_lessNoise_PlusLocalization,2021.2.3,59.905239399415535,
,,,,,,,,nearLeft,-6.5,1,ch1Sound_localizationTask.wav,-6.5,"(857, 878)","(-103,-202)",-95,-338,,,,,,,,,5,2,37,2,,,,,,,,,,,,,,,,,,,,,,,,,,,,,,,,,,,,,,,,,,,,865.1397455949336,None,866.2395408998709,None,867.1727056659292,None,1.3037037037037038,0.7503498219884932,867.1727056659292,None,,,,,,,,,,,47,001,2023_Mar_08_1129,SpeechDraft1Carolyn_lessNoise_PlusLocalization,2021.2.3,59.905239399415535,
,,,,,,,,center,0.0,6,ch1Sound_localizationTask.wav,0.0,"(952, 878)","(-8,-202)",0,-338,,,,,,,,,5,3,38,3,,,,,,,,,,,,,,,,,,,,,,,,,,,,,,,,,,,,,,,,,,,,867.9397500958294,None,869.0394914199132,None,869.9728441268671,None,1.4052910052910053,0.932875778991729,869.9728441268671,None,,,,,,,,,,,47,001,2023_Mar_08_1129,SpeechDraft1Carolyn_lessNoise_PlusLocalization,2021.2.3,59.905239399415535,
,,,,,,,,nearRight,6.5,0,ch1Sound_localizationTask.wav,6.5,"(1047, 878)","(87, -202)",95,-338,,,,,,,,,5,4,39,4,,,,,,,,,,,,,,,,,,,,,,,,,,,,,,,,,,,,,,,,,,,,870.9068523228634,None,872.0060666548088,None,872.9395324059296,None,1.6296296296296298,0.6507242079824209,872.9395324059296,None,,,,,,,,,,,47,001,2023_Mar_08_1129,SpeechDraft1Carolyn_lessNoise_PlusLocalization,2021.2.3,59.905239399415535,
,,,,,,,,midLeft,-13.0,2,ch1Sound_localizationTask.wav,-13.0,"(762, 878)","(-198,-202)",-190,-338,,,,,,,,,5,5,40,1,,,,,,,,,,,,,,,,,,,,,,,,,,,,,,,,,,,,,,,,,,,,873.6064459648915,None,874.7060717178974,None,875.6394523249473,None,1.3216931216931216,0.483787550823763,875.6394523249473,None,,,,,,,,,,,47,001,2023_Mar_08_1129,SpeechDraft1Carolyn_lessNoise_PlusLocalization,2021.2.3,59.905239399415535,
,,,,,,,,nearRight,6.5,0,ch1Sound_localizationTask.wav,6.5,"(1047, 878)","(87, -202)",95,-338,,,,,,,,,5,6,41,4,,,,,,,,,,,,,,,,,,,,,,,,,,,,,,,,,,,,,,,,,,,,876.1399246098008,None,877.2393286139704,None,878.1730062989518,None,1.537037037037037,0.782664624042809,878.1730062989518,None,,,,,,,,,,,47,001,2023_Mar_08_1129,SpeechDraft1Carolyn_lessNoise_PlusLocalization,2021.2.3,59.905239399415535,
,,,,,,,,center,0.0,6,ch1Sound_localizationTask.wav,0.0,"(952, 878)","(-8,-202)",0,-338,,,,,,,,,6,0,42,3,,,,,,,,,,,,,,,,,,,,,,,,,,,,,,,,,,,,,,,,,,,,878.9575154909398,None,880.0726817338727,None,880.9892331599258,None,1.3994708994708995,0.45001183985732496,880.9892331599258,None,,,,,,,,,,,47,001,2023_Mar_08_1129,SpeechDraft1Carolyn_lessNoise_PlusLocalization,2021.2.3,59.905239399415535,
,,,,,,,,farLeft,-19.1,5,ch1Sound_localizationTask.wav,-19.1,"(667, 878)","(-293,-202)",-285,-338,,,,,,,,,6,1,43,0,,,,,,,,,,,,,,,,,,,,,,,,,,,,,,,,,,,,,,,,,,,,881.4406271718908,None,882.5393554288894,None,883.4727647518739,None,1.3597883597883598,0.3841454500798136,883.4727647518739,None,,,,,,,,,,,47,001,2023_Mar_08_1129,SpeechDraft1Carolyn_lessNoise_PlusLocalization,2021.2.3,59.905239399415535,
,,,,,,,,center,0.0,6,ch1Sound_localizationTask.wav,0.0,"(952, 878)","(-8,-202)",0,-338,,,,,,,,,6,2,44,3,,,,,,,,,,,,,,,,,,,,,,,,,,,,,,,,,,,,,,,,,,,,883.8731624078937,None,884.972800204996,None,885.9062262889929,None,1.4666666666666668,0.16666969005018473,885.9062262889929,None,,,,,,,,,,,47,001,2023_Mar_08_1129,SpeechDraft1Carolyn_lessNoise_PlusLocalization,2021.2.3,59.905239399415535,
,,,,,,,,midRight,13.0,3,ch1Sound_localizationTask.wav,13.0,"(1142, 878)","(182, -202)",190,-338,,,,,,,,,6,3,45,5,,,,,,,,,,,,,,,,,,,,,,,,,,,,,,,,,,,,,,,,,,,,886.0735251659062,None,887.1730181679595,None,888.1060987720266,None,1.552910052910053,0.3503383230417967,888.1060987720266,None,,,,,,,,,,,47,001,2023_Mar_08_1129,SpeechDraft1Carolyn_lessNoise_PlusLocalization,2021.2.3,59.905239399415535,
,,,,,,,,farRight,19.1,4,ch1Sound_localizationTask.wav,19.1,"(1237, 878)","(277,-202)",285,-338,,,,,,,,,6,4,46,6,,,,,,,,,,,,,,,,,,,,,,,,,,,,,,,,,,,,,,,,,,,,888.473188242875,None,889.572717058938,None,890.5061256987974,None,1.6354497354497355,0.4492435469292104,890.5061256987974,None,,,,,,,,,,,47,001,2023_Mar_08_1129,SpeechDraft1Carolyn_lessNoise_PlusLocalization,2021.2.3,59.905239399415535,
,,,,,,,,midRight,13.0,3,ch1Sound_localizationTask.wav,13.0,"(1142, 878)","(182, -202)",190,-338,,,,,,,,,6,5,47,5,,,,,,,,,,,,,,,,,,,,,,,,,,,,,,,,,,,,,,,,,,,,890.9565742248669,None,892.0560066788457,None,892.9894961249083,None,1.6941798941798942,0.4329839600250125,892.9894961249083,None,,,,,,,,,,,47,001,2023_Mar_08_1129,SpeechDraft1Carolyn_lessNoise_PlusLocalization,2021.2.3,59.905239399415535,
,,,,,,,,nearLeft,-6.5,1,ch1Sound_localizationTask.wav,-6.5,"(857, 878)","(-103,-202)",-95,-338,,,,,,,,,6,6,48,2,,,,,,,,,,,,,,,,,,,,,,,,,,,,,,,,,,,,,,,,,,,,893.4239035479259,None,894.52301884396,None,895.4561703298241,None,1.4015873015873015,1.082782421959564,895.4561703298241,None,,,,,,,,,,,47,001,2023_Mar_08_1129,SpeechDraft1Carolyn_lessNoise_PlusLocalization,2021.2.3,59.905239399415535,
,,,,,,,,midRight,13.0,3,ch1Sound_localizationTask.wav,13.0,"(1142, 878)","(182, -202)",190,-338,,,,,,,,,7,0,49,5,,,,,,,,,,,,,,,,,,,,,,,,,,,,,,,,,,,,,,,,,,,,896.5412312299013,None,897.656210119836,None,898.572875513928,None,1.6195767195767194,0.1680050438735634,898.572875513928,None,,,,,,,,,,,47,001,2023_Mar_08_1129,SpeechDraft1Carolyn_lessNoise_PlusLocalization,2021.2.3,59.905239399415535,
,,,,,,,,farRight,19.1,4,ch1Sound_localizationTask.wav,19.1,"(1237, 878)","(277,-202)",285,-338,,,,,,,,,7,1,50,6,,,,,,,,,,,,,,,,,,,,,,,,,,,,,,,,,,,,,,,,,,,,898.7564095228445,None,899.8562823450193,None,900.789614839945,None,1.646031746031746,0.19997761794365942,900.789614839945,None,,,,,,,,,,,47,001,2023_Mar_08_1129,SpeechDraft1Carolyn_lessNoise_PlusLocalization,2021.2.3,59.905239399415535,
,,,,,,,,farLeft,-19.1,5,ch1Sound_localizationTask.wav,-19.1,"(667, 878)","(-293,-202)",-285,-338,,,,,,,,,7,2,51,0,,,,,,,,,,,,,,,,,,,,,,,,,,,,,,,,,,,,,,,,,,,,900.990788016934,None,902.1063323628623,None,903.022768239025,None,1.3873015873015873,0.5159575641155243,903.022768239025,None,,,,,,,,,,,47,001,2023_Mar_08_1129,SpeechDraft1Carolyn_lessNoise_PlusLocalization,2021.2.3,59.905239399415535,
,,,,,,,,midLeft,-13.0,2,ch1Sound_localizationTask.wav,-13.0,"(762, 878)","(-198,-202)",-190,-338,,,,,,,,,7,3,52,1,,,,,,,,,,,,,,,,,,,,,,,,,,,,,,,,,,,,,,,,,,,,903.5412586529274,None,904.6562460919376,None,905.5727777238935,None,1.319047619047619,0.6167099750600755,905.5727777238935,None,,,,,,,,,,,47,001,2023_Mar_08_1129,SpeechDraft1Carolyn_lessNoise_PlusLocalization,2021.2.3,59.905239399415535,
,,,,,,,,midLeft,-13.0,2,ch1Sound_localizationTask.wav,-13.0,"(762, 878)","(-198,-202)",-190,-338,,,,,,,,,7,4,53,1,,,,,,,,,,,,,,,,,,,,,,,,,,,,,,,,,,,,,,,,,,,,906.1902997419238,None,907.2894621908199,None,908.2227950168308,None,1.1084656084656084,0.14942217897623777,908.2227950168308,None,,,,,,,,,,,47,001,2023_Mar_08_1129,SpeechDraft1Carolyn_lessNoise_PlusLocalization,2021.2.3,59.905239399415535,
,,,,,,,,farLeft,-19.1,5,ch1Sound_localizationTask.wav,-19.1,"(667, 878)","(-293,-202)",-285,-338,,,,,,,,,7,5,54,0,,,,,,,,,,,,,,,,,,,,,,,,,,,,,,,,,,,,,,,,,,,,908.3732407030184,None,909.4728548049461,None,910.4062519848812,None,1.1714285714285715,0.11695556691847742,910.4062519848812,None,,,,,,,,,,,47,001,2023_Mar_08_1129,SpeechDraft1Carolyn_lessNoise_PlusLocalization,2021.2.3,59.905239399415535,
,,,,,,,,farLeft,-19.1,5,ch1Sound_localizationTask.wav,-19.1,"(667, 878)","(-293,-202)",-285,-338,,,,,,,,,7,6,55,0,,,,,,,,,,,,,,,,,,,,,,,,,,,,,,,,,,,,,,,,,,,,910.5239852869418,None,911.6229600058869,None,912.5560908648185,None,1.2396825396825397,0.6684513620566577,912.5560908648185,None,,,,,,,,,,,47,001,2023_Mar_08_1129,SpeechDraft1Carolyn_lessNoise_PlusLocalization,2021.2.3,59.905239399415535,
,,,,,,,,,,,,,,,,,,,,,,,,,,,,,,,,,,,,,,,,,,,,,,,,,,,,,,,,,,,,,,,,,,,,,,,,,,,,,,,,,,space,3.7388025580439717,913.3233093859162,None,,,,,,,47,001,2023_Mar_08_1129,SpeechDraft1Carolyn_lessNoise_PlusLocalization,2021.2.3,59.905239399415535,
,,,,,,,,nearRight,6.5,0,ch1Sound_localizationTask.wav,6.5,"(1047, 878)","(87, -202)",95,-338,,,,,,,,,,,,,0,0,0,4,,,,,,,,,,,,,,,,,,,,,,,,,,,,,,,,,,,,,,,,917.1062067609746,None,,,920.1244593868032,None,1.560846560846561,2.2543017379939556,920.1244593868032,None,,,,,913.3233093859162,None,918.106401209021,None,918.2898145909421,918.306659210939,47,001,2023_Mar_08_1129,SpeechDraft1Carolyn_lessNoise_PlusLocalization,2021.2.3,59.905239399415535,
,,,,,,,,midLeft,-13.0,2,ch1Sound_localizationTask.wav,-13.0,"(762, 878)","(-198,-202)",-190,-338,,,,,,,,,,,,,0,1,1,1,,,,,,,,,,,,,,,,,,,,,,,,,,,,,,,,,,,,,,,,922.4065078159329,None,,,925.4230282600038,None,1.3888888888888888,0.3842171900905669,925.4230282600038,None,,,,,,,923.4067088689189,None,923.58976543881,923.6062948338222,47,001,2023_Mar_08_1129,SpeechDraft1Carolyn_lessNoise_PlusLocalization,2021.2.3,59.905239399415535,
,,,,,,,,midLeft,-13.0,2,ch1Sound_localizationTask.wav,-13.0,"(762, 878)","(-198,-202)",-190,-338,,,,,,,,,,,,,0,2,2,1,,,,,,,,,,,,,,,,,,,,,,,,,,,,,,,,,,,,,,,,925.8232751230244,None,,,928.8395026088692,None,1.3994708994708995,0.4171599061228335,928.8395026088692,None,,,,,,,926.823104784824,None,927.0063829550054,927.022990217898,47,001,2023_Mar_08_1129,SpeechDraft1Carolyn_lessNoise_PlusLocalization,2021.2.3,59.905239399415535,
,,,,,,,,nearLeft,-6.5,1,ch1Sound_localizationTask.wav,-6.5,"(857, 878)","(-103,-202)",-95,-338,,,,,,,,,,,,,0,3,3,2,,,,,,,,,,,,,,,,,,,,,,,,,,,,,,,,,,,,,,,,929.2732753439341,None,,,932.2894126789179,None,1.447089947089947,0.4314847548957914,932.2894126789179,None,,,,,,,930.2733216008637,None,930.4566108519211,930.473210258875,47,001,2023_Mar_08_1129,SpeechDraft1Carolyn_lessNoise_PlusLocalization,2021.2.3,59.905239399415535,
,,,,,,,,center,0.0,6,ch1Sound_localizationTask.wav,0.0,"(952, 878)","(-8,-202)",0,-338,,,,,,,,,,,,,0,4,4,3,,,,,,,,,,,,,,,,,,,,,,,,,,,,,,,,,,,,,,,,932.7232957708184,None,,,935.7395783509128,None,1.4957671957671956,0.3494821209460497,935.7395783509128,None,,,,,,,933.7232345798984,None,933.9064181889407,933.9232485918328,47,001,2023_Mar_08_1129,SpeechDraft1Carolyn_lessNoise_PlusLocalization,2021.2.3,59.905239399415535,
,,,,,,,,nearRight,6.5,0,ch1Sound_localizationTask.wav,6.5,"(1047, 878)","(87, -202)",95,-338,,,,,,,,,,,,,0,5,5,4,,,,,,,,,,,,,,,,,,,,,,,,,,,,,,,,,,,,,,,,936.0904862699099,None,,,939.10634844983,None,1.528042328042328,0.18246145313605666,939.10634844983,None,,,,,,,937.0898372000083,None,937.2731765129138,937.2898964318447,47,001,2023_Mar_08_1129,SpeechDraft1Carolyn_lessNoise_PlusLocalization,2021.2.3,59.905239399415535,
,,,,,,,,farLeft,-19.1,5,ch1Sound_localizationTask.wav,-19.1,"(667, 878)","(-293,-202)",-285,-338,,,,,,,,,,,,,0,6,6,0,,,,,,,,,,,,,,,,,,,,,,,,,,,,,,,,,,,,,,,,939.2901304548141,None,,,942.3064385959879,None,1.3486772486772487,1.3830663138069212,942.3064385959879,None,,,,,,,940.2899510909338,None,940.4733401588164,940.4900821878109,47,001,2023_Mar_08_1129,SpeechDraft1Carolyn_lessNoise_PlusLocalization,2021.2.3,59.905239399415535,
,,,,,,,,nearLeft,-6.5,1,ch1Sound_localizationTask.wav,-6.5,"(857, 878)","(-103,-202)",-95,-338,,,,,,,,,,,,,1,0,7,2,,,,,,,,,,,,,,,,,,,,,,,,,,,,,,,,,,,,,,,,943.7064904149156,None,,,946.7228510309942,None,1.4333333333333333,0.5830676150508225,946.7228510309942,None,,,,,,,944.7065533529967,None,944.8899786379188,944.9066588548012,47,001,2023_Mar_08_1129,SpeechDraft1Carolyn_lessNoise_PlusLocalization,2021.2.3,59.905239399415535,
,,,,,,,,midLeft,-13.0,2,ch1Sound_localizationTask.wav,-13.0,"(762, 878)","(-198,-202)",-190,-338,,,,,,,,,,,,,1,1,8,1,,,,,,,,,,,,,,,,,,,,,,,,,,,,,,,,,,,,,,,,947.3071002438664,None,,,950.3229364498984,None,1.3645502645502645,0.4009604200255126,950.3229364498984,None,,,,,,,948.3066600328311,None,948.4899966418743,948.5067147028167,47,001,2023_Mar_08_1129,SpeechDraft1Carolyn_lessNoise_PlusLocalization,2021.2.3,59.905239399415535,
,,,,,,,,midRight,13.0,3,ch1Sound_localizationTask.wav,13.0,"(1142, 878)","(182, -202)",190,-338,,,,,,,,,,,,,1,2,9,5,,,,,,,,,,,,,,,,,,,,,,,,,,,,,,,,,,,,,,,,950.7399189628195,None,,,953.7562419069,None,1.574074074074074,0.46654244302771986,953.7562419069,None,,,,,,,951.7397153568454,None,951.9232477848418,951.9399822999258,47,001,2023_Mar_08_1129,SpeechDraft1Carolyn_lessNoise_PlusLocalization,2021.2.3,59.905239399415535,
,,,,,,,,midRight,13.0,3,ch1Sound_localizationTask.wav,13.0,"(1142, 878)","(182, -202)",190,-338,,,,,,,,,,,,,1,3,10,5,,,,,,,,,,,,,,,,,,,,,,,,,,,,,,,,,,,,,,,,954.2236764340196,None,,,957.2397108490113,None,1.5878306878306878,0.2658705220092088,957.2397108490113,None,,,,,,,955.2233780538663,None,955.4066681419499,955.4230348938145,47,001,2023_Mar_08_1129,SpeechDraft1Carolyn_lessNoise_PlusLocalization,2021.2.3,59.905239399415535,
,,,,,,,,nearLeft,-6.5,1,ch1Sound_localizationTask.wav,-6.5,"(857, 878)","(-103,-202)",-95,-338,,,,,,,,,,,,,1,4,11,2,,,,,,,,,,,,,,,,,,,,,,,,,,,,,,,,,,,,,,,,957.5067517629359,None,,,960.5230881629977,None,1.4486772486772486,0.9333190110046417,960.5230881629977,None,,,,,,,958.5066484028939,None,958.6898163468577,958.7064297369216,47,001,2023_Mar_08_1129,SpeechDraft1Carolyn_lessNoise_PlusLocalization,2021.2.3,59.905239399415535,
,,,,,,,,nearRight,6.5,0,ch1Sound_localizationTask.wav,6.5,"(1047, 878)","(87, -202)",95,-338,,,,,,,,,,,,,1,5,12,4,,,,,,,,,,,,,,,,,,,,,,,,,,,,,,,,,,,,,,,,961.457106258953,None,,,964.4728901609778,None,1.546031746031746,0.3663632159586996,964.4728901609778,None,,,,,,,962.4565757988021,None,962.6398693048395,962.6563848259393,47,001,2023_Mar_08_1129,SpeechDraft1Carolyn_lessNoise_PlusLocalization,2021.2.3,59.905239399415535,
,,,,,,,,midRight,13.0,3,ch1Sound_localizationTask.wav,13.0,"(1142, 878)","(182, -202)",190,-338,,,,,,,,,,,,,1,6,13,5,,,,,,,,,,,,,,,,,,,,,,,,,,,,,,,,,,,,,,,,964.8405182398856,None,,,967.8563185569365,None,1.5677248677248676,0.14936962001957,967.8563185569365,None,,,,,,,965.8398021138273,None,966.023174620932,966.0397689759266,47,001,2023_Mar_08_1129,SpeechDraft1Carolyn_lessNoise_PlusLocalization,2021.2.3,59.905239399415535,
,,,,,,,,center,0.0,6,ch1Sound_localizationTask.wav,0.0,"(952, 878)","(-8,-202)",0,-338,,,,,,,,,,,,,2,0,14,3,,,,,,,,,,,,,,,,,,,,,,,,,,,,,,,,,,,,,,,,968.0073264518287,None,,,971.0230299569666,None,1.4925925925925925,0.5331283409614116,971.0230299569666,None,,,,,,,969.0065201728139,None,969.1898951688781,969.2065108579118,47,001,2023_Mar_08_1129,SpeechDraft1Carolyn_lessNoise_PlusLocalization,2021.2.3,59.905239399415535,
,,,,,,,,center,0.0,6,ch1Sound_localizationTask.wav,0.0,"(952, 878)","(-8,-202)",0,-338,,,,,,,,,,,,,2,1,15,3,,,,,,,,,,,,,,,,,,,,,,,,,,,,,,,,,,,,,,,,971.556876039831,None,,,974.5729419719428,None,1.4925925925925925,0.18300783704034984,974.5729419719428,None,,,,,,,972.556393211009,None,972.7400771679822,972.7566860888619,47,001,2023_Mar_08_1129,SpeechDraft1Carolyn_lessNoise_PlusLocalization,2021.2.3,59.905239399415535,
,,,,,,,,midLeft,-13.0,2,ch1Sound_localizationTask.wav,-13.0,"(762, 878)","(-198,-202)",-190,-338,,,,,,,,,,,,,2,2,16,1,,,,,,,,,,,,,,,,,,,,,,,,,,,,,,,,,,,,,,,,974.7568867139053,None,,,977.772789164912,None,1.4084656084656084,0.7829807961825281,977.772789164912,None,,,,,,,975.7565736139659,None,975.9400247398298,975.9564985139295,47,001,2023_Mar_08_1129,SpeechDraft1Carolyn_lessNoise_PlusLocalization,2021.2.3,59.905239399415535,
,,,,,,,,farRight,19.1,4,ch1Sound_localizationTask.wav,19.1,"(1237, 878)","(277,-202)",285,-338,,,,,,,,,,,,,2,3,17,6,,,,,,,,,,,,,,,,,,,,,,,,,,,,,,,,,,,,,,,,978.557660050923,None,,,981.5896441999357,None,1.596825396825397,1.0169475509319454,981.5896441999357,None,,,,,,,979.5733005749062,None,979.7566724808421,979.7733879548032,47,001,2023_Mar_08_1129,SpeechDraft1Carolyn_lessNoise_PlusLocalization,2021.2.3,59.905239399415535,
,,,,,,,,farLeft,-19.1,5,ch1Sound_localizationTask.wav,-19.1,"(667, 878)","(-293,-202)",-285,-338,,,,,,,,,,,,,2,4,18,0,,,,,,,,,,,,,,,,,,,,,,,,,,,,,,,,,,,,,,,,982.6073743968736,None,,,985.6229147668928,None,1.3386243386243386,0.6007543681189418,985.6229147668928,None,,,,,,,983.6065134599339,None,983.7898495718837,983.806476190919,47,001,2023_Mar_08_1129,SpeechDraft1Carolyn_lessNoise_PlusLocalization,2021.2.3,59.905239399415535,
,,,,,,,,farRight,19.1,4,ch1Sound_localizationTask.wav,19.1,"(1237, 878)","(277,-202)",285,-338,,,,,,,,,,,,,2,5,19,6,,,,,,,,,,,,,,,,,,,,,,,,,,,,,,,,,,,,,,,,986.239865281852,None,,,989.2562983930111,None,1.6317460317460317,0.7181551770772785,989.2562983930111,None,,,,,,,987.239869624842,None,987.4231854358222,987.4397107388359,47,001,2023_Mar_08_1129,SpeechDraft1Carolyn_lessNoise_PlusLocalization,2021.2.3,59.905239399415535,
,,,,,,,,farRight,19.1,4,ch1Sound_localizationTask.wav,19.1,"(1237, 878)","(277,-202)",285,-338,,,,,,,,,,,,,2,6,20,6,,,,,,,,,,,,,,,,,,,,,,,,,,,,,,,,,,,,,,,,989.9899627019186,None,,,993.0064606119413,None,1.6386243386243386,1.4167472829576582,993.0064606119413,None,,,,,,,990.989792983979,None,991.1734495488927,991.19008845184,47,001,2023_Mar_08_1129,SpeechDraft1Carolyn_lessNoise_PlusLocalization,2021.2.3,59.905239399415535,
,,,,,,,,nearRight,6.5,0,ch1Sound_localizationTask.wav,6.5,"(1047, 878)","(87, -202)",95,-338,,,,,,,,,,,,,3,0,21,4,,,,,,,,,,,,,,,,,,,,,,,,,,,,,,,,,,,,,,,,994.4398553199135,None,,,997.4560538479127,None,1.5656084656084657,0.8334684430155903,997.4560538479127,None,,,,,,,995.4400325438473,None,995.6231765719131,995.6398098038044,47,001,2023_Mar_08_1129,SpeechDraft1Carolyn_lessNoise_PlusLocalization,2021.2.3,59.905239399415535,
,,,,,,,,farRight,19.1,4,ch1Sound_localizationTask.wav,19.1,"(1237, 878)","(277,-202)",285,-338,,,,,,,,,,,,,3,1,22,6,,,,,,,,,,,,,,,,,,,,,,,,,,,,,,,,,,,,,,,,998.3066995940171,None,,,1001.3233606279828,None,1.6291005291005292,0.3345896538812667,1001.3233606279828,None,,,,,,,999.3067029879894,None,999.4899725408759,999.50676826993,47,001,2023_Mar_08_1129,SpeechDraft1Carolyn_lessNoise_PlusLocalization,2021.2.3,59.905239399415535,
,,,,,,,,farLeft,-19.1,5,ch1Sound_localizationTask.wav,-19.1,"(667, 878)","(-293,-202)",-285,-338,,,,,,,,,,,,,3,2,23,0,,,,,,,,,,,,,,,,,,,,,,,,,,,,,,,,,,,,,,,,1001.6732146500144,None,,,1004.6900104959495,None,1.337037037037037,1.0854498450644314,1004.6900104959495,None,,,,,,,1002.6735637919046,None,1002.8566443140153,1002.8735446468927,47,001,2023_Mar_08_1129,SpeechDraft1Carolyn_lessNoise_PlusLocalization,2021.2.3,59.905239399415535,
,,,,,,,,midLeft,-13.0,2,ch1Sound_localizationTask.wav,-13.0,"(762, 878)","(-198,-202)",-190,-338,,,,,,,,,,,,,3,3,24,1,,,,,,,,,,,,,,,,,,,,,,,,,,,,,,,,,,,,,,,,1005.7900200958829,None,,,1008.8064581789076,None,1.4301587301587302,0.5181547501124442,1008.8064581789076,None,,,,,,,1006.7899589329027,None,1006.9732012259774,1006.9900391069241,47,001,2023_Mar_08_1129,SpeechDraft1Carolyn_lessNoise_PlusLocalization,2021.2.3,59.905239399415535,
,,,,,,,,nearLeft,-6.5,1,ch1Sound_localizationTask.wav,-6.5,"(857, 878)","(-103,-202)",-95,-338,,,,,,,,,,,,,3,4,25,2,,,,,,,,,,,,,,,,,,,,,,,,,,,,,,,,,,,,,,,,1009.3399310000241,None,,,1012.3563747778535,None,1.4306878306878308,0.24962999485433102,1012.3563747778535,None,,,,,,,1010.3400700958446,None,1010.5234744788613,1010.540272278944,47,001,2023_Mar_08_1129,SpeechDraft1Carolyn_lessNoise_PlusLocalization,2021.2.3,59.905239399415535,
,,,,,,,,center,0.0,6,ch1Sound_localizationTask.wav,0.0,"(952, 878)","(-8,-202)",0,-338,,,,,,,,,,,,,3,5,26,3,,,,,,,,,,,,,,,,,,,,,,,,,,,,,,,,,,,,,,,,1012.6074068928137,None,,,1015.6230119178072,None,1.4518518518518517,1.2823662881273776,1015.6230119178072,None,,,,,,,1013.6066792909987,None,1013.7899994240142,1013.8066486688331,47,001,2023_Mar_08_1129,SpeechDraft1Carolyn_lessNoise_PlusLocalization,2021.2.3,59.905239399415535,
,,,,,,,,midLeft,-13.0,2,ch1Sound_localizationTask.wav,-13.0,"(762, 878)","(-198,-202)",-190,-338,,,,,,,,,,,,,3,6,27,1,,,,,,,,,,,,,,,,,,,,,,,,,,,,,,,,,,,,,,,,1016.9066629768349,None,,,1019.9232542468235,None,1.4248677248677248,0.2658888138830662,1019.9232542468235,None,,,,,,,1017.9066810128279,None,1018.0900568529032,1018.1065801859368,47,001,2023_Mar_08_1129,SpeechDraft1Carolyn_lessNoise_PlusLocalization,2021.2.3,59.905239399415535,
,,,,,,,,center,0.0,6,ch1Sound_localizationTask.wav,0.0,"(952, 878)","(-8,-202)",0,-338,,,,,,,,,,,,,4,0,28,3,,,,,,,,,,,,,,,,,,,,,,,,,,,,,,,,,,,,,,,,1020.1905671418644,None,,,1023.2061707579996,None,1.502116402116402,1.0000700568780303,1023.2061707579996,None,,,,,,,1021.1902192938142,None,1021.373222558992,1021.3898624619469,47,001,2023_Mar_08_1129,SpeechDraft1Carolyn_lessNoise_PlusLocalization,2021.2.3,59.905239399415535,
,,,,,,,,farLeft,-19.1,5,ch1Sound_localizationTask.wav,-19.1,"(667, 878)","(-293,-202)",-285,-338,,,,,,,,,,,,,4,1,29,0,,,,,,,,,,,,,,,,,,,,,,,,,,,,,,,,,,,,,,,,1024.2070930108894,None,,,1027.2231953318696,None,1.3571428571428572,0.8496616738848388,1027.2231953318696,None,,,,,,,1025.206818338018,None,1025.3898456268944,1025.4065568158403,47,001,2023_Mar_08_1129,SpeechDraft1Carolyn_lessNoise_PlusLocalization,2021.2.3,59.905239399415535,
,,,,,,,,nearRight,6.5,0,ch1Sound_localizationTask.wav,6.5,"(1047, 878)","(87, -202)",95,-338,,,,,,,,,,,,,4,2,30,4,,,,,,,,,,,,,,,,,,,,,,,,,,,,,,,,,,,,,,,,1028.0739884928335,None,,,1031.089547531912,None,1.5211640211640212,0.7830247341189533,1031.089547531912,None,,,,,,,1029.0733918338083,None,1029.2565381699242,1029.273214155808,47,001,2023_Mar_08_1129,SpeechDraft1Carolyn_lessNoise_PlusLocalization,2021.2.3,59.905239399415535,
,,,,,,,,midRight,13.0,3,ch1Sound_localizationTask.wav,13.0,"(1142, 878)","(182, -202)",190,-338,,,,,,,,,,,,,4,3,31,5,,,,,,,,,,,,,,,,,,,,,,,,,,,,,,,,,,,,,,,,1031.874789482914,None,,,1034.9064360959455,None,1.6068783068783068,0.4833804462105036,1034.9064360959455,None,,,,,,,1032.889839473879,None,1033.073480248917,1033.0900380839594,47,001,2023_Mar_08_1129,SpeechDraft1Carolyn_lessNoise_PlusLocalization,2021.2.3,59.905239399415535,
,,,,,,,,center,0.0,6,ch1Sound_localizationTask.wav,0.0,"(952, 878)","(-8,-202)",0,-338,,,,,,,,,,,,,4,4,32,3,,,,,,,,,,,,,,,,,,,,,,,,,,,,,,,,,,,,,,,,1035.4067784890067,None,,,1038.4229369198438,None,1.5201058201058202,0.7496428010053933,1038.4229369198438,None,,,,,,,1036.4066430288367,None,1036.5901145418175,1036.6066338238306,47,001,2023_Mar_08_1129,SpeechDraft1Carolyn_lessNoise_PlusLocalization,2021.2.3,59.905239399415535,
,,,,,,,,nearLeft,-6.5,1,ch1Sound_localizationTask.wav,-6.5,"(857, 878)","(-103,-202)",-95,-338,,,,,,,,,,,,,4,5,33,2,,,,,,,,,,,,,,,,,,,,,,,,,,,,,,,,,,,,,,,,1039.173654728802,None,,,1042.189521618886,None,1.4523809523809523,0.8329509939067066,1042.189521618886,None,,,,,,,1040.1732748509385,None,1040.356512089027,1040.373248462798,47,001,2023_Mar_08_1129,SpeechDraft1Carolyn_lessNoise_PlusLocalization,2021.2.3,59.905239399415535,
,,,,,,,,farLeft,-19.1,5,ch1Sound_localizationTask.wav,-19.1,"(667, 878)","(-293,-202)",-285,-338,,,,,,,,,,,,,4,6,34,0,,,,,,,,,,,,,,,,,,,,,,,,,,,,,,,,,,,,,,,,1043.0240744878538,None,,,1046.0397375340108,None,1.3529100529100528,0.8489973510149866,1046.0397375340108,None,,,,,,,1044.023380287923,None,1044.2065914589912,1044.223481709836,47,001,2023_Mar_08_1129,SpeechDraft1Carolyn_lessNoise_PlusLocalization,2021.2.3,59.905239399415535,
,,,,,,,,center,0.0,6,ch1Sound_localizationTask.wav,0.0,"(952, 878)","(-8,-202)",0,-338,,,,,,,,,,,,,5,0,35,3,,,,,,,,,,,,,,,,,,,,,,,,,,,,,,,,,,,,,,,,1046.8913548379205,None,,,1049.923414460849,None,1.494179894179894,0.7333588430192322,1049.923414460849,None,,,,,,,1047.9067162659485,None,1048.09021341498,1048.1065595080145,47,001,2023_Mar_08_1129,SpeechDraft1Carolyn_lessNoise_PlusLocalization,2021.2.3,59.905239399415535,
,,,,,,,,nearLeft,-6.5,1,ch1Sound_localizationTask.wav,-6.5,"(857, 878)","(-103,-202)",-95,-338,,,,,,,,,,,,,5,1,36,2,,,,,,,,,,,,,,,,,,,,,,,,,,,,,,,,,,,,,,,,1050.6734984368086,None,,,1053.6897627729923,None,1.4370370370370371,0.8326793818268925,1053.6897627729923,None,,,,,,,1051.6733931519557,None,1051.8568305268418,1051.873351778835,47,001,2023_Mar_08_1129,SpeechDraft1Carolyn_lessNoise_PlusLocalization,2021.2.3,59.905239399415535,
,,,,,,,,nearRight,6.5,0,ch1Sound_localizationTask.wav,6.5,"(1047, 878)","(87, -202)",95,-338,,,,,,,,,,,,,5,2,37,4,,,,,,,,,,,,,,,,,,,,,,,,,,,,,,,,,,,,,,,,1054.5238359498326,None,,,1057.5396950850263,None,1.5322751322751322,0.6339383472222835,1057.5396950850263,None,,,,,,,1055.5232338618953,None,1055.7065833348315,1055.7233584609348,47,001,2023_Mar_08_1129,SpeechDraft1Carolyn_lessNoise_PlusLocalization,2021.2.3,59.905239399415535,
,,,,,,,,farLeft,-19.1,5,ch1Sound_localizationTask.wav,-19.1,"(667, 878)","(-293,-202)",-285,-338,,,,,,,,,,,,,5,3,38,0,,,,,,,,,,,,,,,,,,,,,,,,,,,,,,,,,,,,,,,,1058.1898599078413,None,,,1061.206397033995,None,1.4407407407407407,1.5825088841374964,1061.206397033995,None,,,,,,,1059.1900750948116,None,1059.373416458955,1059.3898395709693,47,001,2023_Mar_08_1129,SpeechDraft1Carolyn_lessNoise_PlusLocalization,2021.2.3,59.905239399415535,
,,,,,,,,midLeft,-13.0,2,ch1Sound_localizationTask.wav,-13.0,"(762, 878)","(-198,-202)",-190,-338,,,,,,,,,,,,,5,4,39,1,,,,,,,,,,,,,,,,,,,,,,,,,,,,,,,,,,,,,,,,1062.7901609069668,None,,,1065.8066582269967,None,1.4174603174603175,1.1989062780048698,1065.8066582269967,None,,,,,,,1063.7898940278683,None,1063.9734688419849,1063.9901114560198,47,001,2023_Mar_08_1129,SpeechDraft1Carolyn_lessNoise_PlusLocalization,2021.2.3,59.905239399415535,
,,,,,,,,farRight,19.1,4,ch1Sound_localizationTask.wav,19.1,"(1237, 878)","(277,-202)",285,-338,,,,,,,,,,,,,5,5,40,6,,,,,,,,,,,,,,,,,,,,,,,,,,,,,,,,,,,,,,,,1067.0074559899513,None,,,1070.0230276889633,None,1.6142857142857143,1.066208636853844,1070.0230276889633,None,,,,,,,1068.0065645829309,None,1068.1897929590195,1068.2066278888378,47,001,2023_Mar_08_1129,SpeechDraft1Carolyn_lessNoise_PlusLocalization,2021.2.3,59.905239399415535,
,,,,,,,,farRight,19.1,4,ch1Sound_localizationTask.wav,19.1,"(1237, 878)","(277,-202)",285,-338,,,,,,,,,,,,,5,6,41,6,,,,,,,,,,,,,,,,,,,,,,,,,,,,,,,,,,,,,,,,1071.0909034749493,None,,,1074.1063325370196,None,1.6444444444444444,1.1502112911548465,1074.1063325370196,None,,,,,,,1072.09033382684,None,1072.2733485680073,1072.2901272508316,47,001,2023_Mar_08_1129,SpeechDraft1Carolyn_lessNoise_PlusLocalization,2021.2.3,59.905239399415535,
,,,,,,,,midRight,13.0,3,ch1Sound_localizationTask.wav,13.0,"(1142, 878)","(182, -202)",190,-338,,,,,,,,,,,,,6,0,42,5,,,,,,,,,,,,,,,,,,,,,,,,,,,,,,,,,,,,,,,,1075.273560069967,None,,,1078.28992500389,None,1.5920634920634922,0.6844123869668692,1078.28992500389,None,,,,,,,1076.273276957916,None,1076.45671092486,1076.4734995448962,47,001,2023_Mar_08_1129,SpeechDraft1Carolyn_lessNoise_PlusLocalization,2021.2.3,59.905239399415535,
,,,,,,,,nearRight,6.5,0,ch1Sound_localizationTask.wav,6.5,"(1047, 878)","(87, -202)",95,-338,,,,,,,,,,,,,6,1,43,4,,,,,,,,,,,,,,,,,,,,,,,,,,,,,,,,,,,,,,,,1078.9902322608978,None,,,1082.0062674509827,None,1.5777777777777777,0.5013752430677414,1082.0062674509827,None,,,,,,,1079.9900469619315,None,1080.1733142088633,1080.1899931628723,47,001,2023_Mar_08_1129,SpeechDraft1Carolyn_lessNoise_PlusLocalization,2021.2.3,59.905239399415535,
,,,,,,,,midRight,13.0,3,ch1Sound_localizationTask.wav,13.0,"(1142, 878)","(182, -202)",190,-338,,,,,,,,,,,,,6,2,44,5,,,,,,,,,,,,,,,,,,,,,,,,,,,,,,,,,,,,,,,,1082.5233097048476,None,,,1085.5399214779027,None,1.5857142857142859,0.8997560450807214,1085.5399214779027,None,,,,,,,1083.5233340619598,None,1083.706670087995,1083.7234235589858,47,001,2023_Mar_08_1129,SpeechDraft1Carolyn_lessNoise_PlusLocalization,2021.2.3,59.905239399415535,
,,,,,,,,farLeft,-19.1,5,ch1Sound_localizationTask.wav,-19.1,"(667, 878)","(-293,-202)",-285,-338,,,,,,,,,,,,,6,3,45,0,,,,,,,,,,,,,,,,,,,,,,,,,,,,,,,,,,,,,,,,1086.440604051808,None,,,1089.4564003429841,None,1.585185185185185,0.6499300189316273,1089.4564003429841,None,,,,,,,1087.4399122768082,None,1087.623565417016,1087.6400469657965,47,001,2023_Mar_08_1129,SpeechDraft1Carolyn_lessNoise_PlusLocalization,2021.2.3,59.905239399415535,
,,,,,,,,midRight,13.0,3,ch1Sound_localizationTask.wav,13.0,"(1142, 878)","(182, -202)",190,-338,,,,,,,,,,,,,6,4,46,5,,,,,,,,,,,,,,,,,,,,,,,,,,,,,,,,,,,,,,,,1090.107528524939,None,,,1093.123170955805,None,1.5820105820105819,0.6665747549850494,1093.123170955805,None,,,,,,,1091.1068361669313,None,1091.2900133228395,1091.3066596270073,47,001,2023_Mar_08_1129,SpeechDraft1Carolyn_lessNoise_PlusLocalization,2021.2.3,59.905239399415535,
,,,,,,,,nearLeft,-6.5,1,ch1Sound_localizationTask.wav,-6.5,"(857, 878)","(-103,-202)",-95,-338,,,,,,,,,,,,,6,5,47,2,,,,,,,,,,,,,,,,,,,,,,,,,,,,,,,,,,,,,,,,1093.8065978738014,None,,,1096.8231231570244,None,1.491005291005291,0.8501027261372656,1096.8231231570244,None,,,,,,,1094.806653664913,None,1094.9899480028544,1095.006658850005,47,001,2023_Mar_08_1129,SpeechDraft1Carolyn_lessNoise_PlusLocalization,2021.2.3,59.905239399415535,
,,,,,,,,farRight,19.1,4,ch1Sound_localizationTask.wav,19.1,"(1237, 878)","(277,-202)",285,-338,,,,,,,,,,,,,6,6,48,6,,,,,,,,,,,,,,,,,,,,,,,,,,,,,,,,,,,,,,,,1097.6899744819384,None,,,1100.706469324883,None,1.6285714285714286,0.9326046940404922,1100.706469324883,None,,,,,,,1098.6902660848573,None,1098.873499313835,1098.890213565901,47,001,2023_Mar_08_1129,SpeechDraft1Carolyn_lessNoise_PlusLocalization,2021.2.3,59.905239399415535,
,,,,,,,,nearLeft,-6.5,1,ch1Sound_localizationTask.wav,-6.5,"(857, 878)","(-103,-202)",-95,-338,,,,,,,,,,,,,7,0,49,2,,,,,,,,,,,,,,,,,,,,,,,,,,,,,,,,,,,,,,,,1101.6411272238474,None,,,1104.6731440429576,None,1.475132275132275,1.1162190549075603,1104.6731440429576,None,,,,,,,1102.6567622188013,None,1102.8402061529923,1102.85674546496,47,001,2023_Mar_08_1129,SpeechDraft1Carolyn_lessNoise_PlusLocalization,2021.2.3,59.905239399415535,
,,,,,,,,midLeft,-13.0,2,ch1Sound_localizationTask.wav,-13.0,"(762, 878)","(-198,-202)",-190,-338,,,,,,,,,,,,,7,1,50,1,,,,,,,,,,,,,,,,,,,,,,,,,,,,,,,,,,,,,,,,1105.7907644058578,None,,,1108.8063698059414,None,1.4142857142857141,0.9000259099993855,1108.8063698059414,None,,,,,,,1106.7900567220058,None,1106.9734399910085,1106.9900244588498,47,001,2023_Mar_08_1129,SpeechDraft1Carolyn_lessNoise_PlusLocalization,2021.2.3,59.905239399415535,
,,,,,,,,farLeft,-19.1,5,ch1Sound_localizationTask.wav,-19.1,"(667, 878)","(-293,-202)",-285,-338,,,,,,,,,,,,,7,2,51,0,,,,,,,,,,,,,,,,,,,,,,,,,,,,,,,,,,,,,,,,1109.7071078899316,None,,,1112.7235452788882,None,1.337037037037037,0.7654822708573192,1112.7235452788882,None,,,,,,,1110.7065565488301,None,1110.8900862080045,1110.9069698939566,47,001,2023_Mar_08_1129,SpeechDraft1Carolyn_lessNoise_PlusLocalization,2021.2.3,59.905239399415535,
,,,,,,,,nearRight,6.5,0,ch1Sound_localizationTask.wav,6.5,"(1047, 878)","(87, -202)",95,-338,,,,,,,,,,,,,7,3,52,4,,,,,,,,,,,,,,,,,,,,,,,,,,,,,,,,,,,,,,,,1113.4907182669267,None,,,1116.5064847599715,None,1.5465608465608467,0.9659234760329127,1116.5064847599715,None,,,,,,,1114.4900008980185,None,1114.6733252899721,1114.6901451298036,47,001,2023_Mar_08_1129,SpeechDraft1Carolyn_lessNoise_PlusLocalization,2021.2.3,59.905239399415535,
,,,,,,,,midRight,13.0,3,ch1Sound_localizationTask.wav,13.0,"(1142, 878)","(182, -202)",190,-338,,,,,,,,,,,,,7,4,53,5,,,,,,,,,,,,,,,,,,,,,,,,,,,,,,,,,,,,,,,,1117.473880810896,None,,,1120.4897173410282,None,1.6148148148148147,0.7662825458683074,1120.4897173410282,None,,,,,,,1118.4734859988093,None,1118.6569002429023,1118.673609255813,47,001,2023_Mar_08_1129,SpeechDraft1Carolyn_lessNoise_PlusLocalization,2021.2.3,59.905239399415535,
,,,,,,,,center,0.0,6,ch1Sound_localizationTask.wav,0.0,"(952, 878)","(-8,-202)",0,-338,,,,,,,,,,,,,7,5,54,3,,,,,,,,,,,,,,,,,,,,,,,,,,,,,,,,,,,,,,,,1121.273500818992,None,,,1124.289827505825,None,1.5121693121693123,0.9470248941797763,1124.289827505825,None,,,,,,,1122.2736610858701,None,1122.456904127961,1122.4734057979658,47,001,2023_Mar_08_1129,SpeechDraft1Carolyn_lessNoise_PlusLocalization,2021.2.3,59.905239399415535,
,,,,,,,,farRight,19.1,4,ch1Sound_localizationTask.wav,19.1,"(1237, 878)","(277,-202)",285,-338,,,,,,,,,,,,,7,6,55,6,,,,,,,,,,,,,,,,,,,,,,,,,,,,,,,,,,,,,,,,1125.2407982018776,None,,,1128.2564259918872,None,1.6216931216931219,0.966662327060476,1128.2564259918872,None,,,,,,,1126.2400447470136,None,1126.4234833749942,1126.4402611439582,47,001,2023_Mar_08_1129,SpeechDraft1Carolyn_lessNoise_PlusLocalization,2021.2.3,59.905239399415535,
