{"meta_data":{"additional_headers":{},"game_name":"Recollect","version":"2.53.01","user_name":"48","organization":"braingamecenter","study":"mpl2_2022_11","session_number":0,"device_id":"74342D95-EE82-45E3-8ADF-48FB3203C5DD"},"data":[{"stage":"Practice","trial":0,"sequence":"6F","letter_input":"F","number_input":"6","is_correct":true,"presentation_start_time":1678315125176.87,"presentation_end_time":1678315128177.59,"response_time":1678315136043.34},{"stage":"Practice","trial":1,"sequence":"G4","letter_input":"G","number_input":"4","is_correct":true,"presentation_start_time":1678315137572.85,"presentation_end_time":1678315140573.53,"response_time":1678315145337.15},{"stage":"Practice","trial":2,"sequence":"3W5","letter_input":"W","number_input":"35","is_correct":true,"presentation_start_time":1678315146869.9,"presentation_end_time":1678315151370.15,"response_time":1678315156833.52},{"stage":"Practice","trial":3,"sequence":"T7L","letter_input":"LT","number_input":"7","is_correct":true,"presentation_start_time":1678315158366.32,"presentation_end_time":1678315162866.4,"response_time":1678315169179.53},{"stage":"Practice","trial":4,"sequence":"9J1","letter_input":"J","number_input":"19","is_correct":true,"presentation_start_time":1678315170712.21,"presentation_end_time":1678315175212.38,"response_time":1678315180809.15},{"stage":"Calibration","trial":0,"sequence":"1J","letter_input":"J","number_input":"1","is_correct":true,"presentation_start_time":1678315195920.79,"presentation_end_time":1678315198921.54,"response_time":1678315203668.43},{"stage":"Calibration","trial":1,"sequence":"G8","letter_input":"G","number_input":"8","is_correct":true,"presentation_start_time":1678315205201.15,"presentation_end_time":1678315208201.88,"response_time":1678315212682.2},{"stage":"Calibration","trial":2,"sequence":"6M1","letter_input":"M","number_input":"16","is_correct":true,"presentation_start_time":1678315214214.96,"presentation_end_time":1678315218715.12,"response_time":1678315222962.28},{"stage":"Calibration","trial":3,"sequence":"Y9B","letter_input":"BY","number_input":"9","is_correct":true,"presentation_start_time":1678315224494.96,"presentation_end_time":1678315228995.13,"response_time":1678315237024.44},{"stage":"Calibration","trial":4,"sequence":"7K2G","letter_input":"GK","number_input":"27","is_correct":true,"presentation_start_time":1678315238557.13,"presentation_end_time":1678315244556.83,"response_time":1678315251603.03},{"stage":"Calibration","trial":5,"sequence":"W5C3","letter_input":"CW","number_input":"35","is_correct":true,"presentation_start_time":1678315253135.76,"presentation_end_time":1678315259135.52,"response_time":1678315267148.05},{"stage":"Calibration","trial":6,"sequence":"1N9K7","letter_input":"KN","number_input":"179","is_correct":true,"presentation_start_time":1678315268680.76,"presentation_end_time":1678315276180,"response_time":1678315288474.62},{"stage":"Calibration","trial":7,"sequence":"H5C3J","letter_input":"CHJ","number_input":"35","is_correct":true,"presentation_start_time":1678315290007.3,"presentation_end_time":1678315297506.59,"response_time":1678315307968.31},{"stage":"Calibration","trial":8,"sequence":"4V1F8D","letter_input":"DFV","number_input":"148","is_correct":true,"presentation_start_time":1678315309501.11,"presentation_end_time":1678315318499.72,"response_time":1678315335292.9},{"stage":"Calibration","trial":9,"sequence":"E6R3P9","letter_input":"EPR","number_input":"369","is_correct":true,"presentation_start_time":1678315336825.58,"presentation_end_time":1678315345824.37,"response_time":1678315358535.5},{"stage":"Calibration","trial":10,"sequence":"7T2N6Y4","letter_input":"NTY","number_input":"2467","is_correct":true,"presentation_start_time":1678315360068.1,"presentation_end_time":1678315370566.37,"response_time":1678315393540.81},{"stage":"Calibration","trial":11,"sequence":"P9G5R1D","letter_input":"DGP","number_input":"159","is_correct":false,"presentation_start_time":1678315395073.55,"presentation_end_time":1678315405571.83,"response_time":1678315425030.72},{"stage":"Calibration","trial":12,"sequence":"3F2S8L7H","letter_input":"FLSV","number_input":"2378","is_correct":false,"presentation_start_time":1678315426563.46,"presentation_end_time":1678315438561.27,"response_time":1678315465084.52},{"stage":"Calibration","trial":13,"sequence":"K9A4Y1P6","letter_input":"DKPL","number_input":"1489","is_correct":false,"presentation_start_time":1678315466617.26,"presentation_end_time":1678315478615.09,"response_time":1678315515535.01}]}