{"meta_data":{"additional_headers":{},"game_name":"Recollect","version":"2.53.01","user_name":"49","organization":"braingamecenter","study":"mpl2_2022_11","session_number":0,"device_id":"74342D95-EE82-45E3-8ADF-48FB3203C5DD"},"data":[{"stage":"Practice","trial":0,"sequence":"6F","letter_input":"F","number_input":"6","is_correct":true,"presentation_start_time":1678390542580.11,"presentation_end_time":1678390545580.81,"response_time":1678390551063.86},{"stage":"Practice","trial":1,"sequence":"G4","letter_input":"G","number_input":"4","is_correct":true,"presentation_start_time":1678390552593.37,"presentation_end_time":1678390555593.88,"response_time":1678390559907.77},{"stage":"Practice","trial":2,"sequence":"3W5","letter_input":"W","number_input":"35","is_correct":true,"presentation_start_time":1678390561440.52,"presentation_end_time":1678390565940.54,"response_time":1678390570937.37},{"stage":"Practice","trial":3,"sequence":"T7L","letter_input":"LT","number_input":"7","is_correct":true,"presentation_start_time":1678390572470.07,"presentation_end_time":1678390576970.21,"response_time":1678390585399.14},{"stage":"Practice","trial":4,"sequence":"9J1","letter_input":"J","number_input":"19","is_correct":true,"presentation_start_time":1678390586931.81,"presentation_end_time":1678390591432.13,"response_time":1678390595595.71},{"stage":"Calibration","trial":0,"sequence":"9V","letter_input":"V","number_input":"9","is_correct":true,"presentation_start_time":1678390605625.57,"presentation_end_time":1678390608626.22,"response_time":1678390611840.24},{"stage":"Calibration","trial":1,"sequence":"S3","letter_input":"S","number_input":"3","is_correct":true,"presentation_start_time":1678390613372.98,"presentation_end_time":1678390616373.59,"response_time":1678390619404.4},{"stage":"Calibration","trial":2,"sequence":"9P6","letter_input":"P","number_input":"69","is_correct":true,"presentation_start_time":1678390620937.06,"presentation_end_time":1678390625437.33,"response_time":1678390628434.69},{"stage":"Calibration","trial":3,"sequence":"N8J","letter_input":"JN","number_input":"8","is_correct":true,"presentation_start_time":1678390629967.35,"presentation_end_time":1678390634467.49,"response_time":1678390641896.82},{"stage":"Calibration","trial":4,"sequence":"7K3H","letter_input":"HK","number_input":"37","is_correct":true,"presentation_start_time":1678390643429.46,"presentation_end_time":1678390649429.1,"response_time":1678390659724.17},{"stage":"Calibration","trial":5,"sequence":"W8E6","letter_input":"EW","number_input":"68","is_correct":true,"presentation_start_time":1678390661256.78,"presentation_end_time":1678390667256.53,"response_time":1678390671336.89},{"stage":"Calibration","trial":6,"sequence":"2R9F5","letter_input":"HR","number_input":"259","is_correct":false,"presentation_start_time":1678390672869.59,"presentation_end_time":1678390680368.76,"response_time":1678390698094.46},{"stage":"Calibration","trial":7,"sequence":"B4Z1E","letter_input":"BEZ","number_input":"14","is_correct":true,"presentation_start_time":1678390699627.22,"presentation_end_time":1678390707126.25,"response_time":1678390716471.66},{"stage":"Calibration","trial":8,"sequence":"7C2T9L","letter_input":"CLT","number_input":"279","is_correct":true,"presentation_start_time":1678390718004.34,"presentation_end_time":1678390727003.09,"response_time":1678390741329.99},{"stage":"Calibration","trial":9,"sequence":"R8K6V3","letter_input":"RTV","number_input":"368","is_correct":false,"presentation_start_time":1678390742862.69,"presentation_end_time":1678390751861.31,"response_time":1678390770020.25},{"stage":"Calibration","trial":10,"sequence":"1D9T7L4","letter_input":"DLT","number_input":"1479","is_correct":true,"presentation_start_time":1678390771553.05,"presentation_end_time":1678390782051.13,"response_time":1678390801642.95},{"stage":"Calibration","trial":11,"sequence":"F2Y8W6J","letter_input":"FJWY","number_input":"248","is_correct":false,"presentation_start_time":1678390803175.69,"presentation_end_time":1678390813673.86,"response_time":1678390830349.96},{"stage":"Calibration","trial":12,"sequence":"7D4Q9M1H","letter_input":"DLYW","number_input":"1479","is_correct":false,"presentation_start_time":1678390831882.6,"presentation_end_time":1678390843880.22,"response_time":1678390868887.04},{"stage":"Calibration","trial":13,"sequence":"Z5N2J8W3","letter_input":"NQWZ","number_input":"2345","is_correct":false,"presentation_start_time":1678390870419.78,"presentation_end_time":1678390882417.23,"response_time":1678390911272.71}]}