{"meta_data":{"additional_headers":{},"game_name":"Recollect","version":"2.53.01","user_name":"4","organization":"braingamecenter","study":"mpl2_2022_11","session_number":0,"device_id":"5D058FBB-ECD0-4D46-BF5F-BB154308C3EF"},"data":[{"stage":"Practice","trial":0,"sequence":"6F","letter_input":"F","number_input":"6","is_correct":true,"presentation_start_time":1675359855695.04,"presentation_end_time":1675359858695.17,"response_time":1675359866894.59},{"stage":"Practice","trial":1,"sequence":"G4","letter_input":"G","number_input":"4","is_correct":true,"presentation_start_time":1675359868424.13,"presentation_end_time":1675359871424.36,"response_time":1675359875688.54},{"stage":"Practice","trial":2,"sequence":"3W5","letter_input":"W","number_input":"35","is_correct":true,"presentation_start_time":1675359877221.21,"presentation_end_time":1675359881721.19,"response_time":1675359886684.9},{"stage":"Practice","trial":3,"sequence":"T7L","letter_input":"TL","number_input":"7","is_correct":false,"presentation_start_time":1675359888217.56,"presentation_end_time":1675359892717.5,"response_time":1675359899080.84},{"stage":"Practice","trial":4,"sequence":"9J1","letter_input":"J","number_input":"91","is_correct":false,"presentation_start_time":1675359902113.17,"presentation_end_time":1675359906612.86,"response_time":1675359911926.64},{"stage":"Calibration","trial":0,"sequence":"4E","letter_input":"E","number_input":"4","is_correct":true,"presentation_start_time":1675359923322.79,"presentation_end_time":1675359926322.95,"response_time":1675359930537.26},{"stage":"Calibration","trial":1,"sequence":"D5","letter_input":"D","number_input":"5","is_correct":true,"presentation_start_time":1675359932069.95,"presentation_end_time":1675359935070.27,"response_time":1675359939600.93},{"stage":"Calibration","trial":2,"sequence":"8H4","letter_input":"H","number_input":"48","is_correct":true,"presentation_start_time":1675359941133.59,"presentation_end_time":1675359945633.5,"response_time":1675359949947.64},{"stage":"Calibration","trial":3,"sequence":"S6N","letter_input":"NS","number_input":"6","is_correct":true,"presentation_start_time":1675359951480.35,"presentation_end_time":1675359955980.14,"response_time":1675359964692.67},{"stage":"Calibration","trial":4,"sequence":"4R1J","letter_input":"JR","number_input":"14","is_correct":true,"presentation_start_time":1675359966225.43,"presentation_end_time":1675359972224.83,"response_time":1675359980054.38},{"stage":"Calibration","trial":5,"sequence":"Q7E2","letter_input":"EQ","number_input":"27","is_correct":true,"presentation_start_time":1675359981587.2,"presentation_end_time":1675359987586.52,"response_time":1675359994766.32},{"stage":"Calibration","trial":6,"sequence":"1H9F4","letter_input":"HF","number_input":"491","is_correct":false,"presentation_start_time":1675359996298.91,"presentation_end_time":1675360003797.86,"response_time":1675360014942.97},{"stage":"Calibration","trial":7,"sequence":"D7Z2V","letter_input":"VZD","number_input":"27","is_correct":false,"presentation_start_time":1675360016475.79,"presentation_end_time":1675360023974.69,"response_time":1675360029404.9}]}