{"meta_data":{"additional_headers":{},"game_name":"Recollect","version":"2.53.01","user_name":"50","organization":"braingamecenter","study":"mpl2_2022_11","session_number":0,"device_id":"74342D95-EE82-45E3-8ADF-48FB3203C5DD"},"data":[{"stage":"Practice","trial":0,"sequence":"6F","letter_input":"F","number_input":"6","is_correct":true,"presentation_start_time":1678473328683.15,"presentation_end_time":1678473331683.88,"response_time":1678473338449.86},{"stage":"Practice","trial":1,"sequence":"G4","letter_input":"G","number_input":"4","is_correct":true,"presentation_start_time":1678473339979.48,"presentation_end_time":1678473342980.24,"response_time":1678473347177.21},{"stage":"Practice","trial":2,"sequence":"3W5","letter_input":"W","number_input":"35","is_correct":true,"presentation_start_time":1678473348709.93,"presentation_end_time":1678473353210.12,"response_time":1678473357657.15},{"stage":"Practice","trial":3,"sequence":"T7L","letter_input":"LT","number_input":"7","is_correct":true,"presentation_start_time":1678473359189.78,"presentation_end_time":1678473363690,"response_time":1678473368386.95},{"stage":"Practice","trial":4,"sequence":"9J1","letter_input":"J","number_input":"19","is_correct":true,"presentation_start_time":1678473369919.64,"presentation_end_time":1678473374419.86,"response_time":1678473378283.65},{"stage":"Calibration","trial":0,"sequence":"B8","letter_input":"B","number_input":"8","is_correct":true,"presentation_start_time":1678473392845.4,"presentation_end_time":1678473395846.05,"response_time":1678473399976.49},{"stage":"Calibration","trial":1,"sequence":"3D","letter_input":"D","number_input":"3","is_correct":true,"presentation_start_time":1678473401509.19,"presentation_end_time":1678473404509.91,"response_time":1678473410223.1},{"stage":"Calibration","trial":2,"sequence":"Y5W","letter_input":"WY","number_input":"5","is_correct":true,"presentation_start_time":1678473411755.83,"presentation_end_time":1678473416256.08,"response_time":1678473422385.78},{"stage":"Calibration","trial":3,"sequence":"8J2","letter_input":"J","number_input":"28","is_correct":true,"presentation_start_time":1678473423918.47,"presentation_end_time":1678473428418.72,"response_time":1678473432499.16},{"stage":"Calibration","trial":4,"sequence":"R7E4","letter_input":"ER","number_input":"47","is_correct":true,"presentation_start_time":1678473434031.84,"presentation_end_time":1678473440031.59,"response_time":1678473451143.09},{"stage":"Calibration","trial":5,"sequence":"8Z5K","letter_input":"KZ","number_input":"58","is_correct":true,"presentation_start_time":1678473452675.72,"presentation_end_time":1678473458675.49,"response_time":1678473464438.69},{"stage":"Calibration","trial":6,"sequence":"Y6F1A","letter_input":"AFY","number_input":"18","is_correct":false,"presentation_start_time":1678473465971.41,"presentation_end_time":1678473473470.5,"response_time":1678473491063.26},{"stage":"Calibration","trial":7,"sequence":"8L4J2","letter_input":"JL","number_input":"248","is_correct":true,"presentation_start_time":1678473492596.02,"presentation_end_time":1678473500095.08,"response_time":1678473505408.54},{"stage":"Calibration","trial":8,"sequence":"E7C1V9","letter_input":"CEV","number_input":"179","is_correct":true,"presentation_start_time":1678473506941.25,"presentation_end_time":1678473515940.01,"response_time":1678473528101.09},{"stage":"Calibration","trial":9,"sequence":"6S4P2M","letter_input":"MPS","number_input":"246","is_correct":true,"presentation_start_time":1678473529633.77,"presentation_end_time":1678473538632.47,"response_time":1678473551526.67},{"stage":"Calibration","trial":10,"sequence":"N7A3L1D","letter_input":"ELV","number_input":"135","is_correct":false,"presentation_start_time":1678473553059.38,"presentation_end_time":1678473563557.69,"response_time":1678473638764.74},{"stage":"Calibration","trial":11,"sequence":"2H9V6P4","letter_input":"HPV","number_input":"2460","is_correct":false,"presentation_start_time":1678473640297.5,"presentation_end_time":1678473650795.66,"response_time":1678473658824.8}]}