{"meta_data":{"additional_headers":{},"game_name":"Recollect","version":"2.53.01","user_name":"51","organization":"braingamecenter","study":"mpl2_2022_11","session_number":0,"device_id":"74342D95-EE82-45E3-8ADF-48FB3203C5DD"},"data":[{"stage":"Practice","trial":0,"sequence":"6F","letter_input":"F","number_input":"6","is_correct":true,"presentation_start_time":1678728991525.32,"presentation_end_time":1678728994526.18,"response_time":1678729001658.77},{"stage":"Practice","trial":1,"sequence":"G4","letter_input":"G","number_input":"4","is_correct":true,"presentation_start_time":1678729003188.36,"presentation_end_time":1678729006189.04,"response_time":1678729010952.61},{"stage":"Practice","trial":2,"sequence":"3W5","letter_input":"W","number_input":"35","is_correct":true,"presentation_start_time":1678729012485.36,"presentation_end_time":1678729016985.74,"response_time":1678729023781.86},{"stage":"Practice","trial":3,"sequence":"T7L","letter_input":"LT","number_input":"7","is_correct":true,"presentation_start_time":1678729025314.6,"presentation_end_time":1678729029814.83,"response_time":1678729035311.5},{"stage":"Practice","trial":4,"sequence":"9J1","letter_input":"J","number_input":"19","is_correct":true,"presentation_start_time":1678729036844.32,"presentation_end_time":1678729041344.48,"response_time":1678729045458.35},{"stage":"Calibration","trial":0,"sequence":"8D","letter_input":"D","number_input":"8","is_correct":true,"presentation_start_time":1678729054538.68,"presentation_end_time":1678729057539.42,"response_time":1678729062069.7},{"stage":"Calibration","trial":1,"sequence":"L5","letter_input":"L","number_input":"5","is_correct":true,"presentation_start_time":1678729063602.37,"presentation_end_time":1678729066603,"response_time":1678729070633.67},{"stage":"Calibration","trial":2,"sequence":"7K2","letter_input":"K","number_input":"27","is_correct":true,"presentation_start_time":1678729072166.4,"presentation_end_time":1678729076666.58,"response_time":1678729081113.62},{"stage":"Calibration","trial":3,"sequence":"N1C","letter_input":"CN","number_input":"1","is_correct":true,"presentation_start_time":1678729082646.38,"presentation_end_time":1678729087146.66,"response_time":1678729091993.54},{"stage":"Calibration","trial":4,"sequence":"6Z3B","letter_input":"BZ","number_input":"36","is_correct":true,"presentation_start_time":1678729093526.24,"presentation_end_time":1678729099526.03,"response_time":1678729106755.48},{"stage":"Calibration","trial":5,"sequence":"Y9Q4","letter_input":"QY","number_input":"49","is_correct":true,"presentation_start_time":1678729108288.21,"presentation_end_time":1678729114288,"response_time":1678729123283.54},{"stage":"Calibration","trial":6,"sequence":"6Z3H1","letter_input":"HZ","number_input":"136","is_correct":true,"presentation_start_time":1678729124816.32,"presentation_end_time":1678729132315.56,"response_time":1678729146792.8},{"stage":"Calibration","trial":7,"sequence":"G7C5Y","letter_input":"CG","number_input":"579","is_correct":false,"presentation_start_time":1678729148325.5,"presentation_end_time":1678729155824.81,"response_time":1678729185896.9},{"stage":"Calibration","trial":8,"sequence":"2J6Z4R","letter_input":"CJ","number_input":"247","is_correct":false,"presentation_start_time":1678729187429.65,"presentation_end_time":1678729196428.44,"response_time":1678729218869.76},{"stage":"Calibration","trial":9,"sequence":"H9Q7L3","letter_input":"HLQ","number_input":"379","is_correct":true,"presentation_start_time":1678729220402.48,"presentation_end_time":1678729229401.44,"response_time":1678729253558.78},{"stage":"Calibration","trial":10,"sequence":"8C6R4E1","letter_input":"CQR","number_input":"1468","is_correct":false,"presentation_start_time":1678729255091.4,"presentation_end_time":1678729265589.8,"response_time":1678729299394.12},{"stage":"Calibration","trial":11,"sequence":"K5B3F7D","letter_input":"DFK","number_input":"357","is_correct":false,"presentation_start_time":1678729300926.88,"presentation_end_time":1678729311425.19,"response_time":1678729354959.81}]}