{"meta_data":{"additional_headers":{},"game_name":"Recollect","version":"2.53.01","user_name":"52","organization":"braingamecenter","study":"mpl2_2022_11","session_number":0,"device_id":"74342D95-EE82-45E3-8ADF-48FB3203C5DD"},"data":[{"stage":"Practice","trial":0,"sequence":"6F","letter_input":"F","number_input":"6","is_correct":true,"presentation_start_time":1678737696837.99,"presentation_end_time":1678737699838.69,"response_time":1678737707887.49},{"stage":"Practice","trial":1,"sequence":"G4","letter_input":"G","number_input":"4","is_correct":true,"presentation_start_time":1678737709417.07,"presentation_end_time":1678737712417.86,"response_time":1678737724578.67},{"stage":"Practice","trial":2,"sequence":"3W5","letter_input":"W","number_input":"3","is_correct":false,"presentation_start_time":1678737726111.36,"presentation_end_time":1678737730611.6,"response_time":1678737736924.4},{"stage":"Practice","trial":3,"sequence":"T7L","letter_input":"TL","number_input":"7","is_correct":false,"presentation_start_time":1678737739956.62,"presentation_end_time":1678737744456.87,"response_time":1678737752985.62},{"stage":"Practice","trial":4,"sequence":"9J1","letter_input":"TJ","number_input":"1","is_correct":false,"presentation_start_time":1678737756017.79,"presentation_end_time":1678737760517.88,"response_time":1678737765164.79},{"stage":"Practice","trial":0,"sequence":"6F","letter_input":"F","number_input":"6","is_correct":true,"presentation_start_time":1678737775644.45,"presentation_end_time":1678737778645.14,"response_time":1678737783725.11},{"stage":"Practice","trial":1,"sequence":"G4","letter_input":"G","number_input":"4","is_correct":true,"presentation_start_time":1678737785257.83,"presentation_end_time":1678737788258.42,"response_time":1678737795071.32},{"stage":"Practice","trial":2,"sequence":"3W5","letter_input":"W","number_input":"35","is_correct":true,"presentation_start_time":1678737796603.94,"presentation_end_time":1678737801102.81,"response_time":1678737806100.81},{"stage":"Practice","trial":3,"sequence":"T7L","letter_input":"TL","number_input":"7","is_correct":false,"presentation_start_time":1678737807633.47,"presentation_end_time":1678737812133.8,"response_time":1678737816480.61},{"stage":"Practice","trial":4,"sequence":"9J1","letter_input":"JL","number_input":"9","is_correct":false,"presentation_start_time":1678737819512.82,"presentation_end_time":1678737824012.94,"response_time":1678737831125.63},{"stage":"Calibration","trial":0,"sequence":"2K","letter_input":"K","number_input":"2","is_correct":true,"presentation_start_time":1678737837256.74,"presentation_end_time":1678737840257.45,"response_time":1678737844287.82},{"stage":"Calibration","trial":1,"sequence":"B3","letter_input":"B","number_input":"3","is_correct":true,"presentation_start_time":1678737845820.52,"presentation_end_time":1678737848821.22,"response_time":1678737853801.13},{"stage":"Calibration","trial":2,"sequence":"7N5","letter_input":"N","number_input":"75","is_correct":false,"presentation_start_time":1678737855333.85,"presentation_end_time":1678737859834.05,"response_time":1678737868162.85},{"stage":"Calibration","trial":3,"sequence":"Y8F","letter_input":"YF","number_input":"8","is_correct":false,"presentation_start_time":1678737869695.67,"presentation_end_time":1678737874195.85,"response_time":1678737880742.03},{"stage":"Calibration","trial":4,"sequence":"5V2T","letter_input":"VT","number_input":"52","is_correct":false,"presentation_start_time":1678737882274.72,"presentation_end_time":1678737888274.3,"response_time":1678737897736.22},{"stage":"Calibration","trial":5,"sequence":"Y6F3","letter_input":"OI","number_input":"56","is_correct":false,"presentation_start_time":1678737899268.87,"presentation_end_time":1678737905268.54,"response_time":1678737910198.56}]}