{"meta_data":{"additional_headers":{},"game_name":"Recollect","version":"2.53.01","user_name":"54","organization":"braingamecenter","study":"mpl2_2022_11","session_number":0,"device_id":"74342D95-EE82-45E3-8ADF-48FB3203C5DD"},"data":[{"stage":"Practice","trial":0,"sequence":"6F","letter_input":"F","number_input":"6","is_correct":true,"presentation_start_time":1678752022237.79,"presentation_end_time":1678752025238.7,"response_time":1678752031321.3},{"stage":"Practice","trial":1,"sequence":"G4","letter_input":"G","number_input":"4","is_correct":true,"presentation_start_time":1678752032850.94,"presentation_end_time":1678752035851.74,"response_time":1678752040998.33},{"stage":"Practice","trial":2,"sequence":"3W5","letter_input":"W","number_input":"35","is_correct":true,"presentation_start_time":1678752042531.04,"presentation_end_time":1678752047031.45,"response_time":1678752052161.36},{"stage":"Practice","trial":3,"sequence":"T7L","letter_input":"LT","number_input":"7","is_correct":true,"presentation_start_time":1678752053694.06,"presentation_end_time":1678752058194.42,"response_time":1678752064990.45},{"stage":"Practice","trial":4,"sequence":"9J1","letter_input":"J","number_input":"19","is_correct":true,"presentation_start_time":1678752066523.18,"presentation_end_time":1678752071023.53,"response_time":1678752074787.27},{"stage":"Calibration","trial":0,"sequence":"4Q","letter_input":"Q","number_input":"4","is_correct":true,"presentation_start_time":1678752085550.21,"presentation_end_time":1678752088551.04,"response_time":1678752093097.9},{"stage":"Calibration","trial":1,"sequence":"G9","letter_input":"G","number_input":"9","is_correct":true,"presentation_start_time":1678752094630.53,"presentation_end_time":1678752097631.38,"response_time":1678752102011.55},{"stage":"Calibration","trial":2,"sequence":"5T1","letter_input":"T","number_input":"15","is_correct":true,"presentation_start_time":1678752103544.29,"presentation_end_time":1678752108044.6,"response_time":1678752112957.96},{"stage":"Calibration","trial":3,"sequence":"Y6K","letter_input":"KY","number_input":"6","is_correct":true,"presentation_start_time":1678752114490.78,"presentation_end_time":1678752118990.98,"response_time":1678752124370.84},{"stage":"Calibration","trial":4,"sequence":"7L2C","letter_input":"CL","number_input":"27","is_correct":true,"presentation_start_time":1678752125903.61,"presentation_end_time":1678752131903.47,"response_time":1678752137299.97},{"stage":"Calibration","trial":5,"sequence":"Q8D4","letter_input":"DQ","number_input":"48","is_correct":true,"presentation_start_time":1678752138832.68,"presentation_end_time":1678752144832.48,"response_time":1678752150412.36},{"stage":"Calibration","trial":6,"sequence":"7R3A9","letter_input":"AR","number_input":"379","is_correct":true,"presentation_start_time":1678752151945.02,"presentation_end_time":1678752159444.26,"response_time":1678752164824.22},{"stage":"Calibration","trial":7,"sequence":"C6V4J","letter_input":"CJV","number_input":"46","is_correct":true,"presentation_start_time":1678752166356.92,"presentation_end_time":1678752173856.18,"response_time":1678752181285.39},{"stage":"Calibration","trial":8,"sequence":"3K1Y9W","letter_input":"KWY","number_input":"139","is_correct":true,"presentation_start_time":1678752182818.11,"presentation_end_time":1678752191816.93,"response_time":1678752204244.53},{"stage":"Calibration","trial":9,"sequence":"S6N2D8","letter_input":"DNS","number_input":"268","is_correct":true,"presentation_start_time":1678752205777.18,"presentation_end_time":1678752214775.95,"response_time":1678752229202.94},{"stage":"Calibration","trial":10,"sequence":"1H7A4W9","letter_input":"AHW","number_input":"1479","is_correct":true,"presentation_start_time":1678752230735.66,"presentation_end_time":1678752241233.96,"response_time":1678752254228.01},{"stage":"Calibration","trial":11,"sequence":"S3B8Q5E","letter_input":"BQS","number_input":"358","is_correct":false,"presentation_start_time":1678752255760.79,"presentation_end_time":1678752266258.89,"response_time":1678752281385.75},{"stage":"Calibration","trial":12,"sequence":"9A4V1H6C","letter_input":"ACHV","number_input":"1469","is_correct":true,"presentation_start_time":1678752282918.42,"presentation_end_time":1678752294916.16,"response_time":1678752303428.51},{"stage":"Calibration","trial":13,"sequence":"S2K7Y5M9","letter_input":"KSHW","number_input":"2579","is_correct":false,"presentation_start_time":1678752304961.19,"presentation_end_time":1678752316958.87,"response_time":1678752333768.45},{"stage":"Calibration","trial":14,"sequence":"4V8B6Z1F7","letter_input":"","number_input":"4678","is_correct":false,"presentation_start_time":1678752335301.14,"presentation_end_time":1678752348798.47,"response_time":1678752365374.67},{"stage":"Calibration","trial":15,"sequence":"W5A3Y9H2D","letter_input":"ADW","number_input":"2359","is_correct":false,"presentation_start_time":1678752366907.31,"presentation_end_time":1678752380404.62,"response_time":1678752395414.74}]}