{"meta_data":{"additional_headers":{},"game_name":"Recollect","version":"2.53.01","user_name":"55","organization":"braingamecenter","study":"mpl2_2022_11","session_number":0,"device_id":"74342D95-EE82-45E3-8ADF-48FB3203C5DD"},"data":[{"stage":"Practice","trial":0,"sequence":"6F","letter_input":"F","number_input":"6","is_correct":true,"presentation_start_time":1678844128540.13,"presentation_end_time":1678844131541.02,"response_time":1678844138806.64},{"stage":"Practice","trial":1,"sequence":"G4","letter_input":"G","number_input":"4","is_correct":true,"presentation_start_time":1678844140336.3,"presentation_end_time":1678844143337.13,"response_time":1678844150749.61},{"stage":"Practice","trial":2,"sequence":"3W5","letter_input":"W","number_input":"35","is_correct":true,"presentation_start_time":1678844152282.39,"presentation_end_time":1678844156782.58,"response_time":1678844163028.97},{"stage":"Practice","trial":3,"sequence":"T7L","letter_input":"LT","number_input":"7","is_correct":true,"presentation_start_time":1678844164561.65,"presentation_end_time":1678844169061.92,"response_time":1678844177290.88},{"stage":"Practice","trial":4,"sequence":"9J1","letter_input":"J","number_input":"19","is_correct":true,"presentation_start_time":1678844178823.57,"presentation_end_time":1678844183323.92,"response_time":1678844188870.38},{"stage":"Calibration","trial":0,"sequence":"R3","letter_input":"R","number_input":"3","is_correct":true,"presentation_start_time":1678844199933.28,"presentation_end_time":1678844202934.09,"response_time":1678844208680.58},{"stage":"Calibration","trial":1,"sequence":"4L","letter_input":"L","number_input":"4","is_correct":true,"presentation_start_time":1678844210213.25,"presentation_end_time":1678844213214.02,"response_time":1678844217644.26},{"stage":"Calibration","trial":2,"sequence":"Y1S","letter_input":"SY","number_input":"1","is_correct":true,"presentation_start_time":1678844219176.95,"presentation_end_time":1678844223677.22,"response_time":1678844237937.54},{"stage":"Calibration","trial":3,"sequence":"7N3","letter_input":"N","number_input":"37","is_correct":true,"presentation_start_time":1678844239470.25,"presentation_end_time":1678844243970.64,"response_time":1678844249767.02},{"stage":"Calibration","trial":4,"sequence":"T8C6","letter_input":"CT","number_input":"68","is_correct":true,"presentation_start_time":1678844251299.71,"presentation_end_time":1678844257299.55,"response_time":1678844264178.91},{"stage":"Calibration","trial":5,"sequence":"5Y2L","letter_input":"LY","number_input":"25","is_correct":true,"presentation_start_time":1678844265711.58,"presentation_end_time":1678844271711.46,"response_time":1678844282272.99},{"stage":"Calibration","trial":6,"sequence":"Q9G7Z","letter_input":"GQY","number_input":"7","is_correct":false,"presentation_start_time":1678844283805.87,"presentation_end_time":1678844291305.03,"response_time":1678844315462},{"stage":"Calibration","trial":7,"sequence":"2V6N4","letter_input":"NV","number_input":"246","is_correct":true,"presentation_start_time":1678844316994.73,"presentation_end_time":1678844324493.93,"response_time":1678844334405.76},{"stage":"Calibration","trial":8,"sequence":"S3H1C8","letter_input":"CHS","number_input":"138","is_correct":true,"presentation_start_time":1678844335938.45,"presentation_end_time":1678844344937.29,"response_time":1678844353765.99},{"stage":"Calibration","trial":9,"sequence":"2P9L4W","letter_input":"LPW","number_input":"249","is_correct":true,"presentation_start_time":1678844355298.72,"presentation_end_time":1678844364297.53,"response_time":1678844371293.55},{"stage":"Calibration","trial":10,"sequence":"S7C3K1H","letter_input":"KS","number_input":"137","is_correct":false,"presentation_start_time":1678844372826.3,"presentation_end_time":1678844383324.67,"response_time":1678844403666.33},{"stage":"Calibration","trial":11,"sequence":"4D2R9F6","letter_input":"DFR","number_input":"2469","is_correct":true,"presentation_start_time":1678844405199.02,"presentation_end_time":1678844415697.3,"response_time":1678844422909.9},{"stage":"Calibration","trial":12,"sequence":"V7L1H5S3","letter_input":"HLSV","number_input":"1357","is_correct":true,"presentation_start_time":1678844424442.61,"presentation_end_time":1678844436440.52,"response_time":1678844448901.49},{"stage":"Calibration","trial":13,"sequence":"2K9B6Y4R","letter_input":"BKR","number_input":"2469","is_correct":false,"presentation_start_time":1678844450434.08,"presentation_end_time":1678844462431.84,"response_time":1678844473526.51},{"stage":"Calibration","trial":14,"sequence":"V1D7A5T3G","letter_input":"DRTV","number_input":"1357","is_correct":false,"presentation_start_time":1678844475059.28,"presentation_end_time":1678844488556.54,"response_time":1678844509931.22},{"stage":"Calibration","trial":15,"sequence":"6J4H9W3E2","letter_input":"HQVW","number_input":"23469","is_correct":false,"presentation_start_time":1678844511463.92,"presentation_end_time":1678844524961.32,"response_time":1678844573776.84}]}