{"meta_data":{"additional_headers":{},"game_name":"Recollect","version":"2.53.01","user_name":"55","organization":"braingamecenter","study":"mpl2_2022_11","session_number":0,"device_id":"74342D95-EE82-45E3-8ADF-48FB3203C5DD"},"data":[{"trial":0,"action":1,"button_pressed":3,"time_out":false,"dwell_time":48.47900390625,"response_time":1678843886605.64},{"trial":0,"action":1,"button_pressed":2,"time_out":false,"dwell_time":48.72802734375,"response_time":1678843887171.58},{"trial":0,"action":9,"button_pressed":-1,"time_out":false,"dwell_time":75.808837890625,"response_time":1678843887798.65},{"trial":1,"action":1,"button_pressed":7,"time_out":false,"dwell_time":48.921875,"response_time":1678843898967.9},{"trial":1,"action":1,"button_pressed":3,"time_out":false,"dwell_time":14.81201171875,"response_time":1678843899517.6},{"trial":1,"action":1,"button_pressed":2,"time_out":false,"dwell_time":48.14306640625,"response_time":1678843900150.75},{"trial":1,"action":9,"button_pressed":-1,"time_out":false,"dwell_time":82.2041015625,"response_time":1678843900833.9},{"trial":2,"action":1,"button_pressed":8,"time_out":false,"dwell_time":65.06494140625,"response_time":1678843913329.35},{"trial":2,"action":1,"button_pressed":1,"time_out":false,"dwell_time":64.416015625,"response_time":1678843913878.48},{"trial":2,"action":1,"button_pressed":3,"time_out":false,"dwell_time":64.31298828125,"response_time":1678843914279},{"trial":2,"action":1,"button_pressed":11,"time_out":false,"dwell_time":64.826171875,"response_time":1678843914778.69},{"trial":2,"action":9,"button_pressed":-1,"time_out":false,"dwell_time":31.949951171875,"response_time":1678843915745.44},{"trial":3,"action":1,"button_pressed":5,"time_out":false,"dwell_time":64.501953125,"response_time":1678843930206.61},{"trial":3,"action":1,"button_pressed":9,"time_out":false,"dwell_time":64.3330078125,"response_time":1678843930706.36},{"trial":3,"action":1,"button_pressed":6,"time_out":false,"dwell_time":64.11376953125,"response_time":1678843931056.64},{"trial":3,"action":1,"button_pressed":8,"time_out":false,"dwell_time":47.120849609375,"response_time":1678843931539.67},{"trial":3,"action":1,"button_pressed":7,"time_out":false,"dwell_time":48.18505859375,"response_time":1678843932156.27},{"trial":3,"action":9,"button_pressed":-1,"time_out":false,"dwell_time":47.7880859375,"response_time":1678843934272.63},{"trial":4,"action":1,"button_pressed":0,"time_out":false,"dwell_time":63.794921875,"response_time":1678843951416.17},{"trial":4,"action":1,"button_pressed":4,"time_out":false,"dwell_time":81.218994140625,"response_time":1678843952065.95},{"trial":4,"action":1,"button_pressed":11,"time_out":false,"dwell_time":64.952880859375,"response_time":1678843953316.15},{"trial":4,"action":1,"button_pressed":3,"time_out":false,"dwell_time":65.224853515625,"response_time":1678843953866.06},{"trial":4,"action":1,"button_pressed":5,"time_out":false,"dwell_time":48.096923828125,"response_time":1678843954448.91},{"trial":4,"action":1,"button_pressed":7,"time_out":false,"dwell_time":47.948974609375,"response_time":1678843955081.86},{"trial":4,"action":9,"button_pressed":-1,"time_out":false,"dwell_time":98.635986328125,"response_time":1678843957298.47},{"trial":5,"action":1,"button_pressed":0,"time_out":false,"dwell_time":63.89697265625,"response_time":1678843977057.94},{"trial":5,"action":1,"button_pressed":5,"time_out":false,"dwell_time":81.659912109375,"response_time":1678843977524.78},{"trial":5,"action":1,"button_pressed":6,"time_out":false,"dwell_time":47.990966796875,"response_time":1678843977991.17},{"trial":5,"action":1,"button_pressed":8,"time_out":false,"dwell_time":66.041015625,"response_time":1678843979490.78},{"trial":5,"action":1,"button_pressed":10,"time_out":false,"dwell_time":47.924072265625,"response_time":1678843979724.56},{"trial":5,"action":1,"button_pressed":2,"time_out":false,"dwell_time":48.201904296875,"response_time":1678843980207.07},{"trial":5,"action":9,"button_pressed":-1,"time_out":false,"dwell_time":66.52001953125,"response_time":1678843981158.34},{"trial":6,"action":1,"button_pressed":11,"time_out":false,"dwell_time":80.652099609375,"response_time":1678844002232.36},{"trial":6,"action":1,"button_pressed":4,"time_out":false,"dwell_time":80.8701171875,"response_time":1678844002999.28},{"trial":6,"action":1,"button_pressed":3,"time_out":false,"dwell_time":64.02392578125,"response_time":1678844003382.27},{"trial":6,"action":1,"button_pressed":10,"time_out":false,"dwell_time":64.193115234375,"response_time":1678844004981.82},{"trial":6,"action":1,"button_pressed":5,"time_out":false,"dwell_time":47.22900390625,"response_time":1678844005765.3},{"trial":6,"action":1,"button_pressed":2,"time_out":false,"dwell_time":80.126220703125,"response_time":1678844006231.48},{"trial":6,"action":1,"button_pressed":1,"time_out":false,"dwell_time":64.489990234375,"response_time":1678844006765.45},{"trial":6,"action":9,"button_pressed":-1,"time_out":false,"dwell_time":98.742919921875,"response_time":1678844007665.34},{"trial":7,"action":1,"button_pressed":11,"time_out":false,"dwell_time":48.093994140625,"response_time":1678844022643.83},{"trial":7,"action":1,"button_pressed":1,"time_out":false,"dwell_time":48.840087890625,"response_time":1678844023026.83},{"trial":7,"action":1,"button_pressed":9,"time_out":false,"dwell_time":47.953125,"response_time":1678844023360.13},{"trial":7,"action":1,"button_pressed":7,"time_out":false,"dwell_time":48.6259765625,"response_time":1678844023676.73},{"trial":7,"action":1,"button_pressed":4,"time_out":false,"dwell_time":64.85400390625,"response_time":1678844024109.36},{"trial":7,"action":9,"button_pressed":-1,"time_out":false,"dwell_time":65.442138671875,"response_time":1678844024659.7},{"trial":8,"action":1,"button_pressed":9,"time_out":false,"dwell_time":64.595947265625,"response_time":1678844041887.3},{"trial":8,"action":1,"button_pressed":1,"time_out":false,"dwell_time":47.881103515625,"response_time":1678844042370.55},{"trial":8,"action":1,"button_pressed":2,"time_out":false,"dwell_time":64.89208984375,"response_time":1678844042936.52},{"trial":8,"action":1,"button_pressed":8,"time_out":false,"dwell_time":64.26513671875,"response_time":1678844043436.57},{"trial":8,"action":1,"button_pressed":6,"time_out":false,"dwell_time":13.724853515625,"response_time":1678844044551.83},{"trial":8,"action":1,"button_pressed":11,"time_out":false,"dwell_time":49.81884765625,"response_time":1678844045169.75},{"trial":8,"action":9,"button_pressed":-1,"time_out":false,"dwell_time":65.462890625,"response_time":1678844046302.7},{"trial":9,"action":1,"button_pressed":10,"time_out":false,"dwell_time":64.305908203125,"response_time":1678844066295.03},{"trial":9,"action":1,"button_pressed":2,"time_out":false,"dwell_time":63.51611328125,"response_time":1678844067344.45},{"trial":9,"action":1,"button_pressed":1,"time_out":false,"dwell_time":48.10693359375,"response_time":1678844069178.5},{"trial":9,"action":1,"button_pressed":7,"time_out":false,"dwell_time":47.102783203125,"response_time":1678844069727.6},{"trial":9,"action":1,"button_pressed":4,"time_out":false,"dwell_time":48.033935546875,"response_time":1678844071827.5},{"trial":9,"action":1,"button_pressed":3,"time_out":false,"dwell_time":63.492919921875,"response_time":1678844072192.94},{"trial":9,"action":9,"button_pressed":-1,"time_out":false,"dwell_time":65.31689453125,"response_time":1678844072843.78},{"trial":10,"action":1,"button_pressed":2,"time_out":false,"dwell_time":64.7880859375,"response_time":1678844092903.49},{"trial":10,"action":1,"button_pressed":6,"time_out":false,"dwell_time":64.6318359375,"response_time":1678844093319.95},{"trial":10,"action":1,"button_pressed":9,"time_out":false,"dwell_time":47.298095703125,"response_time":1678844093586.34},{"trial":10,"action":1,"button_pressed":0,"time_out":false,"dwell_time":47.301025390625,"response_time":1678844094002.8},{"trial":10,"action":1,"button_pressed":10,"time_out":false,"dwell_time":47.326171875,"response_time":1678844094452.82},{"trial":10,"action":1,"button_pressed":7,"time_out":false,"dwell_time":47.640869140625,"response_time":1678844095003.26},{"trial":10,"action":9,"button_pressed":-1,"time_out":false,"dwell_time":98.0771484375,"response_time":1678844095969.71}]}