{"meta_data":{"additional_headers":{},"game_name":"Recollect","version":"2.53.01","user_name":"56","organization":"braingamecenter","study":"mpl2_2022_11","session_number":0,"device_id":"74342D95-EE82-45E3-8ADF-48FB3203C5DD"},"data":[{"stage":"Practice","trial":0,"sequence":"6F","letter_input":"F","number_input":"6","is_correct":true,"presentation_start_time":1678901664351.6,"presentation_end_time":1678901667352.52,"response_time":1678901675634.29},{"stage":"Practice","trial":1,"sequence":"G4","letter_input":"G","number_input":"4","is_correct":true,"presentation_start_time":1678901677163.89,"presentation_end_time":1678901680164.67,"response_time":1678901684478.2},{"stage":"Practice","trial":2,"sequence":"3W5","letter_input":"G","number_input":"35","is_correct":false,"presentation_start_time":1678901686010.96,"presentation_end_time":1678901690511.29,"response_time":1678901693975.06},{"stage":"Practice","trial":3,"sequence":"T7L","letter_input":"TL","number_input":"7","is_correct":false,"presentation_start_time":1678901697007.17,"presentation_end_time":1678901701507.49,"response_time":1678901708370.08},{"stage":"Practice","trial":4,"sequence":"9J1","letter_input":"J","number_input":"9","is_correct":false,"presentation_start_time":1678901711402.25,"presentation_end_time":1678901715902.57,"response_time":1678901724847.88},{"stage":"Practice","trial":0,"sequence":"6F","letter_input":"F","number_input":"6","is_correct":true,"presentation_start_time":1678901742141.88,"presentation_end_time":1678901745142.6,"response_time":1678901749889.29},{"stage":"Practice","trial":1,"sequence":"G4","letter_input":"G","number_input":"4","is_correct":true,"presentation_start_time":1678901751422.04,"presentation_end_time":1678901754422.84,"response_time":1678901757836.84},{"stage":"Practice","trial":2,"sequence":"3W5","letter_input":"W","number_input":"53","is_correct":false,"presentation_start_time":1678901759369.34,"presentation_end_time":1678901763869.68,"response_time":1678901767683.27},{"stage":"Practice","trial":3,"sequence":"T7L","letter_input":"LT","number_input":"7","is_correct":true,"presentation_start_time":1678901770715.48,"presentation_end_time":1678901775215.78,"response_time":1678901783044.7},{"stage":"Practice","trial":4,"sequence":"9J1","letter_input":"J","number_input":"19","is_correct":true,"presentation_start_time":1678901784577.4,"presentation_end_time":1678901789077.75,"response_time":1678901793208.02},{"stage":"Calibration","trial":0,"sequence":"D8","letter_input":"D","number_input":"8","is_correct":true,"presentation_start_time":1678901800988.54,"presentation_end_time":1678901803989.26,"response_time":1678901807353.18},{"stage":"Calibration","trial":1,"sequence":"5Q","letter_input":"Q","number_input":"5","is_correct":true,"presentation_start_time":1678901808885.82,"presentation_end_time":1678901811886.51,"response_time":1678901815900.25},{"stage":"Calibration","trial":2,"sequence":"Y8T","letter_input":"TY","number_input":"8","is_correct":true,"presentation_start_time":1678901817432.95,"presentation_end_time":1678901821933.3,"response_time":1678901825330.34},{"stage":"Calibration","trial":3,"sequence":"9Q5","letter_input":"Q","number_input":"59","is_correct":true,"presentation_start_time":1678901826863.01,"presentation_end_time":1678901831363.38,"response_time":1678901835093.77},{"stage":"Calibration","trial":4,"sequence":"K8D6","letter_input":"DK","number_input":"68","is_correct":true,"presentation_start_time":1678901836626.42,"presentation_end_time":1678901842626.16,"response_time":1678901846889.7},{"stage":"Calibration","trial":5,"sequence":"9P1M","letter_input":"MP","number_input":"19","is_correct":true,"presentation_start_time":1678901848422.43,"presentation_end_time":1678901854422.11,"response_time":1678901858185.85},{"stage":"Calibration","trial":6,"sequence":"H6B2Z","letter_input":"ZBH","number_input":"26","is_correct":false,"presentation_start_time":1678901859718.52,"presentation_end_time":1678901867217.76,"response_time":1678901872397.71},{"stage":"Calibration","trial":7,"sequence":"1R7N3","letter_input":"R","number_input":"371","is_correct":false,"presentation_start_time":1678901873930.5,"presentation_end_time":1678901881429.6,"response_time":1678901903170.61}]}