{"meta_data":{"additional_headers":{},"game_name":"Recollect","version":"2.53.01","user_name":"57","organization":"braingamecenter","study":"mpl2_2022_11","session_number":0,"device_id":"74342D95-EE82-45E3-8ADF-48FB3203C5DD"},"data":[{"stage":"Practice","trial":0,"sequence":"6F","letter_input":"F","number_input":"6","is_correct":true,"presentation_start_time":1678910815846.02,"presentation_end_time":1678910818846.97,"response_time":1678910825261.34},{"stage":"Practice","trial":1,"sequence":"G4","letter_input":"G","number_input":"4","is_correct":true,"presentation_start_time":1678910826792.42,"presentation_end_time":1678910829793.45,"response_time":1678910835173.16},{"stage":"Practice","trial":2,"sequence":"3W5","letter_input":"W","number_input":"35","is_correct":true,"presentation_start_time":1678910836705.91,"presentation_end_time":1678910841206.21,"response_time":1678910847252.55},{"stage":"Practice","trial":3,"sequence":"T7L","letter_input":"LT","number_input":"7","is_correct":true,"presentation_start_time":1678910848785.23,"presentation_end_time":1678910853285.72,"response_time":1678910860248.29},{"stage":"Practice","trial":4,"sequence":"9J1","letter_input":"J","number_input":"19","is_correct":true,"presentation_start_time":1678910861781.05,"presentation_end_time":1678910866281.36,"response_time":1678910870628.19},{"stage":"Calibration","trial":0,"sequence":"Q1","letter_input":"Q","number_input":"1","is_correct":true,"presentation_start_time":1678910878758.74,"presentation_end_time":1678910881759.66,"response_time":1678910885856.64},{"stage":"Calibration","trial":1,"sequence":"4T","letter_input":"T","number_input":"4","is_correct":true,"presentation_start_time":1678910887389.32,"presentation_end_time":1678910890389.93,"response_time":1678910894786.89},{"stage":"Calibration","trial":2,"sequence":"P3E","letter_input":"EP","number_input":"3","is_correct":true,"presentation_start_time":1678910896319.72,"presentation_end_time":1678910900820.07,"response_time":1678910905816.78},{"stage":"Calibration","trial":3,"sequence":"9V4","letter_input":"V","number_input":"49","is_correct":true,"presentation_start_time":1678910907349.46,"presentation_end_time":1678910911849.78,"response_time":1678910916130.03},{"stage":"Calibration","trial":4,"sequence":"H8A3","letter_input":"AH","number_input":"38","is_correct":true,"presentation_start_time":1678910917662.73,"presentation_end_time":1678910923662.61,"response_time":1678910928592.56},{"stage":"Calibration","trial":5,"sequence":"6S1C","letter_input":"CS","number_input":"16","is_correct":true,"presentation_start_time":1678910930125.27,"presentation_end_time":1678910936125.2,"response_time":1678910940422.09},{"stage":"Calibration","trial":6,"sequence":"P7N3D","letter_input":"DNP","number_input":"37","is_correct":true,"presentation_start_time":1678910941954.78,"presentation_end_time":1678910949454.17,"response_time":1678910967596.6},{"stage":"Calibration","trial":7,"sequence":"6W1B8","letter_input":"BW","number_input":"168","is_correct":true,"presentation_start_time":1678910969129.17,"presentation_end_time":1678910976628.59,"response_time":1678910982208.33},{"stage":"Calibration","trial":8,"sequence":"J2H9C4","letter_input":"CHJ","number_input":"249","is_correct":true,"presentation_start_time":1678910983741.13,"presentation_end_time":1678910992740.09,"response_time":1678911005884},{"stage":"Calibration","trial":9,"sequence":"7V3G1D","letter_input":"DGV","number_input":"137","is_correct":true,"presentation_start_time":1678911007416.65,"presentation_end_time":1678911016415.56,"response_time":1678911029526.28},{"stage":"Calibration","trial":10,"sequence":"P9M4J2S","letter_input":"JMPS","number_input":"249","is_correct":true,"presentation_start_time":1678911031058.94,"presentation_end_time":1678911041557.3,"response_time":1678911069463.18},{"stage":"Calibration","trial":11,"sequence":"8Y3Q1H6","letter_input":"HQY","number_input":"1368","is_correct":true,"presentation_start_time":1678911070995.92,"presentation_end_time":1678911081494.22,"response_time":1678911090772.91},{"stage":"Calibration","trial":12,"sequence":"W4G9B2L7","letter_input":"BGLW","number_input":"2479","is_correct":true,"presentation_start_time":1678911092305.72,"presentation_end_time":1678911104303.44,"response_time":1678911116297.89},{"stage":"Calibration","trial":13,"sequence":"6D3Z8V1P","letter_input":"DVWZ","number_input":"1368","is_correct":false,"presentation_start_time":1678911117830.5,"presentation_end_time":1678911129828.43,"response_time":1678911148520.66},{"stage":"Calibration","trial":14,"sequence":"K9C7N4G2A","letter_input":"CK","number_input":"2479","is_correct":false,"presentation_start_time":1678911150053.33,"presentation_end_time":1678911163550.77,"response_time":1678911174045.59},{"stage":"Calibration","trial":15,"sequence":"6S3L8B1Y7","letter_input":"BLSY","number_input":"13678","is_correct":true,"presentation_start_time":1678911175578.27,"presentation_end_time":1678911189075.76,"response_time":1678911238857.77},{"stage":"Calibration","trial":16,"sequence":"Q5G9W2J7E3","letter_input":"LQSW","number_input":"358","is_correct":false,"presentation_start_time":1678911240390.38,"presentation_end_time":1678911255387.36,"response_time":1678911289257.97},{"stage":"Calibration","trial":17,"sequence":"6F4S1N8C2K","letter_input":"CFNS","number_input":"12468","is_correct":false,"presentation_start_time":1678911290790.62,"presentation_end_time":1678911305787.54,"response_time":1678911319198.1}]}