{"meta_data":{"additional_headers":{},"game_name":"Recollect","version":"2.53.01","user_name":"59","organization":"braingamecenter","study":"mpl2_2022_11","session_number":0,"device_id":"74342D95-EE82-45E3-8ADF-48FB3203C5DD"},"data":[{"stage":"Practice","trial":0,"sequence":"6F","letter_input":"F","number_input":"6","is_correct":true,"presentation_start_time":1678932346887.37,"presentation_end_time":1678932349888.35,"response_time":1678932358902.02},{"stage":"Practice","trial":1,"sequence":"G4","letter_input":"G","number_input":"4","is_correct":true,"presentation_start_time":1678932360433.07,"presentation_end_time":1678932363434.16,"response_time":1678932368114.1},{"stage":"Practice","trial":2,"sequence":"3W5","letter_input":"W","number_input":"35","is_correct":true,"presentation_start_time":1678932369646.88,"presentation_end_time":1678932374147.3,"response_time":1678932378943.98},{"stage":"Practice","trial":3,"sequence":"T7L","letter_input":"L","number_input":"37","is_correct":false,"presentation_start_time":1678932380476.68,"presentation_end_time":1678932384977.17,"response_time":1678932391373.4},{"stage":"Practice","trial":4,"sequence":"9J1","letter_input":"J","number_input":"19","is_correct":true,"presentation_start_time":1678932394405.61,"presentation_end_time":1678932398905.95,"response_time":1678932402486.47},{"stage":"Calibration","trial":0,"sequence":"1F","letter_input":"F","number_input":"1","is_correct":true,"presentation_start_time":1678932411616.77,"presentation_end_time":1678932414617.75,"response_time":1678932418631.37},{"stage":"Calibration","trial":1,"sequence":"Y7","letter_input":"Y","number_input":"7","is_correct":true,"presentation_start_time":1678932420164.15,"presentation_end_time":1678932423164.26,"response_time":1678932426862.12},{"stage":"Calibration","trial":2,"sequence":"3G1","letter_input":"G","number_input":"13","is_correct":true,"presentation_start_time":1678932428394.84,"presentation_end_time":1678932432895.27,"response_time":1678932436958.87},{"stage":"Calibration","trial":3,"sequence":"R4D","letter_input":"DR","number_input":"4","is_correct":true,"presentation_start_time":1678932438491.58,"presentation_end_time":1678932442991.97,"response_time":1678932447039.02},{"stage":"Calibration","trial":4,"sequence":"5J1A","letter_input":"AJ","number_input":"15","is_correct":true,"presentation_start_time":1678932448571.7,"presentation_end_time":1678932454571.62,"response_time":1678932461734.31},{"stage":"Calibration","trial":5,"sequence":"Z7E2","letter_input":"EZ","number_input":"27","is_correct":true,"presentation_start_time":1678932463267.05,"presentation_end_time":1678932469266.98,"response_time":1678932475763.22},{"stage":"Calibration","trial":6,"sequence":"8Y5V3","letter_input":"YV","number_input":"358","is_correct":false,"presentation_start_time":1678932477296,"presentation_end_time":1678932484795.35,"response_time":1678932490825.09},{"stage":"Calibration","trial":7,"sequence":"W9G6E","letter_input":"EJ","number_input":"36","is_correct":false,"presentation_start_time":1678932492357.88,"presentation_end_time":1678932499857.24,"response_time":1678932514917.41}]}