Audio_Only_Files,Video_Files,Original_Word_List,noiseLevelCode,conditionCodes,noiseLevelFile1,noiseLevelFile2,InstrTextVar,targetSpeakerName,targetSpeakerEccen,targetSpkrChannel,targetSpkrSound,targetVisualDegrees,visStimLoc,visStimLoc2,visStimW,visStimH,practiceTrials.thisRepN,practiceTrials.thisTrialN,practiceTrials.thisN,practiceTrials.thisIndex,trials.thisRepN,trials.thisTrialN,trials.thisN,trials.thisIndex,audLocalLoop.thisRepN,audLocalLoop.thisTrialN,audLocalLoop.thisN,audLocalLoop.thisIndex,visualLocalLoop.thisRepN,visualLocalLoop.thisTrialN,visualLocalLoop.thisN,visualLocalLoop.thisIndex,letsGoAlready.keys,letsGoAlready.rt,letsGoAlready.started,letsGoAlready.stopped,text_2.started,text_2.stopped,text_3.started,text_3.stopped,key_resp_2.keys,key_resp_2.rt,key_resp_2.started,key_resp_2.stopped,text_5.started,text_5.stopped,fixCross.started,fixCross.stopped,fixCross2.started,fixCross2.stopped,answerPrompt.started,answerPrompt.stopped,getAnswer.text,getAnswer.started,getAnswer.stopped,goToNext.keys,goToNext.rt,goToNext.started,goToNext.stopped,stretchBreakTxrt.started,stretchBreakTxrt.stopped,key_resp_3.keys,key_resp_3.rt,key_resp_3.started,key_resp_3.stopped,letsGoLocal.keys,letsGoLocal.rt,letsGoLocal.started,letsGoLocal.stopped,text_4.started,text_4.stopped,prepFixTxt.started,prepFixTxt.stopped,prepFixTxt_2.started,prepFixTxt_2.stopped,respPromptLocal.started,respPromptLocal.stopped,slider.response,slider.rt,slider.started,slider.stopped,letsGoLocal_2.keys,letsGoLocal_2.rt,letsGoLocal_2.started,letsGoLocal_2.stopped,text_7.started,text_7.stopped,prepFixTxt_3.started,prepFixTxt_3.stopped,grating.started,grating.stopped,participant,session,date,expName,psychopyVersion,frameRate,
,,,,,,,,,,,,,,,,,,,,,,,,,,,,,,,,,space,1.081241172971204,8.671724348096177,None,,,,,,,,,,,,,,,,,,,,,,,,,,,,,,,,,,,,,,,,,,,,,,,,,,,,,,,,59,001,2023_Mar_15_2015,SpeechDraft1Carolyn_lessNoise_PlusLocalization,2021.2.3,59.97357676741839,
,,,,,,,,,,,,,,,,,,,,,,,,,,,,,,,,,,,,,8.671724348096177,None,9.874488965142518,None,space,0.21719523798674345,10.055751945124939,None,,,,,,,,,,,,,,,,,,,,,,,,,,,,,,,,,,,,,,,,,,,,,,,,59,001,2023_Mar_15_2015,SpeechDraft1Carolyn_lessNoise_PlusLocalization,2021.2.3,59.97357676741839,
ash.wav,ash.mpg,ash,1,A,Pink_Noise_1_1.wav,Pink_Noise_1_2.wav,"This is an example of an

AUDIO trial",,,,,,,,,,0,0,0,0,,,,,,,,,,,,,,,,,,,,,,,,,10.321450597140938,None,11.321737847058102,None,13.404550777981058,None,14.788315870100632,None,"ash
",14.788315870100632,None,return,3.017362280981615,14.871595044154674,None,,,,,,,,,,,,,,,,,,,,,,,,,,,,,,,,,59,001,2023_Mar_15_2015,SpeechDraft1Carolyn_lessNoise_PlusLocalization,2021.2.3,59.97357676741839,
ash.wav,ash.mpg,ash,1,AV,Pink_Noise_1_1.wav,Pink_Noise_1_2.wav,"This is an example of an

AUDIO + VIDEO  trial",,,,,,,,,,0,1,1,1,,,,,,,,,,,,,,,,,,,,,,,,,17.93785963812843,None,18.938070158008486,None,20.421172886155546,None,21.80471727112308,None,ash,21.80471727112308,None,return,2.7607940789312124,21.8881348001305,None,,,,,,,,,,,,,,,,,,,,,,,,,,,,,,,,,59,001,2023_Mar_15_2015,SpeechDraft1Carolyn_lessNoise_PlusLocalization,2021.2.3,59.97357676741839,
,,,,,,,,,,,,,,,,,,,,,,,,,,,,,,,,,,,,,,,,,,,,,,,,,,,,,,,,,,,,24.687828510068357,None,space,7.84140642802231,24.87151490501128,None,,,,,,,,,,,,,,,,,,,,,,,,,,,59,001,2023_Mar_15_2015,SpeechDraft1Carolyn_lessNoise_PlusLocalization,2021.2.3,59.97357676741839,
budge.wav,budge.mpg,budge,1,AV,Pink_Noise_1_1.wav,Pink_Noise_1_2.wav,,,,,,,,,,,,,,,0,0,0,69,,,,,,,,,,,,,,,,,,,,,,,32.771264313953,None,34.239138750126585,None,35.62145075108856,None,budge,35.62145075108856,None,return,9.375998470932245,35.70494668814354,None,,,,,,,,,,,,,,,,,,,,,,,,,,,,,,,,,59,001,2023_Mar_15_2015,SpeechDraft1Carolyn_lessNoise_PlusLocalization,2021.2.3,59.97357676741839,
coy.wav,coy.mpg,coy,6,A,Pink_Noise_6_1.wav,Pink_Noise_6_2.wav,,,,,,,,,,,,,,,0,1,1,54,,,,,,,,,,,,,,,,,,,,,,,45.10489429417066,None,46.6044960541185,None,47.98816282697953,None,"bulll
",47.98816282697953,None,return,8.785358123946935,48.071556725073606,None,,,,,,,,,,,,,,,,,,,,,,,,,,,,,,,,,59,001,2023_Mar_15_2015,SpeechDraft1Carolyn_lessNoise_PlusLocalization,2021.2.3,59.97357676741839,
eight.wav,eight.mpg,eight,4,A,Pink_Noise_4_1.wav,Pink_Noise_4_2.wav,,,,,,,,,,,,,,,0,2,2,26,,,,,,,,,,,,,,,,,,,,,,,56.8882103250362,None,58.387820029165596,None,59.771683166967705,None,eight,59.771683166967705,None,return,7.578082818072289,59.85484136897139,None,,,,,,,,,,,,,,,,,,,,,,,,,,,,,,,,,59,001,2023_Mar_15_2015,SpeechDraft1Carolyn_lessNoise_PlusLocalization,2021.2.3,59.97357676741839,
bound.wav,bound.mpg,bound,5,A,Pink_Noise_5_1.wav,Pink_Noise_5_2.wav,,,,,,,,,,,,,,,0,3,3,31,,,,,,,,,,,,,,,,,,,,,,,67.45488290512003,None,68.9546071391087,None,70.33819206105545,None,hole,70.33819206105545,None,return,4.739603049121797,70.42148232413456,None,,,,,,,,,,,,,,,,,,,,,,,,,,,,,,,,,59,001,2023_Mar_15_2015,SpeechDraft1Carolyn_lessNoise_PlusLocalization,2021.2.3,59.97357676741839,
dove.wav,dove.mpg,dove,3,A,Pink_Noise_3_1.wav,Pink_Noise_3_2.wav,,,,,,,,,,,,,,,0,4,4,28,,,,,,,,,,,,,,,,,,,,,,,75.18821065104567,None,76.68777450616471,None,78.07160749612376,None,dot,78.07160749612376,None,return,2.9901269890833646,78.15492579713464,None,,,,,,,,,,,,,,,,,,,,,,,,,,,,,,,,,59,001,2023_Mar_15_2015,SpeechDraft1Carolyn_lessNoise_PlusLocalization,2021.2.3,59.97357676741839,
pledge.wav,pledge.mpg,pledge,1,A,Pink_Noise_1_1.wav,Pink_Noise_1_2.wav,,,,,,,,,,,,,,,0,5,5,7,,,,,,,,,,,,,,,,,,,,,,,81.17152313515544,None,82.65454537910409,None,84.03822675417177,None,ledge,84.03822675417177,None,return,5.527305121999234,84.12159056495875,None,,,,,,,,,,,,,,,,,,,,,,,,,,,,,,,,,59,001,2023_Mar_15_2015,SpeechDraft1Carolyn_lessNoise_PlusLocalization,2021.2.3,59.97357676741839,
rent.wav,rent.mpg,rent,6,A,Pink_Noise_6_1.wav,Pink_Noise_6_2.wav,,,,,,,,,,,,,,,0,6,6,48,,,,,,,,,,,,,,,,,,,,,,,89.67171309911646,None,91.15451412997209,None,92.53821488516405,None,edge,92.53821488516405,None,return,5.371343770995736,92.62159887398593,None,,,,,,,,,,,,,,,,,,,,,,,,,,,,,,,,,59,001,2023_Mar_15_2015,SpeechDraft1Carolyn_lessNoise_PlusLocalization,2021.2.3,59.97357676741839,
dusk.wav,dusk.mpg,dusk,5,AV,Pink_Noise_5_1.wav,Pink_Noise_5_2.wav,,,,,,,,,,,,,,,0,7,7,62,,,,,,,,,,,,,,,,,,,,,,,98.02156439609826,None,99.50458344700746,None,100.88833107496612,None,"duck
",100.88833107496612,None,return,5.701261864975095,100.97167298104614,None,,,,,,,,,,,,,,,,,,,,,,,,,,,,,,,,,59,001,2023_Mar_15_2015,SpeechDraft1Carolyn_lessNoise_PlusLocalization,2021.2.3,59.97357676741839,
flash.wav,flash.mpg,flash,6,AV,Pink_Noise_6_1.wav,Pink_Noise_6_2.wav,,,,,,,,,,,,,,,0,8,8,87,,,,,,,,,,,,,,,,,,,,,,,106.70512007409707,None,108.20460032811388,None,109.58821300207637,None,flash,109.58821300207637,None,return,3.689495902042836,109.67159685306251,None,,,,,,,,,,,,,,,,,,,,,,,,,,,,,,,,,59,001,2023_Mar_15_2015,SpeechDraft1Carolyn_lessNoise_PlusLocalization,2021.2.3,59.97357676741839,
cramp.wav,cramp.mpg,cramp,5,AV,Pink_Noise_5_1.wav,Pink_Noise_5_2.wav,,,,,,,,,,,,,,,0,9,9,101,,,,,,,,,,,,,,,,,,,,,,,113.38823257014155,None,114.8731375769712,None,116.25481571117416,None,cram,116.25481571117416,None,return,3.7666501929052174,116.33831335208379,None,,,,,,,,,,,,,,,,,,,,,,,,,,,,,,,,,59,001,2023_Mar_15_2015,SpeechDraft1Carolyn_lessNoise_PlusLocalization,2021.2.3,59.97357676741839,
doom.wav,doom.mpg,doom,3,AV,Pink_Noise_3_1.wav,Pink_Noise_3_2.wav,,,,,,,,,,,,,,,0,10,10,74,,,,,,,,,,,,,,,,,,,,,,,120.12155832303688,None,121.6212323200889,None,122.9883036101237,None,doom,122.9883036101237,None,return,2.6253413991071284,123.07161126215942,None,,,,,,,,,,,,,,,,,,,,,,,,,,,,,,,,,59,001,2023_Mar_15_2015,SpeechDraft1Carolyn_lessNoise_PlusLocalization,2021.2.3,59.97357676741839,
flock.wav,flock.mpg,flock,3,AV,Pink_Noise_3_1.wav,Pink_Noise_3_2.wav,,,,,,,,,,,,,,,0,11,11,76,,,,,,,,,,,,,,,,,,,,,,,125.72162432712503,None,127.22131365095265,None,128.60490811406635,None,"flocked
",128.60490811406635,None,return,2.95270336791873,128.6882555440534,None,,,,,,,,,,,,,,,,,,,,,,,,,,,,,,,,,59,001,2023_Mar_15_2015,SpeechDraft1Carolyn_lessNoise_PlusLocalization,2021.2.3,59.97357676741839,
hike.wav,hike.mpg,hike,6,A,Pink_Noise_6_1.wav,Pink_Noise_6_2.wav,,,,,,,,,,,,,,,0,12,12,29,,,,,,,,,,,,,,,,,,,,,,,131.6715922029689,None,133.17142212600447,None,134.53835801314563,None,"touched
",134.53835801314563,None,return,6.451281510991976,134.62165046203882,None,,,,,,,,,,,,,,,,,,,,,,,,,,,,,,,,,59,001,2023_Mar_15_2015,SpeechDraft1Carolyn_lessNoise_PlusLocalization,2021.2.3,59.97357676741839,
fierce.wav,fierce.mpg,fierce,6,A,Pink_Noise_6_1.wav,Pink_Noise_6_2.wav,,,,,,,,,,,,,,,0,13,13,59,,,,,,,,,,,,,,,,,,,,,,,141.1049251810182,None,142.58993091294542,None,143.97163280216046,None,fierce,143.97163280216046,None,return,5.13012192491442,144.0549440269824,None,,,,,,,,,,,,,,,,,,,,,,,,,,,,,,,,,59,001,2023_Mar_15_2015,SpeechDraft1Carolyn_lessNoise_PlusLocalization,2021.2.3,59.97357676741839,
bite.wav,bite.mpg,bite,5,AV,Pink_Noise_5_1.wav,Pink_Noise_5_2.wav,,,,,,,,,,,,,,,0,14,14,78,,,,,,,,,,,,,,,,,,,,,,,149.20496734208427,None,150.70462914695963,None,152.0881545660086,None,"bite
",152.0881545660086,None,return,2.517286112997681,152.1716450061649,None,,,,,,,,,,,,,,,,,,,,,,,,,,,,,,,,,59,001,2023_Mar_15_2015,SpeechDraft1Carolyn_lessNoise_PlusLocalization,2021.2.3,59.97357676741839,
farm.wav,farm.mpg,farm,2,AV,Pink_Noise_2_1.wav,Pink_Noise_2_2.wav,,,,,,,,,,,,,,,0,15,15,90,,,,,,,,,,,,,,,,,,,,,,,154.7216864139773,None,156.2214901051484,None,157.5884776529856,None,"farm
",157.5884776529856,None,return,4.217272297013551,157.67165342415683,None,,,,,,,,,,,,,,,,,,,,,,,,,,,,,,,,,59,001,2023_Mar_15_2015,SpeechDraft1Carolyn_lessNoise_PlusLocalization,2021.2.3,59.97357676741839,
cute.wav,cute.mpg,cute,6,AV,Pink_Noise_6_1.wav,Pink_Noise_6_2.wav,,,,,,,,,,,,,,,0,16,16,96,,,,,,,,,,,,,,,,,,,,,,,161.92160990205593,None,163.40657032304443,None,164.7882568940986,None,tools,164.7882568940986,None,return,2.2493371698074043,164.87166880397126,None,,,,,,,,,,,,,,,,,,,,,,,,,,,,,,,,,59,001,2023_Mar_15_2015,SpeechDraft1Carolyn_lessNoise_PlusLocalization,2021.2.3,59.97357676741839,
dad.wav,dad.mpg,dad,3,A,Pink_Noise_3_1.wav,Pink_Noise_3_2.wav,,,,,,,,,,,,,,,0,17,17,50,,,,,,,,,,,,,,,,,,,,,,,167.13831692002714,None,168.63820233102888,None,170.02165915211663,None,dad,170.02165915211663,None,return,1.6559749071020633,170.10502837202512,None,,,,,,,,,,,,,,,,,,,,,,,,,,,,,,,,,59,001,2023_Mar_15_2015,SpeechDraft1Carolyn_lessNoise_PlusLocalization,2021.2.3,59.97357676741839,
goose.wav,goose.mpg,goose,3,A,Pink_Noise_3_1.wav,Pink_Noise_3_2.wav,,,,,,,,,,,,,,,0,18,18,20,,,,,,,,,,,,,,,,,,,,,,,171.78832710999995,None,173.2880388200283,None,174.65515329805203,None,goose,174.65515329805203,None,return,2.854526076000184,174.7383988010697,None,,,,,,,,,,,,,,,,,,,,,,,,,,,,,,,,,59,001,2023_Mar_15_2015,SpeechDraft1Carolyn_lessNoise_PlusLocalization,2021.2.3,59.97357676741839,
born.wav,born.mpg,born,6,AV,Pink_Noise_6_1.wav,Pink_Noise_6_2.wav,,,,,,,,,,,,,,,0,19,19,71,,,,,,,,,,,,,,,,,,,,,,,177.62160969013348,None,179.106067690067,None,180.48822561395355,None,warm,180.48822561395355,None,return,5.581254560034722,180.57169371307828,None,,,,,,,,,,,,,,,,,,,,,,,,,,,,,,,,,59,001,2023_Mar_15_2015,SpeechDraft1Carolyn_lessNoise_PlusLocalization,2021.2.3,59.97357676741839,
drop.wav,drop.mpg,drop,5,AV,Pink_Noise_5_1.wav,Pink_Noise_5_2.wav,,,,,,,,,,,,,,,0,20,20,79,,,,,,,,,,,,,,,,,,,,,,,186.1716590730939,None,187.65589555795304,None,189.0383753750939,None,drop,189.0383753750939,None,return,4.175297650042921,189.12160567799583,None,,,,,,,,,,,,,,,,,,,,,,,,,,,,,,,,,59,001,2023_Mar_15_2015,SpeechDraft1Carolyn_lessNoise_PlusLocalization,2021.2.3,59.97357676741839,
fear.wav,fear.mpg,fear,4,AV,Pink_Noise_4_1.wav,Pink_Noise_4_2.wav,,,,,,,,,,,,,,,0,21,21,103,,,,,,,,,,,,,,,,,,,,,,,193.32173144817352,None,194.821369451005,None,196.1882856809534,None,fear,196.1882856809534,None,return,2.049394676927477,196.27161292894743,None,,,,,,,,,,,,,,,,,,,,,,,,,,,,,,,,,59,001,2023_Mar_15_2015,SpeechDraft1Carolyn_lessNoise_PlusLocalization,2021.2.3,59.97357676741839,
quest.wav,quest.mpg,quest,1,A,Pink_Noise_1_1.wav,Pink_Noise_1_2.wav,,,,,,,,,,,,,,,0,22,22,49,,,,,,,,,,,,,,,,,,,,,,,198.33841133210808,None,199.83807641011663,None,201.2217759869527,None,quest,201.2217759869527,None,return,2.271808738121763,201.30518956505693,None,,,,,,,,,,,,,,,,,,,,,,,,,,,,,,,,,59,001,2023_Mar_15_2015,SpeechDraft1Carolyn_lessNoise_PlusLocalization,2021.2.3,59.97357676741839,
druid.wav,druid.mpg,druid,5,A,Pink_Noise_5_1.wav,Pink_Noise_5_2.wav,,,,,,,,,,,,,,,0,23,23,44,,,,,,,,,,,,,,,,,,,,,,,203.60504993004724,None,205.10467182216235,None,206.48838609317318,None,drool,206.48838609317318,None,return,3.4612021159846336,206.5717190010473,None,,,,,,,,,,,,,,,,,,,,,,,,,,,,,,,,,59,001,2023_Mar_15_2015,SpeechDraft1Carolyn_lessNoise_PlusLocalization,2021.2.3,59.97357676741839,
catch.wav,catch.mpg,catch,6,A,Pink_Noise_6_1.wav,Pink_Noise_6_2.wav,,,,,,,,,,,,,,,0,24,24,14,,,,,,,,,,,,,,,,,,,,,,,210.05529960105196,None,211.5547125369776,None,212.9384072860703,None,touch,212.9384072860703,None,return,4.1152326699811965,213.0218140941579,None,,,,,,,,,,,,,,,,,,,,,,,,,,,,,,,,,59,001,2023_Mar_15_2015,SpeechDraft1Carolyn_lessNoise_PlusLocalization,2021.2.3,59.97357676741839,
read.wav,read.mpg,read,2,AV,Pink_Noise_2_1.wav,Pink_Noise_2_2.wav,,,,,,,,,,,,,,,0,25,25,70,,,,,,,,,,,,,,,,,,,,,,,217.15507054910995,None,218.65476308204234,None,220.03845699713565,None,read,220.03845699713565,None,return,1.4872562340460718,220.12168232700787,None,,,,,,,,,,,,,,,,,,,,,,,,,,,,,,,,,59,001,2023_Mar_15_2015,SpeechDraft1Carolyn_lessNoise_PlusLocalization,2021.2.3,59.97357676741839,
tank.wav,tank.mpg,tank,6,AV,Pink_Noise_6_1.wav,Pink_Noise_6_2.wav,,,,,,,,,,,,,,,0,26,26,99,,,,,,,,,,,,,,,,,,,,,,,221.63842494017445,None,223.1381406581495,None,224.5216405990068,None,"text
",224.5216405990068,None,return,2.4678887978661805,224.6050378109794,None,,,,,,,,,,,,,,,,,,,,,,,,,,,,,,,,,59,001,2023_Mar_15_2015,SpeechDraft1Carolyn_lessNoise_PlusLocalization,2021.2.3,59.97357676741839,
crane.wav,crane.mpg,crane,4,A,Pink_Noise_4_1.wav,Pink_Noise_4_2.wav,,,,,,,,,,,,,,,0,27,27,23,,,,,,,,,,,,,,,,,,,,,,,227.10511819995008,None,228.60480818501674,None,229.98849309515208,None,dang,229.98849309515208,None,return,8.497218641918153,230.0717656800989,None,,,,,,,,,,,,,,,,,,,,,,,,,,,,,,,,,59,001,2023_Mar_15_2015,SpeechDraft1Carolyn_lessNoise_PlusLocalization,2021.2.3,59.97357676741839,
creep.wav,creep.mpg,creep,6,A,Pink_Noise_6_1.wav,Pink_Noise_6_2.wav,,,,,,,,,,,,,,,0,28,28,57,,,,,,,,,,,,,,,,,,,,,,,238.58853897405788,None,240.088189488044,None,241.4717646050267,None,moose,241.4717646050267,None,return,2.037882884964347,241.55504069896415,None,,,,,,,,,,,,,,,,,,,,,,,,,,,,,,,,,59,001,2023_Mar_15_2015,SpeechDraft1Carolyn_lessNoise_PlusLocalization,2021.2.3,59.97357676741839,
pride.wav,pride.mpg,pride,4,AV,Pink_Noise_4_1.wav,Pink_Noise_4_2.wav,,,,,,,,,,,,,,,0,29,29,61,,,,,,,,,,,,,,,,,,,,,,,243.62171079800464,None,245.12147170701064,None,246.50506544997916,None,pride,246.50506544997916,None,return,2.31656076409854,246.58842800115235,None,,,,,,,,,,,,,,,,,,,,,,,,,,,,,,,,,59,001,2023_Mar_15_2015,SpeechDraft1Carolyn_lessNoise_PlusLocalization,2021.2.3,59.97357676741839,
base.wav,base.mpg,base,5,A,Pink_Noise_5_1.wav,Pink_Noise_5_2.wav,,,,,,,,,,,,,,,0,30,30,39,,,,,,,,,,,,,,,,,,,,,,,248.92175230197608,None,250.42134034796618,None,251.78835835214704,None,firece,251.78835835214704,None,return,2.921131710987538,251.87180240801536,None,,,,,,,,,,,,,,,,,,,,,,,,,,,,,,,,,59,001,2023_Mar_15_2015,SpeechDraft1Carolyn_lessNoise_PlusLocalization,2021.2.3,59.97357676741839,
fluff.wav,fluff.mpg,fluff,1,A,Pink_Noise_1_1.wav,Pink_Noise_1_2.wav,,,,,,,,,,,,,,,0,31,31,42,,,,,,,,,,,,,,,,,,,,,,,254.82177174417302,None,256.3214157561306,None,257.68844708497636,None,fluff,257.68844708497636,None,return,4.133087642956525,257.7719078089576,None,,,,,,,,,,,,,,,,,,,,,,,,,,,,,,,,,59,001,2023_Mar_15_2015,SpeechDraft1Carolyn_lessNoise_PlusLocalization,2021.2.3,59.97357676741839,
built.wav,built.mpg,built,1,AV,Pink_Noise_1_1.wav,Pink_Noise_1_2.wav,,,,,,,,,,,,,,,0,32,32,75,,,,,,,,,,,,,,,,,,,,,,,261.92179110297,None,263.43830537912436,None,264.8218939441722,None,built,264.8218939441722,None,return,6.775783937890083,264.9051638110541,None,,,,,,,,,,,,,,,,,,,,,,,,,,,,,,,,,59,001,2023_Mar_15_2015,SpeechDraft1Carolyn_lessNoise_PlusLocalization,2021.2.3,59.97357676741839,
egg.wav,egg.mpg,egg,2,A,Pink_Noise_2_1.wav,Pink_Noise_2_2.wav,,,,,,,,,,,,,,,0,33,33,52,,,,,,,,,,,,,,,,,,,,,,,271.70522116404027,None,273.2047675680369,None,274.5884839950595,None,egg,274.5884839950595,None,return,1.0733060529455543,274.67177895409986,None,,,,,,,,,,,,,,,,,,,,,,,,,,,,,,,,,59,001,2023_Mar_15_2015,SpeechDraft1Carolyn_lessNoise_PlusLocalization,2021.2.3,59.97357676741839,
sue.wav,sue.mpg,sue,5,AV,Pink_Noise_5_1.wav,Pink_Noise_5_2.wav,,,,,,,,,,,,,,,0,34,34,65,,,,,,,,,,,,,,,,,,,,,,,275.7718400580343,None,277.2715094240848,None,278.6551359121222,None,soup,278.6551359121222,None,return,2.1103766839951277,278.7385325690266,None,,,,,,,,,,,,,,,,,,,,,,,,,,,,,,,,,59,001,2023_Mar_15_2015,SpeechDraft1Carolyn_lessNoise_PlusLocalization,2021.2.3,59.97357676741839,
greek.wav,greek.mpg,greek,5,A,Pink_Noise_5_1.wav,Pink_Noise_5_2.wav,,,,,,,,,,,,,,,0,35,35,9,,,,,,,,,,,,,,,,,,,,,,,280.8718879141379,None,282.3715955519583,None,283.7551360670477,None,reach,283.7551360670477,None,return,2.162439625011757,283.8385223050136,None,,,,,,,,,,,,,,,,,,,,,,,,,,,,,,,,,59,001,2023_Mar_15_2015,SpeechDraft1Carolyn_lessNoise_PlusLocalization,2021.2.3,59.97357676741839,
ease.wav,ease.mpg,ease,5,A,Pink_Noise_5_1.wav,Pink_Noise_5_2.wav,,,,,,,,,,,,,,,0,36,36,22,,,,,,,,,,,,,,,,,,,,,,,286.02184087317437,None,287.5213954451028,None,288.90516364201903,None,loose,288.90516364201903,None,return,11.108378337929025,288.98854882316664,None,,,,,,,,,,,,,,,,,,,,,,,,,,,,,,,,,59,001,2023_Mar_15_2015,SpeechDraft1Carolyn_lessNoise_PlusLocalization,2021.2.3,59.97357676741839,
fund.wav,fund.mpg,fund,5,AV,Pink_Noise_5_1.wav,Pink_Noise_5_2.wav,,,,,,,,,,,,,,,0,37,37,109,,,,,,,,,,,,,,,,,,,,,,,300.12188386707567,None,301.6215565900784,None,303.00519277504645,None,frey,303.00519277504645,None,return,7.048541778000072,303.08847339614294,None,,,,,,,,,,,,,,,,,,,,,,,,,,,,,,,,,59,001,2023_Mar_15_2015,SpeechDraft1Carolyn_lessNoise_PlusLocalization,2021.2.3,59.97357676741839,
chill.wav,chill.mpg,chill,3,AV,Pink_Noise_3_1.wav,Pink_Noise_3_2.wav,,,,,,,,,,,,,,,0,38,38,117,,,,,,,,,,,,,,,,,,,,,,,310.15520015894435,None,311.6549141330179,None,313.03877245704643,None,chill,313.03877245704643,None,return,1.7270487959031016,313.12186122103594,None,,,,,,,,,,,,,,,,,,,,,,,,,,,,,,,,,59,001,2023_Mar_15_2015,SpeechDraft1Carolyn_lessNoise_PlusLocalization,2021.2.3,59.97357676741839,
boss.wav,boss.mpg,boss,2,A,Pink_Noise_2_1.wav,Pink_Noise_2_2.wav,,,,,,,,,,,,,,,0,39,39,56,,,,,,,,,,,,,,,,,,,,,,,314.87183444504626,None,316.37148418207653,None,317.7552554081194,None,boss,317.7552554081194,None,return,2.5304771021474153,317.8385746651329,None,,,,,,,,,,,,,,,,,,,,,,,,,,,,,,,,,59,001,2023_Mar_15_2015,SpeechDraft1Carolyn_lessNoise_PlusLocalization,2021.2.3,59.97357676741839,
chord.wav,chord.mpg,chord,2,A,Pink_Noise_2_1.wav,Pink_Noise_2_2.wav,,,,,,,,,,,,,,,0,40,40,55,,,,,,,,,,,,,,,,,,,,,,,320.38872948195785,None,321.8884593050461,None,323.27190360915847,None,chord,323.27190360915847,None,return,1.981915615964681,323.35509736603126,None,,,,,,,,,,,,,,,,,,,,,,,,,,,,,,,,,59,001,2023_Mar_15_2015,SpeechDraft1Carolyn_lessNoise_PlusLocalization,2021.2.3,59.97357676741839,
clip.wav,clip.mpg,clip,6,AV,Pink_Noise_6_1.wav,Pink_Noise_6_2.wav,,,,,,,,,,,,,,,0,41,41,60,,,,,,,,,,,,,,,,,,,,,,,325.3552354190033,None,326.85490028513595,None,328.2386510949582,None,clip,328.2386510949582,None,return,8.047059117117897,328.32197852409445,None,,,,,,,,,,,,,,,,,,,,,,,,,,,,,,,,,59,001,2023_Mar_15_2015,SpeechDraft1Carolyn_lessNoise_PlusLocalization,2021.2.3,59.97357676741839,
pants.wav,pants.mpg,pants,6,AV,Pink_Noise_6_1.wav,Pink_Noise_6_2.wav,,,,,,,,,,,,,,,0,42,42,84,,,,,,,,,,,,,,,,,,,,,,,336.3885670611635,None,337.8883848490659,None,339.2718390519731,None,pants,339.2718390519731,None,return,3.989701135782525,339.3553221090697,None,,,,,,,,,,,,,,,,,,,,,,,,,,,,,,,,,59,001,2023_Mar_15_2015,SpeechDraft1Carolyn_lessNoise_PlusLocalization,2021.2.3,59.97357676741839,
ton.wav,ton.mpg,ton,4,A,Pink_Noise_4_1.wav,Pink_Noise_4_2.wav,,,,,,,,,,,,,,,0,43,43,32,,,,,,,,,,,,,,,,,,,,,,,343.37185102608055,None,344.8715563141741,None,346.25522151007317,None,tongue,346.25522151007317,None,return,4.894281485117972,346.33865920314565,None,,,,,,,,,,,,,,,,,,,,,,,,,,,,,,,,,59,001,2023_Mar_15_2015,SpeechDraft1Carolyn_lessNoise_PlusLocalization,2021.2.3,59.97357676741839,
cow.wav,cow.mpg,cow,5,AV,Pink_Noise_5_1.wav,Pink_Noise_5_2.wav,,,,,,,,,,,,,,,0,44,44,104,,,,,,,,,,,,,,,,,,,,,,,351.2552010610234,None,352.75485618202947,None,354.1385017600842,None,"owl
",354.1385017600842,None,return,1.4350353749468923,354.2219032251742,None,,,,,,,,,,,,,,,,,,,,,,,,,,,,,,,,,59,001,2023_Mar_15_2015,SpeechDraft1Carolyn_lessNoise_PlusLocalization,2021.2.3,59.97357676741839,
bribe.wav,bribe.mpg,bribe,3,AV,Pink_Noise_3_1.wav,Pink_Noise_3_2.wav,,,,,,,,,,,,,,,0,45,45,81,,,,,,,,,,,,,,,,,,,,,,,355.6886406389531,None,357.18826653412543,None,358.5718617271632,None,bribe,358.5718617271632,None,return,4.4976706160232425,358.6552739760373,None,,,,,,,,,,,,,,,,,,,,,,,,,,,,,,,,,59,001,2023_Mar_15_2015,SpeechDraft1Carolyn_lessNoise_PlusLocalization,2021.2.3,59.97357676741839,
birch.wav,birch.mpg,birch,2,AV,Pink_Noise_2_1.wav,Pink_Noise_2_2.wav,,,,,,,,,,,,,,,0,46,46,92,,,,,,,,,,,,,,,,,,,,,,,363.17207325506024,None,364.67190351802856,None,366.05522017600015,None,"burch
",366.05522017600015,None,return,3.31824558111839,366.13868027506396,None,,,,,,,,,,,,,,,,,,,,,,,,,,,,,,,,,59,001,2023_Mar_15_2015,SpeechDraft1Carolyn_lessNoise_PlusLocalization,2021.2.3,59.97357676741839,
chase.wav,chase.mpg,chase,2,A,Pink_Noise_2_1.wav,Pink_Noise_2_2.wav,,,,,,,,,,,,,,,0,47,47,51,,,,,,,,,,,,,,,,,,,,,,,369.4885206229519,None,371.0049362150021,None,372.3886512890458,None,"chase
",372.3886512890458,None,return,2.8170195990242064,372.47191090416163,None,,,,,,,,,,,,,,,,,,,,,,,,,,,,,,,,,59,001,2023_Mar_15_2015,SpeechDraft1Carolyn_lessNoise_PlusLocalization,2021.2.3,59.97357676741839,
glue.wav,glue.mpg,glue,4,AV,Pink_Noise_4_1.wav,Pink_Noise_4_2.wav,,,,,,,,,,,,,,,0,48,48,113,,,,,,,,,,,,,,,,,,,,,,,375.3219820121303,None,376.8382167930249,None,378.22194816102274,None,glue,378.22194816102274,None,return,1.6477347309701145,378.3052423130721,None,,,,,,,,,,,,,,,,,,,,,,,,,,,,,,,,,59,001,2023_Mar_15_2015,SpeechDraft1Carolyn_lessNoise_PlusLocalization,2021.2.3,59.97357676741839,
dope.wav,dope.mpg,dope,2,AV,Pink_Noise_2_1.wav,Pink_Noise_2_2.wav,,,,,,,,,,,,,,,0,49,49,63,,,,,,,,,,,,,,,,,,,,,,,379.97212469996884,None,381.47174646216445,None,382.85521580302157,None,dope,382.85521580302157,None,return,2.166406989097595,382.9386477509979,None,,,,,,,,,,,,,,,,,,,,,,,,,,,,,,,,,59,001,2023_Mar_15_2015,SpeechDraft1Carolyn_lessNoise_PlusLocalization,2021.2.3,59.97357676741839,
crank.wav,crank.mpg,crank,5,AV,Pink_Noise_5_1.wav,Pink_Noise_5_2.wav,,,,,,,,,,,,,,,0,50,50,72,,,,,,,,,,,,,,,,,,,,,,,385.1219630620908,None,386.62165269302204,None,388.00530403503217,None,crack,388.00530403503217,None,return,3.4803059571422637,388.088752851123,None,,,,,,,,,,,,,,,,,,,,,,,,,,,,,,,,,59,001,2023_Mar_15_2015,SpeechDraft1Carolyn_lessNoise_PlusLocalization,2021.2.3,59.97357676741839,
blimp.wav,blimp.mpg,blimp,3,A,Pink_Noise_3_1.wav,Pink_Noise_3_2.wav,,,,,,,,,,,,,,,0,51,51,5,,,,,,,,,,,,,,,,,,,,,,,391.5886310210917,None,393.08833586703986,None,394.47194524202496,None,flip,394.47194524202496,None,return,2.7896033409051597,394.5554275549948,None,,,,,,,,,,,,,,,,,,,,,,,,,,,,,,,,,59,001,2023_Mar_15_2015,SpeechDraft1Carolyn_lessNoise_PlusLocalization,2021.2.3,59.97357676741839,
belch.wav,belch.mpg,belch,6,A,Pink_Noise_6_1.wav,Pink_Noise_6_2.wav,,,,,,,,,,,,,,,0,52,52,11,,,,,,,,,,,,,,,,,,,,,,,397.3720316509716,None,398.8716261750087,None,400.25540271610953,None,surge,400.25540271610953,None,return,1.5581752839498222,400.33874628297053,None,,,,,,,,,,,,,,,,,,,,,,,,,,,,,,,,,59,001,2023_Mar_15_2015,SpeechDraft1Carolyn_lessNoise_PlusLocalization,2021.2.3,59.97357676741839,
crude.wav,crude.mpg,crude,6,AV,Pink_Noise_6_1.wav,Pink_Noise_6_2.wav,,,,,,,,,,,,,,,0,53,53,88,,,,,,,,,,,,,,,,,,,,,,,401.92225821199827,None,403.4216379860882,None,404.8054556529969,None,crew,404.8054556529969,None,return,2.832440681057051,404.8887142969761,None,,,,,,,,,,,,,,,,,,,,,,,,,,,,,,,,,59,001,2023_Mar_15_2015,SpeechDraft1Carolyn_lessNoise_PlusLocalization,2021.2.3,59.97357676741839,
cup.wav,cup.mpg,cup,3,A,Pink_Noise_3_1.wav,Pink_Noise_3_2.wav,,,,,,,,,,,,,,,0,54,54,33,,,,,,,,,,,,,,,,,,,,,,,407.7386754930485,None,409.2383205171209,None,410.62199687212706,None,cup,410.62199687212706,None,return,1.7915796181187034,410.7053894260898,None,,,,,,,,,,,,,,,,,,,,,,,,,,,,,,,,,59,001,2023_Mar_15_2015,SpeechDraft1Carolyn_lessNoise_PlusLocalization,2021.2.3,59.97357676741839,
foul.wav,foul.mpg,foul,1,A,Pink_Noise_1_1.wav,Pink_Noise_1_2.wav,,,,,,,,,,,,,,,0,55,55,21,,,,,,,,,,,,,,,,,,,,,,,412.52196131506935,None,414.02168033411726,None,415.40528571396135,None,foul,415.40528571396135,None,return,4.7281491861213,415.4887823071331,None,,,,,,,,,,,,,,,,,,,,,,,,,,,,,,,,,59,001,2023_Mar_15_2015,SpeechDraft1Carolyn_lessNoise_PlusLocalization,2021.2.3,59.97357676741839,
thrown.wav,thrown.mpg,thrown,2,A,Pink_Noise_2_1.wav,Pink_Noise_2_2.wav,,,,,,,,,,,,,,,0,56,56,17,,,,,,,,,,,,,,,,,,,,,,,420.2386932191439,None,421.73852457106113,None,423.12202136497945,None,drove,423.12202136497945,None,return,4.195512156933546,423.2054252871312,None,,,,,,,,,,,,,,,,,,,,,,,,,,,,,,,,,59,001,2023_Mar_15_2015,SpeechDraft1Carolyn_lessNoise_PlusLocalization,2021.2.3,59.97357676741839,
brain.wav,brain.mpg,brain,4,AV,Pink_Noise_4_1.wav,Pink_Noise_4_2.wav,,,,,,,,,,,,,,,0,57,57,73,,,,,,,,,,,,,,,,,,,,,,,427.42199668311514,None,428.92181030497886,None,430.30528702796437,None,"red
",430.30528702796437,None,return,2.3002518189605325,430.388671112014,None,,,,,,,,,,,,,,,,,,,,,,,,,,,,,,,,,59,001,2023_Mar_15_2015,SpeechDraft1Carolyn_lessNoise_PlusLocalization,2021.2.3,59.97357676741839,
bake.wav,bake.mpg,bake,1,AV,Pink_Noise_1_1.wav,Pink_Noise_1_2.wav,,,,,,,,,,,,,,,0,58,58,110,,,,,,,,,,,,,,,,,,,,,,,432.72208143398166,None,434.2217125419993,None,435.605290886946,None,bake,435.605290886946,None,return,1.904270650120452,435.68867422500625,None,,,,,,,,,,,,,,,,,,,,,,,,,,,,,,,,,59,001,2023_Mar_15_2015,SpeechDraft1Carolyn_lessNoise_PlusLocalization,2021.2.3,59.97357676741839,
aunt.wav,aunt.mpg,aunt,2,AV,Pink_Noise_2_1.wav,Pink_Noise_2_2.wav,,,,,,,,,,,,,,,0,59,59,118,,,,,,,,,,,,,,,,,,,,,,,437.62201343197376,None,439.12184338713996,None,440.5052711481694,None,aunt,440.5052711481694,None,return,2.3641913891769946,440.58875035494566,None,,,,,,,,,,,,,,,,,,,,,,,,,,,,,,,,,59,001,2023_Mar_15_2015,SpeechDraft1Carolyn_lessNoise_PlusLocalization,2021.2.3,59.97357676741839,
drunk.wav,drunk.mpg,drunk,1,AV,Pink_Noise_1_1.wav,Pink_Noise_1_2.wav,,,,,,,,,,,,,,,0,60,60,91,,,,,,,,,,,,,,,,,,,,,,,442.9719622740522,None,444.4718251901213,None,445.85535401594825,None,drug,445.85535401594825,None,return,1.9421542359050363,445.93879046617076,None,,,,,,,,,,,,,,,,,,,,,,,,,,,,,,,,,59,001,2023_Mar_15_2015,SpeechDraft1Carolyn_lessNoise_PlusLocalization,2021.2.3,59.97357676741839,
jeep.wav,jeep.mpg,jeep,1,A,Pink_Noise_1_1.wav,Pink_Noise_1_2.wav,,,,,,,,,,,,,,,0,61,61,43,,,,,,,,,,,,,,,,,,,,,,,447.9054334410466,None,449.4051668141037,None,450.78886382700875,None,jeep,450.78886382700875,None,return,1.2248762149829417,450.87204572209157,None,,,,,,,,,,,,,,,,,,,,,,,,,,,,,,,,,59,001,2023_Mar_15_2015,SpeechDraft1Carolyn_lessNoise_PlusLocalization,2021.2.3,59.97357676741839,
wild.wav,wild.mpg,wild,4,A,Pink_Noise_4_1.wav,Pink_Noise_4_2.wav,,,,,,,,,,,,,,,0,62,62,47,,,,,,,,,,,,,,,,,,,,,,,452.12201125500724,None,453.62159436708316,None,455.005531379953,None,wide,455.005531379953,None,return,1.4401779691688716,455.0888763400726,None,,,,,,,,,,,,,,,,,,,,,,,,,,,,,,,,,59,001,2023_Mar_15_2015,SpeechDraft1Carolyn_lessNoise_PlusLocalization,2021.2.3,59.97357676741839,
cried.wav,cried.mpg,cried,3,AV,Pink_Noise_3_1.wav,Pink_Noise_3_2.wav,,,,,,,,,,,,,,,0,63,63,83,,,,,,,,,,,,,,,,,,,,,,,456.55560973403044,None,458.0552043269854,None,459.4388611880131,None,cried,459.4388611880131,None,return,5.846920327981934,459.52210228401236,None,,,,,,,,,,,,,,,,,,,,,,,,,,,,,,,,,59,001,2023_Mar_15_2015,SpeechDraft1Carolyn_lessNoise_PlusLocalization,2021.2.3,59.97357676741839,
dive.wav,dive.mpg,dive,4,A,Pink_Noise_4_1.wav,Pink_Noise_4_2.wav,,,,,,,,,,,,,,,0,64,64,30,,,,,,,,,,,,,,,,,,,,,,,465.38874307717197,None,466.8883449160494,None,468.27233145805076,None,dye,468.27233145805076,None,return,2.4775500239338726,468.35540832416154,None,,,,,,,,,,,,,,,,,,,,,,,,,,,,,,,,,59,001,2023_Mar_15_2015,SpeechDraft1Carolyn_lessNoise_PlusLocalization,2021.2.3,59.97357676741839,
hug.wav,hug.mpg,hug,5,A,Pink_Noise_5_1.wav,Pink_Noise_5_2.wav,,,,,,,,,,,,,,,0,65,65,12,,,,,,,,,,,,,,,,,,,,,,,470.8554772560019,None,472.35655215010047,None,473.7387441149913,None,sight,473.7387441149913,None,return,3.714823802933097,473.8221391600091,None,,,,,,,,,,,,,,,,,,,,,,,,,,,,,,,,,59,001,2023_Mar_15_2015,SpeechDraft1Carolyn_lessNoise_PlusLocalization,2021.2.3,59.97357676741839,
bull.wav,bull.mpg,bull,5,A,Pink_Noise_5_1.wav,Pink_Noise_5_2.wav,,,,,,,,,,,,,,,0,66,66,15,,,,,,,,,,,,,,,,,,,,,,,477.55540829501115,None,479.05509644397534,None,480.43893166910857,None,flood,480.43893166910857,None,return,3.614995922194794,480.52204422210343,None,,,,,,,,,,,,,,,,,,,,,,,,,,,,,,,,,59,001,2023_Mar_15_2015,SpeechDraft1Carolyn_lessNoise_PlusLocalization,2021.2.3,59.97357676741839,
dig.wav,dig.mpg,dig,1,AV,Pink_Noise_1_1.wav,Pink_Noise_1_2.wav,,,,,,,,,,,,,,,0,67,67,111,,,,,,,,,,,,,,,,,,,,,,,484.1554192530457,None,485.65514800697565,None,487.03877668012865,None,"dig
",487.03877668012865,None,return,1.5507395740132779,487.1221907460131,None,,,,,,,,,,,,,,,,,,,,,,,,,,,,,,,,,59,001,2023_Mar_15_2015,SpeechDraft1Carolyn_lessNoise_PlusLocalization,2021.2.3,59.97357676741839,
clash.wav,clash.mpg,clash,4,AV,Pink_Noise_4_1.wav,Pink_Noise_4_2.wav,,,,,,,,,,,,,,,0,68,68,102,,,,,,,,,,,,,,,,,,,,,,,488.7056223291438,None,490.20523593807593,None,491.5887372700963,None,"clash
",491.5887372700963,None,return,2.552803738042712,491.67212025402114,None,,,,,,,,,,,,,,,,,,,,,,,,,,,,,,,,,59,001,2023_Mar_15_2015,SpeechDraft1Carolyn_lessNoise_PlusLocalization,2021.2.3,59.97357676741839,
crate.wav,crate.mpg,crate,1,AV,Pink_Noise_1_1.wav,Pink_Noise_1_2.wav,,,,,,,,,,,,,,,0,69,69,66,,,,,,,,,,,,,,,,,,,,,,,494.25543994712643,None,495.7560351709835,None,497.13885205914266,None,"crate
",497.13885205914266,None,return,1.8348047519102693,497.2221184549853,None,,,,,,,,,,,,,,,,,,,,,,,,,,,,,,,,,59,001,2023_Mar_15_2015,SpeechDraft1Carolyn_lessNoise_PlusLocalization,2021.2.3,59.97357676741839,
jam.wav,jam.mpg,jam,3,A,Pink_Noise_3_1.wav,Pink_Noise_3_2.wav,,,,,,,,,,,,,,,0,70,70,19,,,,,,,,,,,,,,,,,,,,,,,499.08878265996464,None,500.5884868791327,None,501.9721457681153,None,jam,501.9721457681153,None,return,2.5455054140184075,502.0554348800797,None,,,,,,,,,,,,,,,,,,,,,,,,,,,,,,,,,59,001,2023_Mar_15_2015,SpeechDraft1Carolyn_lessNoise_PlusLocalization,2021.2.3,59.97357676741839,
bell.wav,bell.mpg,bell,2,AV,Pink_Noise_2_1.wav,Pink_Noise_2_2.wav,,,,,,,,,,,,,,,0,71,71,93,,,,,,,,,,,,,,,,,,,,,,,504.62212805915624,None,506.1225402120035,None,507.50556405005045,None,bell,507.50556405005045,None,return,1.3562341849319637,507.5887821940705,None,,,,,,,,,,,,,,,,,,,,,,,,,,,,,,,,,59,001,2023_Mar_15_2015,SpeechDraft1Carolyn_lessNoise_PlusLocalization,2021.2.3,59.97357676741839,
fly.wav,fly.mpg,fly,3,A,Pink_Noise_3_1.wav,Pink_Noise_3_2.wav,,,,,,,,,,,,,,,0,72,72,45,,,,,,,,,,,,,,,,,,,,,,,508.97214271710254,None,510.4719468629919,None,511.8554741551634,None,fly,511.8554741551634,None,return,1.3821563438978046,511.9388691240456,None,,,,,,,,,,,,,,,,,,,,,,,,,,,,,,,,,59,001,2023_Mar_15_2015,SpeechDraft1Carolyn_lessNoise_PlusLocalization,2021.2.3,59.97357676741839,
den.wav,den.mpg,den,3,A,Pink_Noise_3_1.wav,Pink_Noise_3_2.wav,,,,,,,,,,,,,,,0,73,73,13,,,,,,,,,,,,,,,,,,,,,,,513.3388210400008,None,514.83849001606,None,516.2222322709858,None,dead,516.2222322709858,None,return,1.559500850038603,516.3054122759495,None,,,,,,,,,,,,,,,,,,,,,,,,,,,,,,,,,59,001,2023_Mar_15_2015,SpeechDraft1Carolyn_lessNoise_PlusLocalization,2021.2.3,59.97357676741839,
camp.wav,camp.mpg,camp,4,AV,Pink_Noise_4_1.wav,Pink_Noise_4_2.wav,,,,,,,,,,,,,,,0,74,74,95,,,,,,,,,,,,,,,,,,,,,,,517.8887862961274,None,519.3884611281101,None,520.7721814601682,None,camp,520.7721814601682,None,return,1.8254174930043519,520.8555019099731,None,,,,,,,,,,,,,,,,,,,,,,,,,,,,,,,,,59,001,2023_Mar_15_2015,SpeechDraft1Carolyn_lessNoise_PlusLocalization,2021.2.3,59.97357676741839,
please.wav,please.mpg,please,1,AV,Pink_Noise_1_1.wav,Pink_Noise_1_2.wav,,,,,,,,,,,,,,,0,75,75,67,,,,,,,,,,,,,,,,,,,,,,,522.7055253130384,None,524.2051210601348,None,525.5886934371665,None,please,525.5886934371665,None,return,4.672867005923763,525.6721629570238,None,,,,,,,,,,,,,,,,,,,,,,,,,,,,,,,,,59,001,2023_Mar_15_2015,SpeechDraft1Carolyn_lessNoise_PlusLocalization,2021.2.3,59.97357676741839,
pop.wav,pop.mpg,pop,5,A,Pink_Noise_5_1.wav,Pink_Noise_5_2.wav,,,,,,,,,,,,,,,0,76,76,1,,,,,,,,,,,,,,,,,,,,,,,530.3722042031586,None,531.8721574880183,None,533.2555680600926,None,tick,533.2555680600926,None,return,3.6621266920119524,533.338807678083,None,,,,,,,,,,,,,,,,,,,,,,,,,,,,,,,,,59,001,2023_Mar_15_2015,SpeechDraft1Carolyn_lessNoise_PlusLocalization,2021.2.3,59.97357676741839,
dare.wav,dare.mpg,dare,2,AV,Pink_Noise_2_1.wav,Pink_Noise_2_2.wav,,,,,,,,,,,,,,,0,77,77,108,,,,,,,,,,,,,,,,,,,,,,,537.0221862460021,None,538.5226817219518,None,539.9055472570471,None,dare,539.9055472570471,None,return,1.2600188441574574,539.9888889610302,None,,,,,,,,,,,,,,,,,,,,,,,,,,,,,,,,,59,001,2023_Mar_15_2015,SpeechDraft1Carolyn_lessNoise_PlusLocalization,2021.2.3,59.97357676741839,
wet.wav,wet.mpg,wet,6,A,Pink_Noise_6_1.wav,Pink_Noise_6_2.wav,,,,,,,,,,,,,,,0,78,78,35,,,,,,,,,,,,,,,,,,,,,,,541.2721532410942,None,542.7718573680613,None,544.1554694101214,None,rest,544.1554694101214,None,return,1.5301140549127012,544.2388616129756,None,,,,,,,,,,,,,,,,,,,,,,,,,,,,,,,,,59,001,2023_Mar_15_2015,SpeechDraft1Carolyn_lessNoise_PlusLocalization,2021.2.3,59.97357676741839,
blend.wav,blend.mpg,blend,1,A,Pink_Noise_1_1.wav,Pink_Noise_1_2.wav,,,,,,,,,,,,,,,0,79,79,8,,,,,,,,,,,,,,,,,,,,,,,545.7888260181062,None,547.2885048431344,None,548.672376767965,None,blend,548.672376767965,None,return,7.005503607913852,548.75553580001,None,,,,,,,,,,,,,,,,,,,,,,,,,,,,,,,,,59,001,2023_Mar_15_2015,SpeechDraft1Carolyn_lessNoise_PlusLocalization,2021.2.3,59.97357676741839,
fall.wav,fall.mpg,fall,6,A,Pink_Noise_6_1.wav,Pink_Noise_6_2.wav,,,,,,,,,,,,,,,0,80,80,3,,,,,,,,,,,,,,,,,,,,,,,555.7889003290329,None,557.3053494279739,None,558.6888500340283,None,sad,558.6888500340283,None,return,0.7406792759429663,558.7723979051225,None,,,,,,,,,,,,,,,,,,,,,,,,,,,,,,,,,59,001,2023_Mar_15_2015,SpeechDraft1Carolyn_lessNoise_PlusLocalization,2021.2.3,59.97357676741839,
dune.wav,dune.mpg,dune,1,A,Pink_Noise_1_1.wav,Pink_Noise_1_2.wav,,,,,,,,,,,,,,,0,81,81,16,,,,,,,,,,,,,,,,,,,,,,,559.5389330959879,None,561.0386115519796,None,562.4221619840246,None,"doom
",562.4221619840246,None,return,1.3353695829864591,562.5055717669893,None,,,,,,,,,,,,,,,,,,,,,,,,,,,,,,,,,59,001,2023_Mar_15_2015,SpeechDraft1Carolyn_lessNoise_PlusLocalization,2021.2.3,59.97357676741839,
dread.wav,dread.mpg,dread,4,AV,Pink_Noise_4_1.wav,Pink_Noise_4_2.wav,,,,,,,,,,,,,,,0,82,82,116,,,,,,,,,,,,,,,,,,,,,,,563.8721904270351,None,565.371922563063,None,566.7555057280697,None,dread,566.7555057280697,None,return,1.8499390471260995,566.838987060124,None,,,,,,,,,,,,,,,,,,,,,,,,,,,,,,,,,59,001,2023_Mar_15_2015,SpeechDraft1Carolyn_lessNoise_PlusLocalization,2021.2.3,59.97357676741839,
drum.wav,drum.mpg,drum,4,A,Pink_Noise_4_1.wav,Pink_Noise_4_2.wav,,,,,,,,,,,,,,,0,83,83,38,,,,,,,,,,,,,,,,,,,,,,,568.7055792901665,None,570.2052605999634,None,571.5890244550537,None,drone,571.5890244550537,None,return,6.464624912943691,571.6723012479488,None,,,,,,,,,,,,,,,,,,,,,,,,,,,,,,,,,59,001,2023_Mar_15_2015,SpeechDraft1Carolyn_lessNoise_PlusLocalization,2021.2.3,59.97357676741839,
fruit.wav,fruit.mpg,fruit,6,AV,Pink_Noise_6_1.wav,Pink_Noise_6_2.wav,,,,,,,,,,,,,,,0,84,84,80,,,,,,,,,,,,,,,,,,,,,,,578.1556242371444,None,579.6551168200094,None,581.0389019970316,None,"food
",581.0389019970316,None,return,1.0865650980267674,581.1223662849516,None,,,,,,,,,,,,,,,,,,,,,,,,,,,,,,,,,59,001,2023_Mar_15_2015,SpeechDraft1Carolyn_lessNoise_PlusLocalization,2021.2.3,59.97357676741839,
drill.wav,drill.mpg,drill,6,A,Pink_Noise_6_1.wav,Pink_Noise_6_2.wav,,,,,,,,,,,,,,,0,85,85,40,,,,,,,,,,,,,,,,,,,,,,,582.2388665550388,None,583.7388754601125,None,585.1222717771307,None,"trail
",585.1222717771307,None,return,1.8032294949516654,585.2057048340794,None,,,,,,,,,,,,,,,,,,,,,,,,,,,,,,,,,59,001,2023_Mar_15_2015,SpeechDraft1Carolyn_lessNoise_PlusLocalization,2021.2.3,59.97357676741839,
drip.wav,drip.mpg,drip,3,A,Pink_Noise_3_1.wav,Pink_Noise_3_2.wav,,,,,,,,,,,,,,,0,86,86,24,,,,,,,,,,,,,,,,,,,,,,,587.0555670401081,None,588.555312062148,None,589.9388644681312,None,drift,589.9388644681312,None,return,2.082788785919547,590.0222382911015,None,,,,,,,,,,,,,,,,,,,,,,,,,,,,,,,,,59,001,2023_Mar_15_2015,SpeechDraft1Carolyn_lessNoise_PlusLocalization,2021.2.3,59.97357676741839,
brand.wav,brand.mpg,brand,2,A,Pink_Noise_2_1.wav,Pink_Noise_2_2.wav,,,,,,,,,,,,,,,0,87,87,10,,,,,,,,,,,,,,,,,,,,,,,592.1222749559674,None,593.6218408620916,None,595.0056451121345,None,"ran
",595.0056451121345,None,return,6.184011803008616,595.0889092381112,None,,,,,,,,,,,,,,,,,,,,,,,,,,,,,,,,,59,001,2023_Mar_15_2015,SpeechDraft1Carolyn_lessNoise_PlusLocalization,2021.2.3,59.97357676741839,
chest.wav,chest.mpg,chest,1,AV,Pink_Noise_1_1.wav,Pink_Noise_1_2.wav,,,,,,,,,,,,,,,0,88,88,77,,,,,,,,,,,,,,,,,,,,,,,601.305704273982,None,602.8053382250946,None,604.1888328460045,None,chest,604.1888328460045,None,return,1.4167234029155225,604.2721996919718,None,,,,,,,,,,,,,,,,,,,,,,,,,,,,,,,,,59,001,2023_Mar_15_2015,SpeechDraft1Carolyn_lessNoise_PlusLocalization,2021.2.3,59.97357676741839,
blur.wav,blur.mpg,blur,5,AV,Pink_Noise_5_1.wav,Pink_Noise_5_2.wav,,,,,,,,,,,,,,,0,89,89,68,,,,,,,,,,,,,,,,,,,,,,,605.7056398571003,None,607.205584126059,None,608.5889226300642,None,blur,608.5889226300642,None,return,2.064663756871596,608.6722922599874,None,,,,,,,,,,,,,,,,,,,,,,,,,,,,,,,,,59,001,2023_Mar_15_2015,SpeechDraft1Carolyn_lessNoise_PlusLocalization,2021.2.3,59.97357676741839,
ham.wav,ham.mpg,ham,2,AV,Pink_Noise_2_1.wav,Pink_Noise_2_2.wav,,,,,,,,,,,,,,,0,90,90,105,,,,,,,,,,,,,,,,,,,,,,,610.7556161500979,None,612.2552783761639,None,613.6389628469478,None,hand,613.6389628469478,None,return,1.1665419829078019,613.72237635497,None,,,,,,,,,,,,,,,,,,,,,,,,,,,,,,,,,59,001,2023_Mar_15_2015,SpeechDraft1Carolyn_lessNoise_PlusLocalization,2021.2.3,59.97357676741839,
germ.wav,germ.mpg,germ,6,AV,Pink_Noise_6_1.wav,Pink_Noise_6_2.wav,,,,,,,,,,,,,,,0,91,91,85,,,,,,,,,,,,,,,,,,,,,,,614.9056515491102,None,616.4053588239476,None,617.7887570061721,None,germ,617.7887570061721,None,return,2.976653922116384,617.8722582100891,None,,,,,,,,,,,,,,,,,,,,,,,,,,,,,,,,,59,001,2023_Mar_15_2015,SpeechDraft1Carolyn_lessNoise_PlusLocalization,2021.2.3,59.97357676741839,
dot.wav,dot.mpg,dot,2,AV,Pink_Noise_2_1.wav,Pink_Noise_2_2.wav,,,,,,,,,,,,,,,0,92,92,107,,,,,,,,,,,,,,,,,,,,,,,620.872322448995,None,622.3887412701733,None,623.7722201661672,None,do,623.7722201661672,None,return,0.9933415991254151,623.8555665879976,None,,,,,,,,,,,,,,,,,,,,,,,,,,,,,,,,,59,001,2023_Mar_15_2015,SpeechDraft1Carolyn_lessNoise_PlusLocalization,2021.2.3,59.97357676741839,
ghost.wav,ghost.mpg,ghost,2,A,Pink_Noise_2_1.wav,Pink_Noise_2_2.wav,,,,,,,,,,,,,,,0,93,93,34,,,,,,,,,,,,,,,,,,,,,,,624.8723391019739,None,626.3886309650261,None,627.7557015330531,None,ghost,627.7557015330531,None,return,3.0739496799651533,627.8390267139766,None,,,,,,,,,,,,,,,,,,,,,,,,,,,,,,,,,59,001,2023_Mar_15_2015,SpeechDraft1Carolyn_lessNoise_PlusLocalization,2021.2.3,59.97357676741839,
droop.wav,droop.mpg,droop,1,A,Pink_Noise_1_1.wav,Pink_Noise_1_2.wav,,,,,,,,,,,,,,,0,94,94,58,,,,,,,,,,,,,,,,,,,,,,,630.9389684731141,None,632.4395623910241,None,633.8223139131442,None,droop,633.8223139131442,None,return,1.8154038831125945,633.9056681699585,None,,,,,,,,,,,,,,,,,,,,,,,,,,,,,,,,,59,001,2023_Mar_15_2015,SpeechDraft1Carolyn_lessNoise_PlusLocalization,2021.2.3,59.97357676741839,
chin.wav,chin.mpg,chin,4,A,Pink_Noise_4_1.wav,Pink_Noise_4_2.wav,,,,,,,,,,,,,,,0,95,95,27,,,,,,,,,,,,,,,,,,,,,,,635.7390278470702,None,637.2386955621187,None,638.6225202949718,None,chin,638.6225202949718,None,return,1.6632360899820924,638.705753358081,None,,,,,,,,,,,,,,,,,,,,,,,,,,,,,,,,,59,001,2023_Mar_15_2015,SpeechDraft1Carolyn_lessNoise_PlusLocalization,2021.2.3,59.97357676741839,
cope.wav,cope.mpg,cope,4,AV,Pink_Noise_4_1.wav,Pink_Noise_4_2.wav,,,,,,,,,,,,,,,0,96,96,115,,,,,,,,,,,,,,,,,,,,,,,640.3889647910837,None,641.8887505570892,None,643.2723383351695,None,cope,643.2723383351695,None,return,1.149337680079043,643.3556756749749,None,,,,,,,,,,,,,,,,,,,,,,,,,,,,,,,,,59,001,2023_Mar_15_2015,SpeechDraft1Carolyn_lessNoise_PlusLocalization,2021.2.3,59.97357676741839,
glove.wav,glove.mpg,glove,3,AV,Pink_Noise_3_1.wav,Pink_Noise_3_2.wav,,,,,,,,,,,,,,,0,97,97,97,,,,,,,,,,,,,,,,,,,,,,,644.5223348969594,None,646.0219001299702,None,647.405688639963,None,glove,647.405688639963,None,return,2.055995110888034,647.4890247720759,None,,,,,,,,,,,,,,,,,,,,,,,,,,,,,,,,,59,001,2023_Mar_15_2015,SpeechDraft1Carolyn_lessNoise_PlusLocalization,2021.2.3,59.97357676741839,
bind.wav,bind.mpg,bind,3,A,Pink_Noise_3_1.wav,Pink_Noise_3_2.wav,,,,,,,,,,,,,,,0,98,98,37,,,,,,,,,,,,,,,,,,,,,,,649.5723217539489,None,651.0888568330556,None,652.4723787689582,None,behind,652.4723787689582,None,return,5.8132399609312415,652.5557581931353,None,,,,,,,,,,,,,,,,,,,,,,,,,,,,,,,,,59,001,2023_Mar_15_2015,SpeechDraft1Carolyn_lessNoise_PlusLocalization,2021.2.3,59.97357676741839,
cab.wav,cab.mpg,cab,2,AV,Pink_Noise_2_1.wav,Pink_Noise_2_2.wav,,,,,,,,,,,,,,,0,99,99,100,,,,,,,,,,,,,,,,,,,,,,,658.3891327490564,None,659.9053008339833,None,661.272280634148,None,cab,661.272280634148,None,return,1.1331505640409887,661.3558270160574,None,,,,,,,,,,,,,,,,,,,,,,,,,,,,,,,,,59,001,2023_Mar_15_2015,SpeechDraft1Carolyn_lessNoise_PlusLocalization,2021.2.3,59.97357676741839,
cash.wav,cash.mpg,cash,4,A,Pink_Noise_4_1.wav,Pink_Noise_4_2.wav,,,,,,,,,,,,,,,0,100,100,6,,,,,,,,,,,,,,,,,,,,,,,662.5055866639595,None,664.005287143169,None,665.3889859810006,None,pesh,665.3889859810006,None,return,1.6165692450013012,665.4724178691395,None,,,,,,,,,,,,,,,,,,,,,,,,,,,,,,,,,59,001,2023_Mar_15_2015,SpeechDraft1Carolyn_lessNoise_PlusLocalization,2021.2.3,59.97357676741839,
grow.wav,grow.mpg,grow,3,AV,Pink_Noise_3_1.wav,Pink_Noise_3_2.wav,,,,,,,,,,,,,,,0,101,101,106,,,,,,,,,,,,,,,,,,,,,,,667.1056733331643,None,668.6053782859817,None,669.9889783081599,None,grow,669.9889783081599,None,return,1.6407056380994618,670.0723716430366,None,,,,,,,,,,,,,,,,,,,,,,,,,,,,,,,,,59,001,2023_Mar_15_2015,SpeechDraft1Carolyn_lessNoise_PlusLocalization,2021.2.3,59.97357676741839,
bait.wav,bait.mpg,bait,4,AV,Pink_Noise_4_1.wav,Pink_Noise_4_2.wav,,,,,,,,,,,,,,,0,102,102,82,,,,,,,,,,,,,,,,,,,,,,,671.739004292991,None,673.2393627781421,None,674.6223281179555,None,baked,674.6223281179555,None,return,1.5592110250145197,674.7057369530667,None,,,,,,,,,,,,,,,,,,,,,,,,,,,,,,,,,59,001,2023_Mar_15_2015,SpeechDraft1Carolyn_lessNoise_PlusLocalization,2021.2.3,59.97357676741839,
rid.wav,rid.mpg,rid,2,A,Pink_Noise_2_1.wav,Pink_Noise_2_2.wav,,,,,,,,,,,,,,,0,103,103,4,,,,,,,,,,,,,,,,,,,,,,,676.2890844361391,None,677.8053376891185,None,679.1891033949796,None,rid,679.1891033949796,None,return,1.5765361518133432,679.2723840430845,None,,,,,,,,,,,,,,,,,,,,,,,,,,,,,,,,,59,001,2023_Mar_15_2015,SpeechDraft1Carolyn_lessNoise_PlusLocalization,2021.2.3,59.97357676741839,
edge.wav,edge.mpg,edge,5,AV,Pink_Noise_5_1.wav,Pink_Noise_5_2.wav,,,,,,,,,,,,,,,0,104,104,94,,,,,,,,,,,,,,,,,,,,,,,680.8724222800229,None,682.3736795489676,None,683.7556048179977,None,edge,683.7556048179977,None,return,1.9380199501756579,683.838994495105,None,,,,,,,,,,,,,,,,,,,,,,,,,,,,,,,,,59,001,2023_Mar_15_2015,SpeechDraft1Carolyn_lessNoise_PlusLocalization,2021.2.3,59.97357676741839,
spray.wav,spray.mpg,spray,6,AV,Pink_Noise_6_1.wav,Pink_Noise_6_2.wav,,,,,,,,,,,,,,,0,105,105,86,,,,,,,,,,,,,,,,,,,,,,,685.8057291449513,None,687.3053456081543,None,688.6889956099913,None,ramp,688.6889956099913,None,return,2.5166020567994565,688.772365000099,None,,,,,,,,,,,,,,,,,,,,,,,,,,,,,,,,,59,001,2023_Mar_15_2015,SpeechDraft1Carolyn_lessNoise_PlusLocalization,2021.2.3,59.97357676741839,
crop.wav,crop.mpg,crop,1,AV,Pink_Noise_1_1.wav,Pink_Noise_1_2.wav,,,,,,,,,,,,,,,0,106,106,114,,,,,,,,,,,,,,,,,,,,,,,691.305680395104,None,692.8054824259598,None,694.1890489461366,None,crop,694.1890489461366,None,return,1.688701726961881,694.2723660401534,None,,,,,,,,,,,,,,,,,,,,,,,,,,,,,,,,,59,001,2023_Mar_15_2015,SpeechDraft1Carolyn_lessNoise_PlusLocalization,2021.2.3,59.97357676741839,
blue.wav,blue.mpg,blue,4,A,Pink_Noise_4_1.wav,Pink_Noise_4_2.wav,,,,,,,,,,,,,,,0,107,107,36,,,,,,,,,,,,,,,,,,,,,,,695.989124802174,None,697.5055158990435,None,698.8890705809463,None,new,698.8890705809463,None,return,1.4443992471788079,698.9725210880861,None,,,,,,,,,,,,,,,,,,,,,,,,,,,,,,,,,59,001,2023_Mar_15_2015,SpeechDraft1Carolyn_lessNoise_PlusLocalization,2021.2.3,59.97357676741839,
gross.wav,gross.mpg,gross,1,A,Pink_Noise_1_1.wav,Pink_Noise_1_2.wav,,,,,,,,,,,,,,,0,108,108,41,,,,,,,,,,,,,,,,,,,,,,,700.4390373211354,None,701.938973300159,None,703.3223109871615,None,gross,703.3223109871615,None,return,3.187150066019967,703.405788826989,None,,,,,,,,,,,,,,,,,,,,,,,,,,,,,,,,,59,001,2023_Mar_15_2015,SpeechDraft1Carolyn_lessNoise_PlusLocalization,2021.2.3,59.97357676741839,
core.wav,core.mpg,core,4,AV,Pink_Noise_4_1.wav,Pink_Noise_4_2.wav,,,,,,,,,,,,,,,0,109,109,119,,,,,,,,,,,,,,,,,,,,,,,706.6224395709578,None,708.122118528001,None,709.5057619570289,None,core,709.5057619570289,None,return,1.123822141904384,709.589213690022,None,,,,,,,,,,,,,,,,,,,,,,,,,,,,,,,,,59,001,2023_Mar_15_2015,SpeechDraft1Carolyn_lessNoise_PlusLocalization,2021.2.3,59.97357676741839,
bloat.wav,bloat.mpg,bloat,5,A,Pink_Noise_5_1.wav,Pink_Noise_5_2.wav,,,,,,,,,,,,,,,0,110,110,2,,,,,,,,,,,,,,,,,,,,,,,710.7391894459724,None,712.2395880781114,None,713.6223933990113,None,blur,713.6223933990113,None,return,4.8310870819259435,713.7058629980311,None,,,,,,,,,,,,,,,,,,,,,,,,,,,,,,,,,59,001,2023_Mar_15_2015,SpeechDraft1Carolyn_lessNoise_PlusLocalization,2021.2.3,59.97357676741839,
clutch.wav,clutch.mpg,clutch,1,AV,Pink_Noise_1_1.wav,Pink_Noise_1_2.wav,,,,,,,,,,,,,,,0,111,111,64,,,,,,,,,,,,,,,,,,,,,,,718.5557923391461,None,720.055948068155,None,721.4389688421506,None,clutch,721.4389688421506,None,return,1.5103007070720196,721.5226319690701,None,,,,,,,,,,,,,,,,,,,,,,,,,,,,,,,,,59,001,2023_Mar_15_2015,SpeechDraft1Carolyn_lessNoise_PlusLocalization,2021.2.3,59.97357676741839,
fun.wav,fun.mpg,fun,2,A,Pink_Noise_2_1.wav,Pink_Noise_2_2.wav,,,,,,,,,,,,,,,0,112,112,18,,,,,,,,,,,,,,,,,,,,,,,723.0557577339932,None,724.5721281331498,None,725.9558342869859,None,"fun
",725.9558342869859,None,return,0.9698393170256168,726.0390950019937,None,,,,,,,,,,,,,,,,,,,,,,,,,,,,,,,,,59,001,2023_Mar_15_2015,SpeechDraft1Carolyn_lessNoise_PlusLocalization,2021.2.3,59.97357676741839,
crust.wav,crust.mpg,crust,3,AV,Pink_Noise_3_1.wav,Pink_Noise_3_2.wav,,,,,,,,,,,,,,,0,113,113,112,,,,,,,,,,,,,,,,,,,,,,,727.0390756640118,None,728.5387853330467,None,729.9224246570375,None,crust,729.9224246570375,None,return,1.947201281087473,730.0058161229827,None,,,,,,,,,,,,,,,,,,,,,,,,,,,,,,,,,59,001,2023_Mar_15_2015,SpeechDraft1Carolyn_lessNoise_PlusLocalization,2021.2.3,59.97357676741839,
grade.wav,grade.mpg,grade,2,A,Pink_Noise_2_1.wav,Pink_Noise_2_2.wav,,,,,,,,,,,,,,,0,114,114,0,,,,,,,,,,,,,,,,,,,,,,,731.9724244910758,None,733.4887609670404,None,734.8724316649605,None,"greyed
",734.8724316649605,None,return,1.7011625010054559,734.955768170068,None,,,,,,,,,,,,,,,,,,,,,,,,,,,,,,,,,59,001,2023_Mar_15_2015,SpeechDraft1Carolyn_lessNoise_PlusLocalization,2021.2.3,59.97357676741839,
earth.wav,earth.mpg,earth,4,A,Pink_Noise_4_1.wav,Pink_Noise_4_2.wav,,,,,,,,,,,,,,,0,115,115,53,,,,,,,,,,,,,,,,,,,,,,,736.6891531641595,None,738.2055455511436,None,739.5891435239464,None,"earth
",739.5891435239464,None,return,2.5844563911668956,739.6724397451617,None,,,,,,,,,,,,,,,,,,,,,,,,,,,,,,,,,59,001,2023_Mar_15_2015,SpeechDraft1Carolyn_lessNoise_PlusLocalization,2021.2.3,59.97357676741839,
clothe.wav,clothe.mpg,clothe,1,A,Pink_Noise_1_1.wav,Pink_Noise_1_2.wav,,,,,,,,,,,,,,,0,116,116,25,,,,,,,,,,,,,,,,,,,,,,,742.289127312135,None,743.7904474469833,None,745.1726854040753,None,cloth,745.1726854040753,None,return,1.9051687240134925,745.2558610909618,None,,,,,,,,,,,,,,,,,,,,,,,,,,,,,,,,,59,001,2023_Mar_15_2015,SpeechDraft1Carolyn_lessNoise_PlusLocalization,2021.2.3,59.97357676741839,
chat.wav,chat.mpg,chat,3,AV,Pink_Noise_3_1.wav,Pink_Noise_3_2.wav,,,,,,,,,,,,,,,0,117,117,98,,,,,,,,,,,,,,,,,,,,,,,747.189106691163,None,748.6888359191362,None,750.0724503679667,None,chant,750.0724503679667,None,return,1.2371428038459271,750.1557829470839,None,,,,,,,,,,,,,,,,,,,,,,,,,,,,,,,,,59,001,2023_Mar_15_2015,SpeechDraft1Carolyn_lessNoise_PlusLocalization,2021.2.3,59.97357676741839,
brief.wav,brief.mpg,brief,3,AV,Pink_Noise_3_1.wav,Pink_Noise_3_2.wav,,,,,,,,,,,,,,,0,118,118,89,,,,,,,,,,,,,,,,,,,,,,,751.4225034590345,None,752.9388840850443,None,754.3058290090412,None,breathe,754.3058290090412,None,return,2.075751171912998,754.3891853771638,None,,,,,,,,,,,,,,,,,,,,,,,,,,,,,,,,,59,001,2023_Mar_15_2015,SpeechDraft1Carolyn_lessNoise_PlusLocalization,2021.2.3,59.97357676741839,
flip.wav,flip.mpg,flip,5,A,Pink_Noise_5_1.wav,Pink_Noise_5_2.wav,,,,,,,,,,,,,,,0,119,119,46,,,,,,,,,,,,,,,,,,,,,,,756.4891592501663,None,758.005471924087,None,759.3891656571068,None,flip,759.3891656571068,None,return,1.3764281829353422,759.4725271530915,None,,,,,,,,,,,,,,,,,,,,,,,,,,,,,,,,,59,001,2023_Mar_15_2015,SpeechDraft1Carolyn_lessNoise_PlusLocalization,2021.2.3,59.97357676741839,
,,,,,,,,,,,,,,,,,,,,,,,,,,,,,,,,,,,,,,,,,,,,,,,,,,,,,,,,,,,,,,,,,,space,10.101155730895698,760.955777333118,None,,,,,,,,,,,,,,,,,,,,,,,59,001,2023_Mar_15_2015,SpeechDraft1Carolyn_lessNoise_PlusLocalization,2021.2.3,59.97357676741839,
,,,,,,,,nearRight,6.5,0,ch1Sound_localizationTask.wav,6.5,"(1047, 878)","(87, -202)",95,-338,,,,,,,,,0,0,0,4,,,,,,,,,,,,,,,,,,,,,,,,,,,,,,,,,,,,,,,,,,760.955777333118,None,771.1056072080974,None,772.2055742901284,None,773.1390109451022,None,1.3100529100529101,2.235725472914055,773.1390109451022,None,,,,,,,,,,,59,001,2023_Mar_15_2015,SpeechDraft1Carolyn_lessNoise_PlusLocalization,2021.2.3,59.97357676741839,
,,,,,,,,nearRight,6.5,0,ch1Sound_localizationTask.wav,6.5,"(1047, 878)","(87, -202)",95,-338,,,,,,,,,0,1,1,4,,,,,,,,,,,,,,,,,,,,,,,,,,,,,,,,,,,,,,,,,,,,775.374257953139,None,776.4889404720161,None,777.4055414190516,None,1.4518518518518517,0.8848222338128835,777.4055414190516,None,,,,,,,,,,,59,001,2023_Mar_15_2015,SpeechDraft1Carolyn_lessNoise_PlusLocalization,2021.2.3,59.97357676741839,
,,,,,,,,farRight,19.1,4,ch1Sound_localizationTask.wav,19.1,"(1237, 878)","(277,-202)",285,-338,,,,,,,,,0,2,2,6,,,,,,,,,,,,,,,,,,,,,,,,,,,,,,,,,,,,,,,,,,,,778.305935732089,None,779.405532478122,None,780.3389998711646,None,1.6216931216931219,0.8828860358335078,780.3389998711646,None,,,,,,,,,,,59,001,2023_Mar_15_2015,SpeechDraft1Carolyn_lessNoise_PlusLocalization,2021.2.3,59.97357676741839,
,,,,,,,,farLeft,-19.1,5,ch1Sound_localizationTask.wav,-19.1,"(667, 878)","(-293,-202)",-285,-338,,,,,,,,,0,3,3,0,,,,,,,,,,,,,,,,,,,,,,,,,,,,,,,,,,,,,,,,,,,,781.2230219331104,None,782.3222256801091,None,783.2556943011004,None,1.0925925925925926,1.1337990360334516,783.2556943011004,None,,,,,,,,,,,59,001,2023_Mar_15_2015,SpeechDraft1Carolyn_lessNoise_PlusLocalization,2021.2.3,59.97357676741839,
,,,,,,,,midRight,13.0,3,ch1Sound_localizationTask.wav,13.0,"(1142, 878)","(182, -202)",190,-338,,,,,,,,,0,4,4,5,,,,,,,,,,,,,,,,,,,,,,,,,,,,,,,,,,,,,,,,,,,,784.3904872690327,None,785.5055279941298,None,786.422236133134,None,1.5666666666666667,1.150044065900147,786.422236133134,None,,,,,,,,,,,59,001,2023_Mar_15_2015,SpeechDraft1Carolyn_lessNoise_PlusLocalization,2021.2.3,59.97357676741839,
,,,,,,,,center,0.0,6,ch1Sound_localizationTask.wav,0.0,"(952, 878)","(-8,-202)",0,-338,,,,,,,,,0,5,5,3,,,,,,,,,,,,,,,,,,,,,,,,,,,,,,,,,,,,,,,,,,,,787.5732528720982,None,788.6721709871199,None,789.6055542330723,None,1.4894179894179893,1.016369238961488,789.6055542330723,None,,,,,,,,,,,59,001,2023_Mar_15_2015,SpeechDraft1Carolyn_lessNoise_PlusLocalization,2021.2.3,59.97357676741839,
,,,,,,,,farRight,19.1,4,ch1Sound_localizationTask.wav,19.1,"(1237, 878)","(277,-202)",285,-338,,,,,,,,,0,6,6,6,,,,,,,,,,,,,,,,,,,,,,,,,,,,,,,,,,,,,,,,,,,,790.6231023180299,None,791.7222565480042,None,792.6556726819836,None,1.7497354497354498,1.0662499729078263,792.6556726819836,None,,,,,,,,,,,59,001,2023_Mar_15_2015,SpeechDraft1Carolyn_lessNoise_PlusLocalization,2021.2.3,59.97357676741839,
,,,,,,,,midLeft,-13.0,2,ch1Sound_localizationTask.wav,-13.0,"(762, 878)","(-198,-202)",-190,-338,,,,,,,,,1,0,7,1,,,,,,,,,,,,,,,,,,,,,,,,,,,,,,,,,,,,,,,,,,,,793.7391699440777,None,794.8388550090604,None,795.7723522880115,None,1.2354497354497354,1.6338543698657304,795.7723522880115,None,,,,,,,,,,,59,001,2023_Mar_15_2015,SpeechDraft1Carolyn_lessNoise_PlusLocalization,2021.2.3,59.97357676741839,
,,,,,,,,farLeft,-19.1,5,ch1Sound_localizationTask.wav,-19.1,"(667, 878)","(-293,-202)",-285,-338,,,,,,,,,1,1,8,0,,,,,,,,,,,,,,,,,,,,,,,,,,,,,,,,,,,,,,,,,,,,797.4066700150725,None,798.5059568840079,None,799.4389486820437,None,1.3015873015873016,0.868557478999719,799.4389486820437,None,,,,,,,,,,,59,001,2023_Mar_15_2015,SpeechDraft1Carolyn_lessNoise_PlusLocalization,2021.2.3,59.97357676741839,
,,,,,,,,center,0.0,6,ch1Sound_localizationTask.wav,0.0,"(952, 878)","(-8,-202)",0,-338,,,,,,,,,1,2,9,3,,,,,,,,,,,,,,,,,,,,,,,,,,,,,,,,,,,,,,,,,,,,800.3225661569741,None,801.4223431041464,None,802.3557369711343,None,1.4761904761904763,1.0162941839080304,802.3557369711343,None,,,,,,,,,,,59,001,2023_Mar_15_2015,SpeechDraft1Carolyn_lessNoise_PlusLocalization,2021.2.3,59.97357676741839,
,,,,,,,,nearLeft,-6.5,1,ch1Sound_localizationTask.wav,-6.5,"(857, 878)","(-103,-202)",-95,-338,,,,,,,,,1,3,10,2,,,,,,,,,,,,,,,,,,,,,,,,,,,,,,,,,,,,,,,,,,,,803.3890055089723,None,804.4889899820555,None,805.4057053581346,None,1.4925925925925925,0.832246087025851,805.4057053581346,None,,,,,,,,,,,59,001,2023_Mar_15_2015,SpeechDraft1Carolyn_lessNoise_PlusLocalization,2021.2.3,59.97357676741839,
,,,,,,,,midLeft,-13.0,2,ch1Sound_localizationTask.wav,-13.0,"(762, 878)","(-198,-202)",-190,-338,,,,,,,,,1,4,11,1,,,,,,,,,,,,,,,,,,,,,,,,,,,,,,,,,,,,,,,,,,,,806.239625700051,None,807.3389404590707,None,808.2722091809846,None,1.3534391534391534,1.0993835299741477,808.2722091809846,None,,,,,,,,,,,59,001,2023_Mar_15_2015,SpeechDraft1Carolyn_lessNoise_PlusLocalization,2021.2.3,59.97357676741839,
,,,,,,,,farRight,19.1,4,ch1Sound_localizationTask.wav,19.1,"(1237, 878)","(277,-202)",285,-338,,,,,,,,,1,5,12,6,,,,,,,,,,,,,,,,,,,,,,,,,,,,,,,,,,,,,,,,,,,,809.3728836241644,None,810.4722079311032,None,811.4056091089733,None,1.6544973544973545,0.8321154008153826,811.4056091089733,None,,,,,,,,,,,59,001,2023_Mar_15_2015,SpeechDraft1Carolyn_lessNoise_PlusLocalization,2021.2.3,59.97357676741839,
,,,,,,,,midLeft,-13.0,2,ch1Sound_localizationTask.wav,-13.0,"(762, 878)","(-198,-202)",-190,-338,,,,,,,,,1,6,13,1,,,,,,,,,,,,,,,,,,,,,,,,,,,,,,,,,,,,,,,,,,,,812.2396054510027,None,813.338838347001,None,814.2721508049872,None,1.3634920634920635,1.199017854873091,814.2721508049872,None,,,,,,,,,,,59,001,2023_Mar_15_2015,SpeechDraft1Carolyn_lessNoise_PlusLocalization,2021.2.3,59.97357676741839,
,,,,,,,,midRight,13.0,3,ch1Sound_localizationTask.wav,13.0,"(1142, 878)","(182, -202)",190,-338,,,,,,,,,2,0,14,5,,,,,,,,,,,,,,,,,,,,,,,,,,,,,,,,,,,,,,,,,,,,815.4729804310482,None,816.5722131261136,None,817.5058028011117,None,1.6597883597883598,1.1158594889566302,817.5058028011117,None,,,,,,,,,,,59,001,2023_Mar_15_2015,SpeechDraft1Carolyn_lessNoise_PlusLocalization,2021.2.3,59.97357676741839,
,,,,,,,,farRight,19.1,4,ch1Sound_localizationTask.wav,19.1,"(1237, 878)","(277,-202)",285,-338,,,,,,,,,2,1,15,6,,,,,,,,,,,,,,,,,,,,,,,,,,,,,,,,,,,,,,,,,,,,818.6228523121681,None,819.7223043611739,None,820.6556635780726,None,1.5592592592592593,0.7826842840295285,820.6556635780726,None,,,,,,,,,,,59,001,2023_Mar_15_2015,SpeechDraft1Carolyn_lessNoise_PlusLocalization,2021.2.3,59.97357676741839,
,,,,,,,,midRight,13.0,3,ch1Sound_localizationTask.wav,13.0,"(1142, 878)","(182, -202)",190,-338,,,,,,,,,2,2,16,5,,,,,,,,,,,,,,,,,,,,,,,,,,,,,,,,,,,,,,,,,,,,821.4402229711413,None,822.5389232190792,None,823.4722730300855,None,1.5407407407407407,0.6825971030630171,823.4722730300855,None,,,,,,,,,,,59,001,2023_Mar_15_2015,SpeechDraft1Carolyn_lessNoise_PlusLocalization,2021.2.3,59.97357676741839,
,,,,,,,,midLeft,-13.0,2,ch1Sound_localizationTask.wav,-13.0,"(762, 878)","(-198,-202)",-190,-338,,,,,,,,,2,3,17,1,,,,,,,,,,,,,,,,,,,,,,,,,,,,,,,,,,,,,,,,,,,,824.1561169340275,None,825.2556203061249,None,826.1888942101505,None,1.3243386243386244,1.09849519492127,826.1888942101505,None,,,,,,,,,,,59,001,2023_Mar_15_2015,SpeechDraft1Carolyn_lessNoise_PlusLocalization,2021.2.3,59.97357676741839,
,,,,,,,,midRight,13.0,3,ch1Sound_localizationTask.wav,13.0,"(1142, 878)","(182, -202)",190,-338,,,,,,,,,2,4,18,5,,,,,,,,,,,,,,,,,,,,,,,,,,,,,,,,,,,,,,,,,,,,827.2892369739711,None,828.3888945891522,None,829.3223653330933,None,1.5989417989417989,0.8165286341682076,829.3223653330933,None,,,,,,,,,,,59,001,2023_Mar_15_2015,SpeechDraft1Carolyn_lessNoise_PlusLocalization,2021.2.3,59.97357676741839,
,,,,,,,,farRight,19.1,4,ch1Sound_localizationTask.wav,19.1,"(1237, 878)","(277,-202)",285,-338,,,,,,,,,2,5,19,6,,,,,,,,,,,,,,,,,,,,,,,,,,,,,,,,,,,,,,,,,,,,830.1400335109793,None,831.2390999861527,None,832.1724349681754,None,1.635978835978836,0.9166178631130606,832.1724349681754,None,,,,,,,,,,,59,001,2023_Mar_15_2015,SpeechDraft1Carolyn_lessNoise_PlusLocalization,2021.2.3,59.97357676741839,
,,,,,,,,center,0.0,6,ch1Sound_localizationTask.wav,0.0,"(952, 878)","(-8,-202)",0,-338,,,,,,,,,2,6,20,3,,,,,,,,,,,,,,,,,,,,,,,,,,,,,,,,,,,,,,,,,,,,833.0902465879917,None,834.1889608220663,None,835.1222176970914,None,1.4756613756613757,1.1662465641275048,835.1222176970914,None,,,,,,,,,,,59,001,2023_Mar_15_2015,SpeechDraft1Carolyn_lessNoise_PlusLocalization,2021.2.3,59.97357676741839,
,,,,,,,,nearLeft,-6.5,1,ch1Sound_localizationTask.wav,-6.5,"(857, 878)","(-103,-202)",-95,-338,,,,,,,,,3,0,21,2,,,,,,,,,,,,,,,,,,,,,,,,,,,,,,,,,,,,,,,,,,,,836.2901539530139,None,837.3889594380744,None,838.3223568829708,None,1.4317460317460318,1.566159978043288,838.3223568829708,None,,,,,,,,,,,59,001,2023_Mar_15_2015,SpeechDraft1Carolyn_lessNoise_PlusLocalization,2021.2.3,59.97357676741839,
,,,,,,,,center,0.0,6,ch1Sound_localizationTask.wav,0.0,"(952, 878)","(-8,-202)",0,-338,,,,,,,,,3,1,22,3,,,,,,,,,,,,,,,,,,,,,,,,,,,,,,,,,,,,,,,,,,,,839.8897843291052,None,840.9890461929608,None,841.9224044610746,None,1.4994708994708994,0.6822410800959915,841.9224044610746,None,,,,,,,,,,,59,001,2023_Mar_15_2015,SpeechDraft1Carolyn_lessNoise_PlusLocalization,2021.2.3,59.97357676741839,
,,,,,,,,center,0.0,6,ch1Sound_localizationTask.wav,0.0,"(952, 878)","(-8,-202)",0,-338,,,,,,,,,3,2,23,3,,,,,,,,,,,,,,,,,,,,,,,,,,,,,,,,,,,,,,,,,,,,842.6062336331233,None,843.7057215729728,None,844.6389115920756,None,1.4952380952380953,0.8507795969489962,844.6389115920756,None,,,,,,,,,,,59,001,2023_Mar_15_2015,SpeechDraft1Carolyn_lessNoise_PlusLocalization,2021.2.3,59.97357676741839,
,,,,,,,,farLeft,-19.1,5,ch1Sound_localizationTask.wav,-19.1,"(667, 878)","(-293,-202)",-285,-338,,,,,,,,,3,3,24,0,,,,,,,,,,,,,,,,,,,,,,,,,,,,,,,,,,,,,,,,,,,,845.5058812620118,None,846.6056445501745,None,847.53901614598,None,1.3095238095238095,1.2183333379216492,847.53901614598,None,,,,,,,,,,,59,001,2023_Mar_15_2015,SpeechDraft1Carolyn_lessNoise_PlusLocalization,2021.2.3,59.97357676741839,
,,,,,,,,nearRight,6.5,0,ch1Sound_localizationTask.wav,6.5,"(1047, 878)","(87, -202)",95,-338,,,,,,,,,3,4,25,4,,,,,,,,,,,,,,,,,,,,,,,,,,,,,,,,,,,,,,,,,,,,848.7738558980636,None,849.889008138096,None,850.805684331106,None,1.4730158730158731,1.348825192078948,850.805684331106,None,,,,,,,,,,,59,001,2023_Mar_15_2015,SpeechDraft1Carolyn_lessNoise_PlusLocalization,2021.2.3,59.97357676741839,
,,,,,,,,farLeft,-19.1,5,ch1Sound_localizationTask.wav,-19.1,"(667, 878)","(-293,-202)",-285,-338,,,,,,,,,3,5,26,0,,,,,,,,,,,,,,,,,,,,,,,,,,,,,,,,,,,,,,,,,,,,852.1563359899446,None,853.2556504921522,None,854.1890651870053,None,1.2772486772486773,0.8162665530107915,854.1890651870053,None,,,,,,,,,,,59,001,2023_Mar_15_2015,SpeechDraft1Carolyn_lessNoise_PlusLocalization,2021.2.3,59.97357676741839,
,,,,,,,,midRight,13.0,3,ch1Sound_localizationTask.wav,13.0,"(1142, 878)","(182, -202)",190,-338,,,,,,,,,3,6,27,5,,,,,,,,,,,,,,,,,,,,,,,,,,,,,,,,,,,,,,,,,,,,855.0061526689678,None,856.1056525951717,None,857.0392444410827,None,1.6042328042328042,0.8809979180805385,857.0392444410827,None,,,,,,,,,,,59,001,2023_Mar_15_2015,SpeechDraft1Carolyn_lessNoise_PlusLocalization,2021.2.3,59.97357676741839,
,,,,,,,,nearLeft,-6.5,1,ch1Sound_localizationTask.wav,-6.5,"(857, 878)","(-103,-202)",-95,-338,,,,,,,,,4,0,28,2,,,,,,,,,,,,,,,,,,,,,,,,,,,,,,,,,,,,,,,,,,,,857.9234942230396,None,859.0223379691597,None,859.9556633520406,None,1.3111111111111111,1.082841119961813,859.9556633520406,None,,,,,,,,,,,59,001,2023_Mar_15_2015,SpeechDraft1Carolyn_lessNoise_PlusLocalization,2021.2.3,59.97357676741839,
,,,,,,,,midLeft,-13.0,2,ch1Sound_localizationTask.wav,-13.0,"(762, 878)","(-198,-202)",-190,-338,,,,,,,,,4,1,29,1,,,,,,,,,,,,,,,,,,,,,,,,,,,,,,,,,,,,,,,,,,,,861.0408313521184,None,862.1557521000504,None,863.0722684650682,None,1.2116402116402116,0.7829082000534981,863.0722684650682,None,,,,,,,,,,,59,001,2023_Mar_15_2015,SpeechDraft1Carolyn_lessNoise_PlusLocalization,2021.2.3,59.97357676741839,
,,,,,,,,farLeft,-19.1,5,ch1Sound_localizationTask.wav,-19.1,"(667, 878)","(-293,-202)",-285,-338,,,,,,,,,4,2,30,0,,,,,,,,,,,,,,,,,,,,,,,,,,,,,,,,,,,,,,,,,,,,863.8564501029905,None,864.9556894870475,None,865.8889489271678,None,1.146031746031746,0.9498253520578146,865.8889489271678,None,,,,,,,,,,,59,001,2023_Mar_15_2015,SpeechDraft1Carolyn_lessNoise_PlusLocalization,2021.2.3,59.97357676741839,
,,,,,,,,farLeft,-19.1,5,ch1Sound_localizationTask.wav,-19.1,"(667, 878)","(-293,-202)",-285,-338,,,,,,,,,4,3,31,0,,,,,,,,,,,,,,,,,,,,,,,,,,,,,,,,,,,,,,,,,,,,866.8404809939675,None,867.9557128211018,None,868.872244656086,None,1.2867724867724868,0.7493879829999059,868.872244656086,None,,,,,,,,,,,59,001,2023_Mar_15_2015,SpeechDraft1Carolyn_lessNoise_PlusLocalization,2021.2.3,59.97357676741839,
,,,,,,,,farRight,19.1,4,ch1Sound_localizationTask.wav,19.1,"(1237, 878)","(277,-202)",285,-338,,,,,,,,,4,4,32,6,,,,,,,,,,,,,,,,,,,,,,,,,,,,,,,,,,,,,,,,,,,,869.6229915469885,None,870.722366407048,None,871.6556567379739,None,1.6386243386243386,1.0341077400371432,871.6556567379739,None,,,,,,,,,,,59,001,2023_Mar_15_2015,SpeechDraft1Carolyn_lessNoise_PlusLocalization,2021.2.3,59.97357676741839,
,,,,,,,,midLeft,-13.0,2,ch1Sound_localizationTask.wav,-13.0,"(762, 878)","(-198,-202)",-190,-338,,,,,,,,,4,5,33,1,,,,,,,,,,,,,,,,,,,,,,,,,,,,,,,,,,,,,,,,,,,,872.7058839430101,None,873.8056639530696,None,874.739060349064,None,1.2931216931216931,1.115219920873642,874.739060349064,None,,,,,,,,,,,59,001,2023_Mar_15_2015,SpeechDraft1Carolyn_lessNoise_PlusLocalization,2021.2.3,59.97357676741839,
,,,,,,,,nearRight,6.5,0,ch1Sound_localizationTask.wav,6.5,"(1047, 878)","(87, -202)",95,-338,,,,,,,,,4,6,34,4,,,,,,,,,,,,,,,,,,,,,,,,,,,,,,,,,,,,,,,,,,,,875.8564312551171,None,876.9556998230983,None,877.8889301391318,None,1.53015873015873,0.8493990160059184,877.8889301391318,None,,,,,,,,,,,59,001,2023_Mar_15_2015,SpeechDraft1Carolyn_lessNoise_PlusLocalization,2021.2.3,59.97357676741839,
,,,,,,,,farLeft,-19.1,5,ch1Sound_localizationTask.wav,-19.1,"(667, 878)","(-293,-202)",-285,-338,,,,,,,,,5,0,35,0,,,,,,,,,,,,,,,,,,,,,,,,,,,,,,,,,,,,,,,,,,,,878.7402125541121,None,879.8391660309862,None,880.7723363540135,None,1.3063492063492064,0.8994895259384066,880.7723363540135,None,,,,,,,,,,,59,001,2023_Mar_15_2015,SpeechDraft1Carolyn_lessNoise_PlusLocalization,2021.2.3,59.97357676741839,
,,,,,,,,nearRight,6.5,0,ch1Sound_localizationTask.wav,6.5,"(1047, 878)","(87, -202)",95,-338,,,,,,,,,5,1,36,4,,,,,,,,,,,,,,,,,,,,,,,,,,,,,,,,,,,,,,,,,,,,881.6738188839518,None,882.7891075990628,None,883.70565098105,None,1.6058201058201058,0.9823047281242907,883.70565098105,None,,,,,,,,,,,59,001,2023_Mar_15_2015,SpeechDraft1Carolyn_lessNoise_PlusLocalization,2021.2.3,59.97357676741839,
,,,,,,,,nearRight,6.5,0,ch1Sound_localizationTask.wav,6.5,"(1047, 878)","(87, -202)",95,-338,,,,,,,,,5,2,37,4,,,,,,,,,,,,,,,,,,,,,,,,,,,,,,,,,,,,,,,,,,,,884.6897158219945,None,885.789162933128,None,886.7224830500782,None,1.5084656084656085,0.8330259348731488,886.7224830500782,None,,,,,,,,,,,59,001,2023_Mar_15_2015,SpeechDraft1Carolyn_lessNoise_PlusLocalization,2021.2.3,59.97357676741839,
,,,,,,,,nearLeft,-6.5,1,ch1Sound_localizationTask.wav,-6.5,"(857, 878)","(-103,-202)",-95,-338,,,,,,,,,5,3,38,2,,,,,,,,,,,,,,,,,,,,,,,,,,,,,,,,,,,,,,,,,,,,887.5568342120387,None,888.6557012591511,None,889.5890526501462,None,1.4010582010582011,0.917311831144616,889.5890526501462,None,,,,,,,,,,,59,001,2023_Mar_15_2015,SpeechDraft1Carolyn_lessNoise_PlusLocalization,2021.2.3,59.97357676741839,
,,,,,,,,nearRight,6.5,0,ch1Sound_localizationTask.wav,6.5,"(1047, 878)","(87, -202)",95,-338,,,,,,,,,5,4,39,4,,,,,,,,,,,,,,,,,,,,,,,,,,,,,,,,,,,,,,,,,,,,890.5228843630757,None,891.622720791027,None,892.5557724630926,None,1.5201058201058202,0.8169923410750926,892.5557724630926,None,,,,,,,,,,,59,001,2023_Mar_15_2015,SpeechDraft1Carolyn_lessNoise_PlusLocalization,2021.2.3,59.97357676741839,
,,,,,,,,nearRight,6.5,0,ch1Sound_localizationTask.wav,6.5,"(1047, 878)","(87, -202)",95,-338,,,,,,,,,5,5,40,4,,,,,,,,,,,,,,,,,,,,,,,,,,,,,,,,,,,,,,,,,,,,893.3736401579808,None,894.4891060220543,None,895.4060013911221,None,1.5015873015873016,0.8666198791470379,895.4060013911221,None,,,,,,,,,,,59,001,2023_Mar_15_2015,SpeechDraft1Carolyn_lessNoise_PlusLocalization,2021.2.3,59.97357676741839,
,,,,,,,,farRight,19.1,4,ch1Sound_localizationTask.wav,19.1,"(1237, 878)","(277,-202)",285,-338,,,,,,,,,5,6,41,6,,,,,,,,,,,,,,,,,,,,,,,,,,,,,,,,,,,,,,,,,,,,896.2731437571347,None,897.3723737590481,None,898.3057929619681,None,1.71005291005291,1.0498275589197874,898.3057929619681,None,,,,,,,,,,,59,001,2023_Mar_15_2015,SpeechDraft1Carolyn_lessNoise_PlusLocalization,2021.2.3,59.97357676741839,
,,,,,,,,midRight,13.0,3,ch1Sound_localizationTask.wav,13.0,"(1142, 878)","(182, -202)",190,-338,,,,,,,,,6,0,42,5,,,,,,,,,,,,,,,,,,,,,,,,,,,,,,,,,,,,,,,,,,,,899.3565432969481,None,900.4559253270272,None,901.3890152550302,None,1.5322751322751322,0.9826510429847986,901.3890152550302,None,,,,,,,,,,,59,001,2023_Mar_15_2015,SpeechDraft1Carolyn_lessNoise_PlusLocalization,2021.2.3,59.97357676741839,
,,,,,,,,nearLeft,-6.5,1,ch1Sound_localizationTask.wav,-6.5,"(857, 878)","(-103,-202)",-95,-338,,,,,,,,,6,1,43,2,,,,,,,,,,,,,,,,,,,,,,,,,,,,,,,,,,,,,,,,,,,,902.3731216499582,None,903.4726133230142,None,904.405727262143,None,1.37989417989418,1.0322388929780573,904.405727262143,None,,,,,,,,,,,59,001,2023_Mar_15_2015,SpeechDraft1Carolyn_lessNoise_PlusLocalization,2021.2.3,59.97357676741839,
,,,,,,,,nearLeft,-6.5,1,ch1Sound_localizationTask.wav,-6.5,"(857, 878)","(-103,-202)",-95,-338,,,,,,,,,6,2,44,2,,,,,,,,,,,,,,,,,,,,,,,,,,,,,,,,,,,,,,,,,,,,905.4398709549569,None,906.5390451929998,None,907.4724412099458,None,1.4465608465608466,0.6987001409288496,907.4724412099458,None,,,,,,,,,,,59,001,2023_Mar_15_2015,SpeechDraft1Carolyn_lessNoise_PlusLocalization,2021.2.3,59.97357676741839,
,,,,,,,,midLeft,-13.0,2,ch1Sound_localizationTask.wav,-13.0,"(762, 878)","(-198,-202)",-190,-338,,,,,,,,,6,3,45,1,,,,,,,,,,,,,,,,,,,,,,,,,,,,,,,,,,,,,,,,,,,,908.1729356260039,None,909.2724896480795,None,910.2059033040423,None,1.1576719576719576,1.5322920780163258,910.2059033040423,None,,,,,,,,,,,59,001,2023_Mar_15_2015,SpeechDraft1Carolyn_lessNoise_PlusLocalization,2021.2.3,59.97357676741839,
,,,,,,,,midLeft,-13.0,2,ch1Sound_localizationTask.wav,-13.0,"(762, 878)","(-198,-202)",-190,-338,,,,,,,,,6,4,46,1,,,,,,,,,,,,,,,,,,,,,,,,,,,,,,,,,,,,,,,,,,,,911.7396729879547,None,912.8391011659987,None,913.7725189640187,None,1.0571428571428572,0.8660737159661949,913.7725189640187,None,,,,,,,,,,,59,001,2023_Mar_15_2015,SpeechDraft1Carolyn_lessNoise_PlusLocalization,2021.2.3,59.97357676741839,
,,,,,,,,farRight,19.1,4,ch1Sound_localizationTask.wav,19.1,"(1237, 878)","(277,-202)",285,-338,,,,,,,,,6,5,47,6,,,,,,,,,,,,,,,,,,,,,,,,,,,,,,,,,,,,,,,,,,,,914.6402022039983,None,915.7389721211512,None,916.6724313071463,None,1.737037037037037,1.2999125481583178,916.6724313071463,None,,,,,,,,,,,59,001,2023_Mar_15_2015,SpeechDraft1Carolyn_lessNoise_PlusLocalization,2021.2.3,59.97357676741839,
,,,,,,,,farLeft,-19.1,5,ch1Sound_localizationTask.wav,-19.1,"(667, 878)","(-293,-202)",-285,-338,,,,,,,,,6,6,48,0,,,,,,,,,,,,,,,,,,,,,,,,,,,,,,,,,,,,,,,,,,,,917.9748495609965,None,919.089114530012,None,920.0225510040764,None,1.2301587301587302,0.926108457846567,920.0225510040764,None,,,,,,,,,,,59,001,2023_Mar_15_2015,SpeechDraft1Carolyn_lessNoise_PlusLocalization,2021.2.3,59.97357676741839,
,,,,,,,,nearLeft,-6.5,1,ch1Sound_localizationTask.wav,-6.5,"(857, 878)","(-103,-202)",-95,-338,,,,,,,,,7,0,49,2,,,,,,,,,,,,,,,,,,,,,,,,,,,,,,,,,,,,,,,,,,,,920.9401260600425,None,922.0391378861386,None,922.9723979050759,None,1.4894179894179893,0.7151716621592641,922.9723979050759,None,,,,,,,,,,,59,001,2023_Mar_15_2015,SpeechDraft1Carolyn_lessNoise_PlusLocalization,2021.2.3,59.97357676741839,
,,,,,,,,nearLeft,-6.5,1,ch1Sound_localizationTask.wav,-6.5,"(857, 878)","(-103,-202)",-95,-338,,,,,,,,,7,1,50,2,,,,,,,,,,,,,,,,,,,,,,,,,,,,,,,,,,,,,,,,,,,,923.6897786459886,None,924.789084267104,None,925.7223579760175,None,1.3042328042328042,0.9836009258870035,925.7223579760175,None,,,,,,,,,,,59,001,2023_Mar_15_2015,SpeechDraft1Carolyn_lessNoise_PlusLocalization,2021.2.3,59.97357676741839,
,,,,,,,,midRight,13.0,3,ch1Sound_localizationTask.wav,13.0,"(1142, 878)","(182, -202)",190,-338,,,,,,,,,7,2,51,5,,,,,,,,,,,,,,,,,,,,,,,,,,,,,,,,,,,,,,,,,,,,926.7070479970425,None,927.805716779083,None,928.7390986271203,None,1.6264550264550266,1.0000664109829813,928.7390986271203,None,,,,,,,,,,,59,001,2023_Mar_15_2015,SpeechDraft1Carolyn_lessNoise_PlusLocalization,2021.2.3,59.97357676741839,
,,,,,,,,center,0.0,6,ch1Sound_localizationTask.wav,0.0,"(952, 878)","(-8,-202)",0,-338,,,,,,,,,7,3,52,3,,,,,,,,,,,,,,,,,,,,,,,,,,,,,,,,,,,,,,,,,,,,929.7399220750667,None,930.839353680145,None,931.7725224620663,None,1.4253968253968254,0.8332253789994866,931.7725224620663,None,,,,,,,,,,,59,001,2023_Mar_15_2015,SpeechDraft1Carolyn_lessNoise_PlusLocalization,2021.2.3,59.97357676741839,
,,,,,,,,midRight,13.0,3,ch1Sound_localizationTask.wav,13.0,"(1142, 878)","(182, -202)",190,-338,,,,,,,,,7,4,53,5,,,,,,,,,,,,,,,,,,,,,,,,,,,,,,,,,,,,,,,,,,,,932.6067534231115,None,933.7057152001653,None,934.6390054479707,None,1.6253968253968254,0.9331899529788643,934.6390054479707,None,,,,,,,,,,,59,001,2023_Mar_15_2015,SpeechDraft1Carolyn_lessNoise_PlusLocalization,2021.2.3,59.97357676741839,
,,,,,,,,center,0.0,6,ch1Sound_localizationTask.wav,0.0,"(952, 878)","(-8,-202)",0,-338,,,,,,,,,7,5,54,3,,,,,,,,,,,,,,,,,,,,,,,,,,,,,,,,,,,,,,,,,,,,935.5740957860835,None,936.6891671791673,None,937.6061148911249,None,1.4444444444444444,0.7664266850333661,937.6061148911249,None,,,,,,,,,,,59,001,2023_Mar_15_2015,SpeechDraft1Carolyn_lessNoise_PlusLocalization,2021.2.3,59.97357676741839,
,,,,,,,,center,0.0,6,ch1Sound_localizationTask.wav,0.0,"(952, 878)","(-8,-202)",0,-338,,,,,,,,,7,6,55,3,,,,,,,,,,,,,,,,,,,,,,,,,,,,,,,,,,,,,,,,,,,,938.3739793761633,None,939.489172175061,None,940.4058706131764,None,1.4984126984126984,0.9829399671871215,940.4058706131764,None,,,,,,,,,,,59,001,2023_Mar_15_2015,SpeechDraft1Carolyn_lessNoise_PlusLocalization,2021.2.3,59.97357676741839,
,,,,,,,,,,,,,,,,,,,,,,,,,,,,,,,,,,,,,,,,,,,,,,,,,,,,,,,,,,,,,,,,,,,,,,,,,,,,,,,,,,space,6.256173297064379,941.4727807519957,None,,,,,,,59,001,2023_Mar_15_2015,SpeechDraft1Carolyn_lessNoise_PlusLocalization,2021.2.3,59.97357676741839,
,,,,,,,,midLeft,-13.0,2,ch1Sound_localizationTask.wav,-13.0,"(762, 878)","(-198,-202)",-190,-338,,,,,,,,,,,,,0,0,0,1,,,,,,,,,,,,,,,,,,,,,,,,,,,,,,,,,,,,,,,,947.7723959709983,None,,,950.8058854490519,None,1.3777777777777778,1.954741780180484,950.8058854490519,None,,,,,941.4727807519957,None,948.7727561781649,None,948.9560926109552,948.9727629940026,59,001,2023_Mar_15_2015,SpeechDraft1Carolyn_lessNoise_PlusLocalization,2021.2.3,59.97357676741839,
,,,,,,,,center,0.0,6,ch1Sound_localizationTask.wav,0.0,"(952, 878)","(-8,-202)",0,-338,,,,,,,,,,,,,0,1,1,3,,,,,,,,,,,,,,,,,,,,,,,,,,,,,,,,,,,,,,,,952.7578291629907,None,,,955.7891322630458,None,1.5164021164021164,0.9998061419464648,955.7891322630458,None,,,,,,,953.7727843511384,None,953.9560328209773,953.9726976021193,59,001,2023_Mar_15_2015,SpeechDraft1Carolyn_lessNoise_PlusLocalization,2021.2.3,59.97357676741839,
,,,,,,,,midLeft,-13.0,2,ch1Sound_localizationTask.wav,-13.0,"(762, 878)","(-198,-202)",-190,-338,,,,,,,,,,,,,0,2,2,1,,,,,,,,,,,,,,,,,,,,,,,,,,,,,,,,,,,,,,,,956.7903009101283,None,,,959.8058147421107,None,1.3698412698412699,1.0994985271245241,959.8058147421107,None,,,,,,,957.7894241150934,None,957.9727446450852,957.9893996510655,59,001,2023_Mar_15_2015,SpeechDraft1Carolyn_lessNoise_PlusLocalization,2021.2.3,59.97357676741839,
,,,,,,,,nearRight,6.5,0,ch1Sound_localizationTask.wav,6.5,"(1047, 878)","(87, -202)",95,-338,,,,,,,,,,,,,0,3,3,4,,,,,,,,,,,,,,,,,,,,,,,,,,,,,,,,,,,,,,,,960.9230963811278,None,,,963.9391845529899,None,1.547089947089947,1.2314270657952875,963.9391845529899,None,,,,,,,961.9226869619451,None,962.1061163190752,962.1227930621244,59,001,2023_Mar_15_2015,SpeechDraft1Carolyn_lessNoise_PlusLocalization,2021.2.3,59.97357676741839,
,,,,,,,,midRight,13.0,3,ch1Sound_localizationTask.wav,13.0,"(1142, 878)","(182, -202)",190,-338,,,,,,,,,,,,,0,4,4,5,,,,,,,,,,,,,,,,,,,,,,,,,,,,,,,,,,,,,,,,965.1730236590374,None,,,968.1891936750617,None,1.6164021164021163,1.6666285109240562,968.1891936750617,None,,,,,,,966.1726980500389,None,966.3561026020907,966.3727470389567,59,001,2023_Mar_15_2015,SpeechDraft1Carolyn_lessNoise_PlusLocalization,2021.2.3,59.97357676741839,
,,,,,,,,farLeft,-19.1,5,ch1Sound_localizationTask.wav,-19.1,"(667, 878)","(-293,-202)",-285,-338,,,,,,,,,,,,,0,5,5,0,,,,,,,,,,,,,,,,,,,,,,,,,,,,,,,,,,,,,,,,969.857087850105,None,,,972.8724235540722,None,1.3423280423280424,1.4000997089315206,972.8724235540722,None,,,,,,,970.8561103560496,None,971.0394525111187,971.0561424109619,59,001,2023_Mar_15_2015,SpeechDraft1Carolyn_lessNoise_PlusLocalization,2021.2.3,59.97357676741839,
,,,,,,,,center,0.0,6,ch1Sound_localizationTask.wav,0.0,"(952, 878)","(-8,-202)",0,-338,,,,,,,,,,,,,0,6,6,3,,,,,,,,,,,,,,,,,,,,,,,,,,,,,,,,,,,,,,,,974.2739452361129,None,,,977.3059051979799,None,1.5105820105820107,1.1163262100890279,977.3059051979799,None,,,,,,,975.2894174691755,None,975.4728462260682,975.4896239321679,59,001,2023_Mar_15_2015,SpeechDraft1Carolyn_lessNoise_PlusLocalization,2021.2.3,59.97357676741839,
,,,,,,,,midLeft,-13.0,2,ch1Sound_localizationTask.wav,-13.0,"(762, 878)","(-198,-202)",-190,-338,,,,,,,,,,,,,1,0,7,1,,,,,,,,,,,,,,,,,,,,,,,,,,,,,,,,,,,,,,,,978.4247998041101,None,,,981.4559227940626,None,1.3984126984126983,1.966096776071936,981.4559227940626,None,,,,,,,979.439506852068,None,979.622740625171,979.6395046911202,59,001,2023_Mar_15_2015,SpeechDraft1Carolyn_lessNoise_PlusLocalization,2021.2.3,59.97357676741839,
,,,,,,,,midRight,13.0,3,ch1Sound_localizationTask.wav,13.0,"(1142, 878)","(182, -202)",190,-338,,,,,,,,,,,,,1,1,8,5,,,,,,,,,,,,,,,,,,,,,,,,,,,,,,,,,,,,,,,,983.4240005810279,None,,,986.4558385179844,None,1.626984126984127,1.4999078859109432,986.4558385179844,None,,,,,,,984.4395263381302,None,984.6227711869869,984.6395863799844,59,001,2023_Mar_15_2015,SpeechDraft1Carolyn_lessNoise_PlusLocalization,2021.2.3,59.97357676741839,
,,,,,,,,midLeft,-13.0,2,ch1Sound_localizationTask.wav,-13.0,"(762, 878)","(-198,-202)",-190,-338,,,,,,,,,,,,,1,2,9,1,,,,,,,,,,,,,,,,,,,,,,,,,,,,,,,,,,,,,,,,987.9567219491582,None,,,990.9725313009694,None,1.3846560846560847,0.9490589019842446,990.9725313009694,None,,,,,,,988.9561578601133,None,989.1394511831459,989.1562253569718,59,001,2023_Mar_15_2015,SpeechDraft1Carolyn_lessNoise_PlusLocalization,2021.2.3,59.97357676741839,
,,,,,,,,nearLeft,-6.5,1,ch1Sound_localizationTask.wav,-6.5,"(857, 878)","(-103,-202)",-95,-338,,,,,,,,,,,,,1,3,10,2,,,,,,,,,,,,,,,,,,,,,,,,,,,,,,,,,,,,,,,,991.9231401660945,None,,,994.9392338711768,None,1.4645502645502646,0.8660219330340624,994.9392338711768,None,,,,,,,992.9227853510529,None,993.1061060591601,993.1227128989995,59,001,2023_Mar_15_2015,SpeechDraft1Carolyn_lessNoise_PlusLocalization,2021.2.3,59.97357676741839,
,,,,,,,,midRight,13.0,3,ch1Sound_localizationTask.wav,13.0,"(1142, 878)","(182, -202)",190,-338,,,,,,,,,,,,,1,4,11,5,,,,,,,,,,,,,,,,,,,,,,,,,,,,,,,,,,,,,,,,995.8070408960339,None,,,998.8225572810043,None,1.6105820105820106,1.564799966989085,998.8225572810043,None,,,,,,,996.8061288651079,None,996.9895053880755,997.0060872810427,59,001,2023_Mar_15_2015,SpeechDraft1Carolyn_lessNoise_PlusLocalization,2021.2.3,59.97357676741839,
,,,,,,,,midLeft,-13.0,2,ch1Sound_localizationTask.wav,-13.0,"(762, 878)","(-198,-202)",-190,-338,,,,,,,,,,,,,1,5,12,1,,,,,,,,,,,,,,,,,,,,,,,,,,,,,,,,,,,,,,,,1000.3897274411283,None,,,1003.4059608450625,None,1.3994708994708995,1.0493009239435196,1003.4059608450625,None,,,,,,,1001.3895886889659,None,1001.572960474994,1001.5894006381277,59,001,2023_Mar_15_2015,SpeechDraft1Carolyn_lessNoise_PlusLocalization,2021.2.3,59.97357676741839,
,,,,,,,,nearLeft,-6.5,1,ch1Sound_localizationTask.wav,-6.5,"(857, 878)","(-103,-202)",-95,-338,,,,,,,,,,,,,1,6,13,2,,,,,,,,,,,,,,,,,,,,,,,,,,,,,,,,,,,,,,,,1004.4566446661483,None,,,1007.4724860340357,None,1.4582010582010583,0.8329490639735013,1007.4724860340357,None,,,,,,,1005.4561180390883,None,1005.6394870041404,1005.656249274034,59,001,2023_Mar_15_2015,SpeechDraft1Carolyn_lessNoise_PlusLocalization,2021.2.3,59.97357676741839,
,,,,,,,,farRight,19.1,4,ch1Sound_localizationTask.wav,19.1,"(1237, 878)","(277,-202)",285,-338,,,,,,,,,,,,,2,0,14,6,,,,,,,,,,,,,,,,,,,,,,,,,,,,,,,,,,,,,,,,1008.3072169611696,None,,,1011.3393139671534,None,1.6481481481481481,1.7159347371198237,1011.3393139671534,None,,,,,,,1009.322769198101,None,1009.5061782000121,1009.5228207360487,59,001,2023_Mar_15_2015,SpeechDraft1Carolyn_lessNoise_PlusLocalization,2021.2.3,59.97357676741839,
,,,,,,,,nearLeft,-6.5,1,ch1Sound_localizationTask.wav,-6.5,"(857, 878)","(-103,-202)",-95,-338,,,,,,,,,,,,,2,1,15,2,,,,,,,,,,,,,,,,,,,,,,,,,,,,,,,,,,,,,,,,1013.0563406150322,None,,,1016.0724779181182,None,1.4402116402116403,1.9656935818493366,1016.0724779181182,None,,,,,,,1014.0561230131425,None,1014.239477918949,1014.256273281062,59,001,2023_Mar_15_2015,SpeechDraft1Carolyn_lessNoise_PlusLocalization,2021.2.3,59.97357676741839,
,,,,,,,,nearLeft,-6.5,1,ch1Sound_localizationTask.wav,-6.5,"(857, 878)","(-103,-202)",-95,-338,,,,,,,,,,,,,2,2,16,2,,,,,,,,,,,,,,,,,,,,,,,,,,,,,,,,,,,,,,,,1018.0400937909726,None,,,1021.0558339371346,None,1.4497354497354498,1.1831728999968618,1021.0558339371346,None,,,,,,,1019.0395357899833,None,1019.2229050779715,1019.2394880380016,59,001,2023_Mar_15_2015,SpeechDraft1Carolyn_lessNoise_PlusLocalization,2021.2.3,59.97357676741839,
,,,,,,,,nearRight,6.5,0,ch1Sound_localizationTask.wav,6.5,"(1047, 878)","(87, -202)",95,-338,,,,,,,,,,,,,2,3,17,4,,,,,,,,,,,,,,,,,,,,,,,,,,,,,,,,,,,,,,,,1022.2397230761126,None,,,1025.2559007380623,None,1.561904761904762,1.3831261629238725,1025.2559007380623,None,,,,,,,1023.2394934250042,None,1023.4229231181089,1023.4395365430973,59,001,2023_Mar_15_2015,SpeechDraft1Carolyn_lessNoise_PlusLocalization,2021.2.3,59.97357676741839,
,,,,,,,,midLeft,-13.0,2,ch1Sound_localizationTask.wav,-13.0,"(762, 878)","(-198,-202)",-190,-338,,,,,,,,,,,,,2,4,18,1,,,,,,,,,,,,,,,,,,,,,,,,,,,,,,,,,,,,,,,,1026.6397803870495,None,,,1029.6559469981585,None,1.4005291005291005,0.8512705410830677,1029.6559469981585,None,,,,,,,1027.6394867510535,None,1027.8229504511692,1027.8395417269785,59,001,2023_Mar_15_2015,SpeechDraft1Carolyn_lessNoise_PlusLocalization,2021.2.3,59.97357676741839,
,,,,,,,,midRight,13.0,3,ch1Sound_localizationTask.wav,13.0,"(1142, 878)","(182, -202)",190,-338,,,,,,,,,,,,,2,5,19,5,,,,,,,,,,,,,,,,,,,,,,,,,,,,,,,,,,,,,,,,1030.522988902172,None,,,1033.5392532739788,None,1.6084656084656084,1.2155542310792953,1033.5392532739788,None,,,,,,,1031.5229484220035,None,1031.7061710481066,1031.7228128409479,59,001,2023_Mar_15_2015,SpeechDraft1Carolyn_lessNoise_PlusLocalization,2021.2.3,59.97357676741839,
,,,,,,,,farRight,19.1,4,ch1Sound_localizationTask.wav,19.1,"(1237, 878)","(277,-202)",285,-338,,,,,,,,,,,,,2,6,20,6,,,,,,,,,,,,,,,,,,,,,,,,,,,,,,,,,,,,,,,,1034.7562132989988,None,,,1037.77261675708,None,1.6238095238095238,1.098421058850363,1037.77261675708,None,,,,,,,1035.7562135669868,None,1035.9395425010007,1035.956213541096,59,001,2023_Mar_15_2015,SpeechDraft1Carolyn_lessNoise_PlusLocalization,2021.2.3,59.97357676741839,
,,,,,,,,midRight,13.0,3,ch1Sound_localizationTask.wav,13.0,"(1142, 878)","(182, -202)",190,-338,,,,,,,,,,,,,3,0,21,5,,,,,,,,,,,,,,,,,,,,,,,,,,,,,,,,,,,,,,,,1038.8729096141178,None,,,1041.8892958520446,None,1.6126984126984127,1.6164503321051598,1041.8892958520446,None,,,,,,,1039.872941927053,None,1040.0562547449954,1040.0729037160054,59,001,2023_Mar_15_2015,SpeechDraft1Carolyn_lessNoise_PlusLocalization,2021.2.3,59.97357676741839,
,,,,,,,,farRight,19.1,4,ch1Sound_localizationTask.wav,19.1,"(1237, 878)","(277,-202)",285,-338,,,,,,,,,,,,,3,1,22,6,,,,,,,,,,,,,,,,,,,,,,,,,,,,,,,,,,,,,,,,1043.5065106570255,None,,,1046.522710452089,None,1.682010582010582,0.9328439999371767,1046.522710452089,None,,,,,,,1044.5062217540108,None,1044.689493214013,1044.7063050470315,59,001,2023_Mar_15_2015,SpeechDraft1Carolyn_lessNoise_PlusLocalization,2021.2.3,59.97357676741839,
,,,,,,,,nearRight,6.5,0,ch1Sound_localizationTask.wav,6.5,"(1047, 878)","(87, -202)",95,-338,,,,,,,,,,,,,3,2,23,4,,,,,,,,,,,,,,,,,,,,,,,,,,,,,,,,,,,,,,,,1047.4569195790682,None,,,1050.4727198029868,None,1.543915343915344,0.34938242309726775,1050.4727198029868,None,,,,,,,1048.4562489469536,None,1048.6395574251655,1048.6562187401578,59,001,2023_Mar_15_2015,SpeechDraft1Carolyn_lessNoise_PlusLocalization,2021.2.3,59.97357676741839,
,,,,,,,,center,0.0,6,ch1Sound_localizationTask.wav,0.0,"(952, 878)","(-8,-202)",0,-338,,,,,,,,,,,,,3,3,24,3,,,,,,,,,,,,,,,,,,,,,,,,,,,,,,,,,,,,,,,,1050.824391209986,None,,,1053.855925771175,None,1.5132275132275133,1.9831601888872683,1053.855925771175,None,,,,,,,1051.8395102000795,None,1052.0230501671322,1052.0395120121539,59,001,2023_Mar_15_2015,SpeechDraft1Carolyn_lessNoise_PlusLocalization,2021.2.3,59.97357676741839,
,,,,,,,,center,0.0,6,ch1Sound_localizationTask.wav,0.0,"(952, 878)","(-8,-202)",0,-338,,,,,,,,,,,,,3,4,25,3,,,,,,,,,,,,,,,,,,,,,,,,,,,,,,,,,,,,,,,,1055.8406306600664,None,,,1058.87266272516,None,1.5132275132275133,1.0501406129915267,1058.87266272516,None,,,,,,,1056.856188034173,None,1057.0395191640127,1057.0562979900278,59,001,2023_Mar_15_2015,SpeechDraft1Carolyn_lessNoise_PlusLocalization,2021.2.3,59.97357676741839,
,,,,,,,,center,0.0,6,ch1Sound_localizationTask.wav,0.0,"(952, 878)","(-8,-202)",0,-338,,,,,,,,,,,,,3,5,26,3,,,,,,,,,,,,,,,,,,,,,,,,,,,,,,,,,,,,,,,,1059.923939940054,None,,,1062.955940200016,None,1.4994708994708994,0.9331744068767875,1062.955940200016,None,,,,,,,1060.939513538964,None,1061.1228640540503,1061.1394861170556,59,001,2023_Mar_15_2015,SpeechDraft1Carolyn_lessNoise_PlusLocalization,2021.2.3,59.97357676741839,
,,,,,,,,midRight,13.0,3,ch1Sound_localizationTask.wav,13.0,"(1142, 878)","(182, -202)",190,-338,,,,,,,,,,,,,3,6,27,5,,,,,,,,,,,,,,,,,,,,,,,,,,,,,,,,,,,,,,,,1063.8899154111277,None,,,1066.9060606590938,None,1.6095238095238096,0.6497081499546766,1066.9060606590938,None,,,,,,,1064.88961458602,None,1065.072912889067,1065.0895926230587,59,001,2023_Mar_15_2015,SpeechDraft1Carolyn_lessNoise_PlusLocalization,2021.2.3,59.97357676741839,
,,,,,,,,nearLeft,-6.5,1,ch1Sound_localizationTask.wav,-6.5,"(857, 878)","(-103,-202)",-95,-338,,,,,,,,,,,,,4,0,28,2,,,,,,,,,,,,,,,,,,,,,,,,,,,,,,,,,,,,,,,,1067.5564143990632,None,,,1070.5727824519854,None,1.4476190476190476,0.9660979581531137,1070.5727824519854,None,,,,,,,1068.5563884919975,None,1068.7395822540857,1068.756203906145,59,001,2023_Mar_15_2015,SpeechDraft1Carolyn_lessNoise_PlusLocalization,2021.2.3,59.97357676741839,
,,,,,,,,farLeft,-19.1,5,ch1Sound_localizationTask.wav,-19.1,"(667, 878)","(-293,-202)",-285,-338,,,,,,,,,,,,,4,1,29,0,,,,,,,,,,,,,,,,,,,,,,,,,,,,,,,,,,,,,,,,1071.5399073250592,None,,,1074.5560113091487,None,1.3529100529100528,1.1161531710531563,1074.5560113091487,None,,,,,,,1072.539555898169,None,1072.7229427101556,1072.739577197004,59,001,2023_Mar_15_2015,SpeechDraft1Carolyn_lessNoise_PlusLocalization,2021.2.3,59.97357676741839,
,,,,,,,,farLeft,-19.1,5,ch1Sound_localizationTask.wav,-19.1,"(667, 878)","(-293,-202)",-285,-338,,,,,,,,,,,,,4,2,30,0,,,,,,,,,,,,,,,,,,,,,,,,,,,,,,,,,,,,,,,,1075.6896434379742,None,,,1078.7061837271322,None,1.364021164021164,1.2329756438266486,1078.7061837271322,None,,,,,,,1076.6896380980033,None,1076.872935878113,1076.8896446551662,59,001,2023_Mar_15_2015,SpeechDraft1Carolyn_lessNoise_PlusLocalization,2021.2.3,59.97357676741839,
,,,,,,,,farRight,19.1,4,ch1Sound_localizationTask.wav,19.1,"(1237, 878)","(277,-202)",285,-338,,,,,,,,,,,,,4,3,31,6,,,,,,,,,,,,,,,,,,,,,,,,,,,,,,,,,,,,,,,,1079.9399905779865,None,,,1082.9561538039707,None,1.6666666666666667,0.8828239091672003,1082.9561538039707,None,,,,,,,1080.9395790230483,None,1081.1229423249606,1081.1395612361375,59,001,2023_Mar_15_2015,SpeechDraft1Carolyn_lessNoise_PlusLocalization,2021.2.3,59.97357676741839,
,,,,,,,,nearRight,6.5,0,ch1Sound_localizationTask.wav,6.5,"(1047, 878)","(87, -202)",95,-338,,,,,,,,,,,,,4,4,32,4,,,,,,,,,,,,,,,,,,,,,,,,,,,,,,,,,,,,,,,,1083.840916881105,None,,,1086.8726842829492,None,1.524867724867725,0.9822487069759518,1086.8726842829492,None,,,,,,,1084.8562558919657,None,1085.0396967851557,1085.0562635280658,59,001,2023_Mar_15_2015,SpeechDraft1Carolyn_lessNoise_PlusLocalization,2021.2.3,59.97357676741839,
,,,,,,,,midLeft,-13.0,2,ch1Sound_localizationTask.wav,-13.0,"(762, 878)","(-198,-202)",-190,-338,,,,,,,,,,,,,4,5,33,1,,,,,,,,,,,,,,,,,,,,,,,,,,,,,,,,,,,,,,,,1087.8563508561347,None,,,1090.8726100190543,None,1.3962962962962964,1.1158486308995634,1090.8726100190543,None,,,,,,,1088.8562738110777,None,1089.0395991001278,1089.0562993991189,59,001,2023_Mar_15_2015,SpeechDraft1Carolyn_lessNoise_PlusLocalization,2021.2.3,59.97357676741839,
,,,,,,,,farRight,19.1,4,ch1Sound_localizationTask.wav,19.1,"(1237, 878)","(277,-202)",285,-338,,,,,,,,,,,,,4,6,34,6,,,,,,,,,,,,,,,,,,,,,,,,,,,,,,,,,,,,,,,,1091.9901823219843,None,,,1095.005947001977,None,1.6862433862433863,0.7158244780730456,1095.005947001977,None,,,,,,,1092.9896893771365,None,1093.1729172731284,1093.189566615969,59,001,2023_Mar_15_2015,SpeechDraft1Carolyn_lessNoise_PlusLocalization,2021.2.3,59.97357676741839,
,,,,,,,,nearLeft,-6.5,1,ch1Sound_localizationTask.wav,-6.5,"(857, 878)","(-103,-202)",-95,-338,,,,,,,,,,,,,5,0,35,2,,,,,,,,,,,,,,,,,,,,,,,,,,,,,,,,,,,,,,,,1095.723432675004,None,,,1098.7393881829921,None,1.4121693121693122,1.2508594479877502,1098.7393881829921,None,,,,,,,1096.7230977809522,None,1096.906366131967,1096.9230962260626,59,001,2023_Mar_15_2015,SpeechDraft1Carolyn_lessNoise_PlusLocalization,2021.2.3,59.97357676741839,
,,,,,,,,center,0.0,6,ch1Sound_localizationTask.wav,0.0,"(952, 878)","(-8,-202)",0,-338,,,,,,,,,,,,,5,1,36,3,,,,,,,,,,,,,,,,,,,,,,,,,,,,,,,,,,,,,,,,1100.0062811940443,None,,,1103.0226764180698,None,1.4952380952380953,0.8496328159235418,1103.0226764180698,None,,,,,,,1101.0062711110804,None,1101.189674903173,1101.2064424420241,59,001,2023_Mar_15_2015,SpeechDraft1Carolyn_lessNoise_PlusLocalization,2021.2.3,59.97357676741839,
,,,,,,,,nearRight,6.5,0,ch1Sound_localizationTask.wav,6.5,"(1047, 878)","(87, -202)",95,-338,,,,,,,,,,,,,5,2,37,4,,,,,,,,,,,,,,,,,,,,,,,,,,,,,,,,,,,,,,,,1103.873490570113,None,,,1106.8893192070536,None,1.5423280423280423,1.0829269469249994,1106.8893192070536,None,,,,,,,1104.8729083980434,None,1105.0562602540012,1105.0730529141147,59,001,2023_Mar_15_2015,SpeechDraft1Carolyn_lessNoise_PlusLocalization,2021.2.3,59.97357676741839,
,,,,,,,,farRight,19.1,4,ch1Sound_localizationTask.wav,19.1,"(1237, 878)","(277,-202)",285,-338,,,,,,,,,,,,,5,3,38,6,,,,,,,,,,,,,,,,,,,,,,,,,,,,,,,,,,,,,,,,1107.9731659700628,None,,,1110.989318577107,None,1.6873015873015873,1.2828010770026594,1110.989318577107,None,,,,,,,1108.973095121095,None,1109.156309867045,1109.1731048200745,59,001,2023_Mar_15_2015,SpeechDraft1Carolyn_lessNoise_PlusLocalization,2021.2.3,59.97357676741839,
,,,,,,,,nearRight,6.5,0,ch1Sound_localizationTask.wav,6.5,"(1047, 878)","(87, -202)",95,-338,,,,,,,,,,,,,5,4,39,4,,,,,,,,,,,,,,,,,,,,,,,,,,,,,,,,,,,,,,,,1112.2729184280615,None,,,1115.289434784092,None,1.5592592592592593,0.9999642157927155,1115.289434784092,None,,,,,,,1113.2729570341762,None,1113.4563047650736,1113.472998518031,59,001,2023_Mar_15_2015,SpeechDraft1Carolyn_lessNoise_PlusLocalization,2021.2.3,59.97357676741839,
,,,,,,,,farLeft,-19.1,5,ch1Sound_localizationTask.wav,-19.1,"(667, 878)","(-293,-202)",-285,-338,,,,,,,,,,,,,5,5,40,0,,,,,,,,,,,,,,,,,,,,,,,,,,,,,,,,,,,,,,,,1116.2915089440066,None,,,1119.3226841720752,None,1.3322751322751323,0.8325978540815413,1119.3226841720752,None,,,,,,,1117.306327976985,None,1117.489702146966,1117.5063291769475,59,001,2023_Mar_15_2015,SpeechDraft1Carolyn_lessNoise_PlusLocalization,2021.2.3,59.97357676741839,
,,,,,,,,farLeft,-19.1,5,ch1Sound_localizationTask.wav,-19.1,"(667, 878)","(-293,-202)",-285,-338,,,,,,,,,,,,,5,6,41,0,,,,,,,,,,,,,,,,,,,,,,,,,,,,,,,,,,,,,,,,1120.1565878251567,None,,,1123.1727755849715,None,1.3417989417989418,1.716316431062296,1123.1727755849715,None,,,,,,,1121.1562458090484,None,1121.3396335020661,1121.3563367421739,59,001,2023_Mar_15_2015,SpeechDraft1Carolyn_lessNoise_PlusLocalization,2021.2.3,59.97357676741839,
,,,,,,,,midRight,13.0,3,ch1Sound_localizationTask.wav,13.0,"(1142, 878)","(182, -202)",190,-338,,,,,,,,,,,,,6,0,42,5,,,,,,,,,,,,,,,,,,,,,,,,,,,,,,,,,,,,,,,,1124.8911957901437,None,,,1127.922772770049,None,1.6052910052910052,2.249244471779093,1127.922772770049,None,,,,,,,1125.9065938929562,None,1126.08962857211,1126.1063619509805,59,001,2023_Mar_15_2015,SpeechDraft1Carolyn_lessNoise_PlusLocalization,2021.2.3,59.97357676741839,
,,,,,,,,nearRight,6.5,0,ch1Sound_localizationTask.wav,6.5,"(1047, 878)","(87, -202)",95,-338,,,,,,,,,,,,,6,1,43,4,,,,,,,,,,,,,,,,,,,,,,,,,,,,,,,,,,,,,,,,1130.1730494871736,None,,,1133.1894226879813,None,1.4851851851851852,1.399220973951742,1133.1894226879813,None,,,,,,,1131.1730371131562,None,1131.3563741289545,1131.3729692301713,59,001,2023_Mar_15_2015,SpeechDraft1Carolyn_lessNoise_PlusLocalization,2021.2.3,59.97357676741839,
,,,,,,,,farRight,19.1,4,ch1Sound_localizationTask.wav,19.1,"(1237, 878)","(277,-202)",285,-338,,,,,,,,,,,,,6,2,44,6,,,,,,,,,,,,,,,,,,,,,,,,,,,,,,,,,,,,,,,,1134.59067461011,None,,,1137.6061340260785,None,1.6624338624338624,1.614613899961114,1137.6061340260785,None,,,,,,,1135.5895935290027,None,1135.7732056190725,1135.7895982030313,59,001,2023_Mar_15_2015,SpeechDraft1Carolyn_lessNoise_PlusLocalization,2021.2.3,59.97357676741839,
,,,,,,,,farRight,19.1,4,ch1Sound_localizationTask.wav,19.1,"(1237, 878)","(277,-202)",285,-338,,,,,,,,,,,,,6,3,45,6,,,,,,,,,,,,,,,,,,,,,,,,,,,,,,,,,,,,,,,,1139.2231551441364,None,,,1142.2394700599834,None,1.6677248677248677,1.2331123808398843,1142.2394700599834,None,,,,,,,1140.2229734030552,None,1140.4064410771243,1140.4230294651352,59,001,2023_Mar_15_2015,SpeechDraft1Carolyn_lessNoise_PlusLocalization,2021.2.3,59.97357676741839,
,,,,,,,,nearLeft,-6.5,1,ch1Sound_localizationTask.wav,-6.5,"(857, 878)","(-103,-202)",-95,-338,,,,,,,,,,,,,6,4,46,2,,,,,,,,,,,,,,,,,,,,,,,,,,,,,,,,,,,,,,,,1143.4737119779456,None,,,1146.4894185420126,None,1.4481481481481482,2.9821565148886293,1146.4894185420126,None,,,,,,,1144.4729710260872,None,1144.6563391119707,1144.673016446177,59,001,2023_Mar_15_2015,SpeechDraft1Carolyn_lessNoise_PlusLocalization,2021.2.3,59.97357676741839,
,,,,,,,,center,0.0,6,ch1Sound_localizationTask.wav,0.0,"(952, 878)","(-8,-202)",0,-338,,,,,,,,,,,,,6,5,47,3,,,,,,,,,,,,,,,,,,,,,,,,,,,,,,,,,,,,,,,,1149.47397842817,None,,,1152.4893105530646,None,1.507936507936508,1.86485878797248,1152.4893105530646,None,,,,,,,1150.4730167640373,None,1150.6563574110623,1150.6730272639543,59,001,2023_Mar_15_2015,SpeechDraft1Carolyn_lessNoise_PlusLocalization,2021.2.3,59.97357676741839,
,,,,,,,,farLeft,-19.1,5,ch1Sound_localizationTask.wav,-19.1,"(667, 878)","(-293,-202)",-285,-338,,,,,,,,,,,,,6,6,48,0,,,,,,,,,,,,,,,,,,,,,,,,,,,,,,,,,,,,,,,,1154.3570386280771,None,,,1157.372907282086,None,1.355026455026455,0.8814458090346307,1157.372907282086,None,,,,,,,1155.3563967081718,None,1155.539657481946,1155.5564401240554,59,001,2023_Mar_15_2015,SpeechDraft1Carolyn_lessNoise_PlusLocalization,2021.2.3,59.97357676741839,
,,,,,,,,farLeft,-19.1,5,ch1Sound_localizationTask.wav,-19.1,"(667, 878)","(-293,-202)",-285,-338,,,,,,,,,,,,,7,0,49,0,,,,,,,,,,,,,,,,,,,,,,,,,,,,,,,,,,,,,,,,1158.2563582430594,None,,,1161.2727452639956,None,1.3555555555555556,0.03270355681888759,1161.2727452639956,None,,,,,,,1159.2564975749701,None,1159.4397087059915,1159.4563447020482,59,001,2023_Mar_15_2015,SpeechDraft1Carolyn_lessNoise_PlusLocalization,2021.2.3,59.97357676741839,
,,,,,,,,midRight,13.0,3,ch1Sound_localizationTask.wav,13.0,"(1142, 878)","(182, -202)",190,-338,,,,,,,,,,,,,7,1,50,5,,,,,,,,,,,,,,,,,,,,,,,,,,,,,,,,,,,,,,,,1161.3064188121352,None,,,1164.3228324570227,None,1.6111111111111112,0.9826969150453806,1164.3228324570227,None,,,,,,,1162.3063923909795,None,1162.48972542095,1162.5065488789696,59,001,2023_Mar_15_2015,SpeechDraft1Carolyn_lessNoise_PlusLocalization,2021.2.3,59.97357676741839,
,,,,,,,,center,0.0,6,ch1Sound_localizationTask.wav,0.0,"(952, 878)","(-8,-202)",0,-338,,,,,,,,,,,,,7,2,51,3,,,,,,,,,,,,,,,,,,,,,,,,,,,,,,,,,,,,,,,,1165.3230299870484,None,,,1168.3395693839993,None,1.4973544973544972,0.7491651840973645,1168.3395693839993,None,,,,,,,1166.323007015977,None,1166.5064200381748,1166.5230470350944,59,001,2023_Mar_15_2015,SpeechDraft1Carolyn_lessNoise_PlusLocalization,2021.2.3,59.97357676741839,
,,,,,,,,farLeft,-19.1,5,ch1Sound_localizationTask.wav,-19.1,"(667, 878)","(-293,-202)",-285,-338,,,,,,,,,,,,,7,3,52,0,,,,,,,,,,,,,,,,,,,,,,,,,,,,,,,,,,,,,,,,1169.0902654409874,None,,,1172.1061344011687,None,1.3216931216931216,0.8820427490863949,1172.1061344011687,None,,,,,,,1170.0897367901634,None,1170.2729523570742,1170.2897687461227,59,001,2023_Mar_15_2015,SpeechDraft1Carolyn_lessNoise_PlusLocalization,2021.2.3,59.97357676741839,
,,,,,,,,nearLeft,-6.5,1,ch1Sound_localizationTask.wav,-6.5,"(857, 878)","(-103,-202)",-95,-338,,,,,,,,,,,,,7,4,53,2,,,,,,,,,,,,,,,,,,,,,,,,,,,,,,,,,,,,,,,,1172.9899492780678,None,,,1176.0060892500915,None,1.4306878306878308,0.8660684961359948,1176.0060892500915,None,,,,,,,1173.989842317067,None,1174.1730298281182,1174.1897341741715,59,001,2023_Mar_15_2015,SpeechDraft1Carolyn_lessNoise_PlusLocalization,2021.2.3,59.97357676741839,
,,,,,,,,midLeft,-13.0,2,ch1Sound_localizationTask.wav,-13.0,"(762, 878)","(-198,-202)",-190,-338,,,,,,,,,,,,,7,5,54,1,,,,,,,,,,,,,,,,,,,,,,,,,,,,,,,,,,,,,,,,1176.8736472991295,None,,,1179.8893835390918,None,1.4248677248677248,0.7161310480441898,1179.8893835390918,None,,,,,,,1177.873058425961,None,1178.0563771720044,1178.0730782169849,59,001,2023_Mar_15_2015,SpeechDraft1Carolyn_lessNoise_PlusLocalization,2021.2.3,59.97357676741839,
,,,,,,,,nearRight,6.5,0,ch1Sound_localizationTask.wav,6.5,"(1047, 878)","(87, -202)",95,-338,,,,,,,,,,,,,7,6,55,4,,,,,,,,,,,,,,,,,,,,,,,,,,,,,,,,,,,,,,,,1180.6064783360343,None,,,1183.6228282251395,None,1.565079365079365,0.8320079459808767,1183.6228282251395,None,,,,,,,1181.6063947190996,None,1181.7897254710551,1181.8066423579585,59,001,2023_Mar_15_2015,SpeechDraft1Carolyn_lessNoise_PlusLocalization,2021.2.3,59.97357676741839,
