{"meta_data":{"additional_headers":{},"game_name":"Recollect","version":"2.53.01","user_name":"60","organization":"braingamecenter","study":"mpl2_2022_11","session_number":0,"device_id":"74342D95-EE82-45E3-8ADF-48FB3203C5DD"},"data":[{"stage":"Practice","trial":0,"sequence":"6F","letter_input":"F","number_input":"6","is_correct":true,"presentation_start_time":1678989468315.65,"presentation_end_time":1678989471316.57,"response_time":1678989478265.45},{"stage":"Practice","trial":1,"sequence":"G4","letter_input":"G","number_input":"4","is_correct":true,"presentation_start_time":1678989479795.13,"presentation_end_time":1678989482795.87,"response_time":1678989487642.61},{"stage":"Practice","trial":2,"sequence":"3W5","letter_input":"W","number_input":"35","is_correct":true,"presentation_start_time":1678989489175.31,"presentation_end_time":1678989493675.7,"response_time":1678989499321.98},{"stage":"Practice","trial":3,"sequence":"T7L","letter_input":"LT","number_input":"7","is_correct":true,"presentation_start_time":1678989500854.71,"presentation_end_time":1678989505355.11,"response_time":1678989512251.02},{"stage":"Practice","trial":4,"sequence":"9J1","letter_input":"J","number_input":"19","is_correct":true,"presentation_start_time":1678989513783.66,"presentation_end_time":1678989518283.98,"response_time":1678989524430.22},{"stage":"Calibration","trial":0,"sequence":"E9","letter_input":"E","number_input":"9","is_correct":true,"presentation_start_time":1678989530877.95,"presentation_end_time":1678989533878.81,"response_time":1678989538725.43},{"stage":"Calibration","trial":1,"sequence":"1D","letter_input":"D","number_input":"1","is_correct":true,"presentation_start_time":1678989540258.13,"presentation_end_time":1678989543258.94,"response_time":1678989547339.17},{"stage":"Calibration","trial":2,"sequence":"N9G","letter_input":"GN","number_input":"9","is_correct":true,"presentation_start_time":1678989548871.93,"presentation_end_time":1678989553372.26,"response_time":1678989561484.48},{"stage":"Calibration","trial":3,"sequence":"7Q3","letter_input":"Q","number_input":"37","is_correct":true,"presentation_start_time":1678989563017.13,"presentation_end_time":1678989567517.56,"response_time":1678989573297.14},{"stage":"Calibration","trial":4,"sequence":"W9S5","letter_input":"SW","number_input":"59","is_correct":true,"presentation_start_time":1678989574829.87,"presentation_end_time":1678989580829.74,"response_time":1678989587142.54},{"stage":"Calibration","trial":5,"sequence":"6M4H","letter_input":"HM","number_input":"46","is_correct":true,"presentation_start_time":1678989588675.17,"presentation_end_time":1678989594675.11,"response_time":1678989602337.34},{"stage":"Calibration","trial":6,"sequence":"S9L7J","letter_input":"JLS","number_input":"79","is_correct":true,"presentation_start_time":1678989603870.06,"presentation_end_time":1678989611369.43,"response_time":1678989629711.47},{"stage":"Calibration","trial":7,"sequence":"6T1M8","letter_input":"MT","number_input":"168","is_correct":true,"presentation_start_time":1678989631244.24,"presentation_end_time":1678989638743.55,"response_time":1678989647738.77},{"stage":"Calibration","trial":8,"sequence":"F7Y5H3","letter_input":"HSY","number_input":"357","is_correct":false,"presentation_start_time":1678989649271.44,"presentation_end_time":1678989658270.34,"response_time":1678989678328.57},{"stage":"Calibration","trial":9,"sequence":"9M4K2C","letter_input":"CKM","number_input":"249","is_correct":true,"presentation_start_time":1678989679861.18,"presentation_end_time":1678989688859.99,"response_time":1678989701970.62},{"stage":"Calibration","trial":10,"sequence":"A6S3E1W","letter_input":"ASW","number_input":"","is_correct":false,"presentation_start_time":1678989703503.28,"presentation_end_time":1678989714001.56,"response_time":1678989733709.9},{"stage":"Calibration","trial":11,"sequence":"4D2M8F3","letter_input":"ADM","number_input":"234","is_correct":false,"presentation_start_time":1678989735242.61,"presentation_end_time":1678989745741.01,"response_time":1678989762117.09}]}