{"meta_data":{"additional_headers":{},"game_name":"Recollect","version":"2.53.01","user_name":"61","organization":"braingamecenter","study":"mpl2_2022_11","session_number":0,"device_id":"74342D95-EE82-45E3-8ADF-48FB3203C5DD"},"data":[{"stage":"Practice","trial":0,"sequence":"6F","letter_input":"F","number_input":"6","is_correct":true,"presentation_start_time":1678997591236.92,"presentation_end_time":1678997594237.96,"response_time":1678997605852.02},{"stage":"Practice","trial":1,"sequence":"G4","letter_input":"G","number_input":"4","is_correct":true,"presentation_start_time":1678997607381.68,"presentation_end_time":1678997610382.79,"response_time":1678997616995.38},{"stage":"Practice","trial":2,"sequence":"3W5","letter_input":"W","number_input":"35","is_correct":true,"presentation_start_time":1678997618528.07,"presentation_end_time":1678997623028.46,"response_time":1678997632606.95},{"stage":"Practice","trial":3,"sequence":"T7L","letter_input":"LT","number_input":"7","is_correct":true,"presentation_start_time":1678997634139.65,"presentation_end_time":1678997638640.04,"response_time":1678997646585.62},{"stage":"Practice","trial":4,"sequence":"9J1","letter_input":"J","number_input":"19","is_correct":true,"presentation_start_time":1678997648118.38,"presentation_end_time":1678997652618.89,"response_time":1678997657382.21},{"stage":"Calibration","trial":0,"sequence":"2Q","letter_input":"Q","number_input":"2","is_correct":true,"presentation_start_time":1678997676442.51,"presentation_end_time":1678997679443.46,"response_time":1678997685556.32},{"stage":"Calibration","trial":1,"sequence":"S6","letter_input":"S","number_input":"6","is_correct":true,"presentation_start_time":1678997687088.98,"presentation_end_time":1678997690089.95,"response_time":1678997697052.55},{"stage":"Calibration","trial":2,"sequence":"8T1","letter_input":"T","number_input":"18","is_correct":true,"presentation_start_time":1678997698585.28,"presentation_end_time":1678997703085.67,"response_time":1678997707615.77},{"stage":"Calibration","trial":3,"sequence":"F7A","letter_input":"AF","number_input":"7","is_correct":true,"presentation_start_time":1678997709148.46,"presentation_end_time":1678997713648.9,"response_time":1678997721827.86},{"stage":"Calibration","trial":4,"sequence":"8T4E","letter_input":"ET","number_input":"48","is_correct":true,"presentation_start_time":1678997723360.53,"presentation_end_time":1678997729360.42,"response_time":1678997734506.96},{"stage":"Calibration","trial":5,"sequence":"Z9P3","letter_input":"PZ","number_input":"39","is_correct":true,"presentation_start_time":1678997736039.72,"presentation_end_time":1678997742039.53,"response_time":1678997749435.43},{"stage":"Calibration","trial":6,"sequence":"7M4E2","letter_input":"EM","number_input":"247","is_correct":true,"presentation_start_time":1678997750968.15,"presentation_end_time":1678997758467.65,"response_time":1678997770828.46},{"stage":"Calibration","trial":7,"sequence":"G9C5L","letter_input":"CGL","number_input":"59","is_correct":true,"presentation_start_time":1678997772361.2,"presentation_end_time":1678997779860.55,"response_time":1678997793154.58},{"stage":"Calibration","trial":8,"sequence":"3D1Z7W","letter_input":"DWZ","number_input":"137","is_correct":true,"presentation_start_time":1678997794687.27,"presentation_end_time":1678997803686.22,"response_time":1678997820145.75},{"stage":"Calibration","trial":9,"sequence":"V6T4H8","letter_input":"HVTZ","number_input":"48","is_correct":false,"presentation_start_time":1678997821678.44,"presentation_end_time":1678997830677.31,"response_time":1678997857583.54},{"stage":"Calibration","trial":10,"sequence":"5W1R9B3","letter_input":"W","number_input":"1349","is_correct":false,"presentation_start_time":1678997859116.26,"presentation_end_time":1678997869614.63,"response_time":1678997884624.69},{"stage":"Calibration","trial":11,"sequence":"J2G7S4P","letter_input":"P","number_input":"274","is_correct":false,"presentation_start_time":1678997886157.39,"presentation_end_time":1678997896655.81,"response_time":1678997902268.94}]}