{"meta_data":{"additional_headers":{},"game_name":"Recollect","version":"2.53.01","user_name":"61","organization":"braingamecenter","study":"mpl2_2022_11","session_number":0,"device_id":"74342D95-EE82-45E3-8ADF-48FB3203C5DD"},"data":[{"trial":0,"action":1,"button_pressed":6,"time_out":false,"dwell_time":48.39501953125,"response_time":1678997276241.98},{"trial":0,"action":1,"button_pressed":10,"time_out":false,"dwell_time":64.5419921875,"response_time":1678997276890.51},{"trial":0,"action":9,"button_pressed":-1,"time_out":false,"dwell_time":57.75390625,"response_time":1678997277767.68},{"trial":1,"action":1,"button_pressed":3,"time_out":false,"dwell_time":82.06005859375,"response_time":1678997288087.7},{"trial":1,"action":1,"button_pressed":9,"time_out":false,"dwell_time":81.14892578125,"response_time":1678997288470.52},{"trial":1,"action":1,"button_pressed":7,"time_out":false,"dwell_time":64.363037109375,"response_time":1678997289153.18},{"trial":1,"action":9,"button_pressed":-1,"time_out":false,"dwell_time":64.837890625,"response_time":1678997289986.73},{"trial":2,"action":1,"button_pressed":6,"time_out":false,"dwell_time":65.195068359375,"response_time":1678997302482.88},{"trial":2,"action":1,"button_pressed":8,"time_out":false,"dwell_time":64.988037109375,"response_time":1678997302949.32},{"trial":2,"action":1,"button_pressed":11,"time_out":false,"dwell_time":47.6630859375,"response_time":1678997303599.03},{"trial":2,"action":1,"button_pressed":7,"time_out":false,"dwell_time":64.2841796875,"response_time":1678997303998.9},{"trial":2,"action":9,"button_pressed":-1,"time_out":false,"dwell_time":16.777099609375,"response_time":1678997304881.62},{"trial":3,"action":1,"button_pressed":8,"time_out":false,"dwell_time":47.797119140625,"response_time":1678997319493.88},{"trial":3,"action":1,"button_pressed":4,"time_out":false,"dwell_time":65.010986328125,"response_time":1678997319960.35},{"trial":3,"action":1,"button_pressed":1,"time_out":false,"dwell_time":64.195068359375,"response_time":1678997320410.13},{"trial":3,"action":1,"button_pressed":5,"time_out":false,"dwell_time":81.81787109375,"response_time":1678997321026.75},{"trial":3,"action":1,"button_pressed":3,"time_out":false,"dwell_time":30.669189453125,"response_time":1678997321559.68},{"trial":3,"action":9,"button_pressed":-1,"time_out":false,"dwell_time":48.378173828125,"response_time":1678997322126.5},{"trial":4,"action":1,"button_pressed":4,"time_out":false,"dwell_time":48.4619140625,"response_time":1678997339187.6},{"trial":4,"action":1,"button_pressed":11,"time_out":false,"dwell_time":31.419921875,"response_time":1678997339754.38},{"trial":4,"action":1,"button_pressed":3,"time_out":false,"dwell_time":48.31982421875,"response_time":1678997340236.99},{"trial":4,"action":1,"button_pressed":2,"time_out":false,"dwell_time":80.4111328125,"response_time":1678997340703.06},{"trial":4,"action":1,"button_pressed":10,"time_out":false,"dwell_time":81.843994140625,"response_time":1678997341203.49},{"trial":4,"action":1,"button_pressed":6,"time_out":false,"dwell_time":47.39892578125,"response_time":1678997341569.82},{"trial":4,"action":9,"button_pressed":-1,"time_out":false,"dwell_time":47.920166015625,"response_time":1678997342303.54},{"trial":5,"action":1,"button_pressed":0,"time_out":false,"dwell_time":63.930908203125,"response_time":1678997361796.25},{"trial":5,"action":1,"button_pressed":8,"time_out":false,"dwell_time":64.530029296875,"response_time":1678997362329.32},{"trial":5,"action":1,"button_pressed":5,"time_out":false,"dwell_time":65.27587890625,"response_time":1678997362629.93},{"trial":5,"action":1,"button_pressed":6,"time_out":false,"dwell_time":47.38720703125,"response_time":1678997363146},{"trial":5,"action":1,"button_pressed":10,"time_out":false,"dwell_time":64.26806640625,"response_time":1678997363545.4},{"trial":5,"action":1,"button_pressed":2,"time_out":false,"dwell_time":65.072021484375,"response_time":1678997363979.39},{"trial":5,"action":1,"button_pressed":9,"time_out":false,"dwell_time":48.864013671875,"response_time":1678997364429.73},{"trial":5,"action":9,"button_pressed":-1,"time_out":false,"dwell_time":65.47607421875,"response_time":1678997365379.41},{"trial":6,"action":1,"button_pressed":3,"time_out":false,"dwell_time":47.64501953125,"response_time":1678997387521.65},{"trial":6,"action":1,"button_pressed":1,"time_out":false,"dwell_time":64.422119140625,"response_time":1678997387821.6},{"trial":6,"action":1,"button_pressed":8,"time_out":false,"dwell_time":47.385986328125,"response_time":1678997388321.19},{"trial":6,"action":1,"button_pressed":5,"time_out":false,"dwell_time":64.405029296875,"response_time":1678997388621.36},{"trial":6,"action":1,"button_pressed":7,"time_out":false,"dwell_time":64.5361328125,"response_time":1678997389670.38},{"trial":6,"action":1,"button_pressed":0,"time_out":false,"dwell_time":64.330078125,"response_time":1678997390304.04},{"trial":6,"action":1,"button_pressed":10,"time_out":false,"dwell_time":31.656005859375,"response_time":1678997390787.89},{"trial":6,"action":9,"button_pressed":-1,"time_out":false,"dwell_time":48.55908203125,"response_time":1678997392737.89},{"trial":7,"action":1,"button_pressed":7,"time_out":false,"dwell_time":48.381103515625,"response_time":1678997418278.95},{"trial":7,"action":1,"button_pressed":5,"time_out":false,"dwell_time":81.91015625,"response_time":1678997419061.62},{"trial":7,"action":1,"button_pressed":3,"time_out":false,"dwell_time":64.245849609375,"response_time":1678997421077.35},{"trial":7,"action":1,"button_pressed":1,"time_out":false,"dwell_time":48.09912109375,"response_time":1678997421561.1},{"trial":7,"action":1,"button_pressed":10,"time_out":false,"dwell_time":63.64697265625,"response_time":1678997422076.43},{"trial":7,"action":1,"button_pressed":0,"time_out":false,"dwell_time":81.82080078125,"response_time":1678997422577.02},{"trial":7,"action":1,"button_pressed":4,"time_out":false,"dwell_time":65.27197265625,"response_time":1678997422760.41},{"trial":7,"action":9,"button_pressed":-1,"time_out":false,"dwell_time":48.5400390625,"response_time":1678997426676.49},{"trial":8,"action":1,"button_pressed":8,"time_out":false,"dwell_time":48.447021484375,"response_time":1678997447253.1},{"trial":8,"action":1,"button_pressed":0,"time_out":false,"dwell_time":64.217041015625,"response_time":1678997447818.72},{"trial":8,"action":1,"button_pressed":1,"time_out":false,"dwell_time":80.31494140625,"response_time":1678997448501.25},{"trial":8,"action":1,"button_pressed":9,"time_out":false,"dwell_time":81.194091796875,"response_time":1678997449001.28},{"trial":8,"action":1,"button_pressed":3,"time_out":false,"dwell_time":64.2900390625,"response_time":1678997449751.52},{"trial":8,"action":1,"button_pressed":5,"time_out":false,"dwell_time":62.934814453125,"response_time":1678997450267.48},{"trial":8,"action":9,"button_pressed":-1,"time_out":false,"dwell_time":32.656005859375,"response_time":1678997451918.37},{"trial":9,"action":1,"button_pressed":3,"time_out":false,"dwell_time":31.822998046875,"response_time":1678997471727.52},{"trial":9,"action":1,"button_pressed":0,"time_out":false,"dwell_time":80.950927734375,"response_time":1678997472226.88},{"trial":9,"action":1,"button_pressed":10,"time_out":false,"dwell_time":64.583984375,"response_time":1678997472893.58},{"trial":9,"action":1,"button_pressed":5,"time_out":false,"dwell_time":81.31982421875,"response_time":1678997473543.37},{"trial":9,"action":1,"button_pressed":4,"time_out":false,"dwell_time":80.900146484375,"response_time":1678997477709.02},{"trial":9,"action":1,"button_pressed":1,"time_out":false,"dwell_time":63.733154296875,"response_time":1678997478508.17},{"trial":9,"action":1,"button_pressed":2,"time_out":false,"dwell_time":63.448974609375,"response_time":1678997479107.94},{"trial":9,"action":9,"button_pressed":-1,"time_out":false,"dwell_time":65.5458984375,"response_time":1678997479908.84},{"trial":10,"action":1,"button_pressed":6,"time_out":false,"dwell_time":65.15380859375,"response_time":1678997507382.79},{"trial":10,"action":1,"button_pressed":3,"time_out":false,"dwell_time":96.89990234375,"response_time":1678997509597.95},{"trial":10,"action":1,"button_pressed":10,"time_out":false,"dwell_time":81.663818359375,"response_time":1678997509948.44},{"trial":10,"action":1,"button_pressed":7,"time_out":false,"dwell_time":13.593994140625,"response_time":1678997510730.75},{"trial":10,"action":1,"button_pressed":4,"time_out":false,"dwell_time":63.69287109375,"response_time":1678997511447.39},{"trial":10,"action":1,"button_pressed":5,"time_out":false,"dwell_time":97.705078125,"response_time":1678997511730.64},{"trial":10,"action":1,"button_pressed":11,"time_out":false,"dwell_time":32.291015625,"response_time":1678997512381.59},{"trial":10,"action":9,"button_pressed":-1,"time_out":false,"dwell_time":48.537841796875,"response_time":1678997513714.85},{"trial":11,"action":1,"button_pressed":1,"time_out":false,"dwell_time":48.39892578125,"response_time":1678997535957.34},{"trial":11,"action":1,"button_pressed":10,"time_out":false,"dwell_time":97.60107421875,"response_time":1678997536439.6},{"trial":11,"action":1,"button_pressed":0,"time_out":false,"dwell_time":80.31103515625,"response_time":1678997536922.37},{"trial":11,"action":1,"button_pressed":2,"time_out":false,"dwell_time":97.97412109375,"response_time":1678997537389.87},{"trial":11,"action":1,"button_pressed":7,"time_out":false,"dwell_time":31.552001953125,"response_time":1678997539806.02},{"trial":11,"action":1,"button_pressed":9,"time_out":false,"dwell_time":64.98486328125,"response_time":1678997540421.85},{"trial":11,"action":1,"button_pressed":4,"time_out":false,"dwell_time":65.0400390625,"response_time":1678997540788.42},{"trial":11,"action":9,"button_pressed":-1,"time_out":false,"dwell_time":82.239013671875,"response_time":1678997541772.02}]}