{"meta_data":{"additional_headers":{},"game_name":"Recollect","version":"2.53.01","user_name":"62","organization":"braingamecenter","study":"mpl2_2022_11","session_number":0,"device_id":"74342D95-EE82-45E3-8ADF-48FB3203C5DD"},"data":[{"stage":"Practice","trial":0,"sequence":"6F","letter_input":"F","number_input":"6","is_correct":true,"presentation_start_time":1679008603463.29,"presentation_end_time":1679008606464.22,"response_time":1679008614979.26},{"stage":"Practice","trial":1,"sequence":"G4","letter_input":"G","number_input":"4","is_correct":true,"presentation_start_time":1679008616509.05,"presentation_end_time":1679008619509.94,"response_time":1679008626205.85},{"stage":"Practice","trial":2,"sequence":"3W5","letter_input":"W","number_input":"35","is_correct":true,"presentation_start_time":1679008627738.63,"presentation_end_time":1679008632239.3,"response_time":1679008640384.61},{"stage":"Practice","trial":3,"sequence":"T7L","letter_input":"LT","number_input":"7","is_correct":true,"presentation_start_time":1679008641917.38,"presentation_end_time":1679008646417.8,"response_time":1679008653113.84},{"stage":"Practice","trial":4,"sequence":"9J1","letter_input":"J","number_input":"19","is_correct":true,"presentation_start_time":1679008654646.46,"presentation_end_time":1679008659146.81,"response_time":1679008665676.31},{"stage":"Calibration","trial":0,"sequence":"T4","letter_input":"T","number_input":"4","is_correct":true,"presentation_start_time":1679008763960.68,"presentation_end_time":1679008766961.39,"response_time":1679008770808.41},{"stage":"Calibration","trial":1,"sequence":"9S","letter_input":"S","number_input":"9","is_correct":true,"presentation_start_time":1679008772341.15,"presentation_end_time":1679008775342.08,"response_time":1679008778972.49},{"stage":"Calibration","trial":2,"sequence":"J6C","letter_input":"CJ","number_input":"6","is_correct":true,"presentation_start_time":1679008780505.17,"presentation_end_time":1679008785005.57,"response_time":1679008789119.19},{"stage":"Calibration","trial":3,"sequence":"5Z2","letter_input":"Z","number_input":"25","is_correct":true,"presentation_start_time":1679008790651.89,"presentation_end_time":1679008795152.21,"response_time":1679008800548.72},{"stage":"Calibration","trial":4,"sequence":"T8M4","letter_input":"AM","number_input":"28","is_correct":false,"presentation_start_time":1679008802081.44,"presentation_end_time":1679008808081.33,"response_time":1679008823441.21},{"stage":"Calibration","trial":5,"sequence":"5V2R","letter_input":"RV","number_input":"25","is_correct":true,"presentation_start_time":1679008824973.94,"presentation_end_time":1679008830973.9,"response_time":1679008839186.11},{"stage":"Calibration","trial":6,"sequence":"K7S1M","letter_input":"MS","number_input":"14","is_correct":false,"presentation_start_time":1679008840718.76,"presentation_end_time":1679008848218.34,"response_time":1679008856530.28},{"stage":"Calibration","trial":7,"sequence":"9J5H3","letter_input":"J","number_input":"359","is_correct":false,"presentation_start_time":1679008858063.06,"presentation_end_time":1679008865562.51,"response_time":1679008875657.4}]}