{"meta_data":{"additional_headers":{},"game_name":"Recollect","version":"2.53.01","user_name":"63","organization":"braingamecenter","study":"mpl2_2022_11","session_number":0,"device_id":"74342D95-EE82-45E3-8ADF-48FB3203C5DD"},"data":[{"stage":"Practice","trial":0,"sequence":"6F","letter_input":"F","number_input":"6","is_correct":true,"presentation_start_time":1680741812998.55,"presentation_end_time":1680741815999.54,"response_time":1680741821948.83},{"stage":"Practice","trial":1,"sequence":"G4","letter_input":"G","number_input":"4","is_correct":true,"presentation_start_time":1680741823478.44,"presentation_end_time":1680741826479.3,"response_time":1680741831625.79},{"stage":"Practice","trial":2,"sequence":"3W5","letter_input":"W","number_input":"35","is_correct":true,"presentation_start_time":1680741833158.46,"presentation_end_time":1680741837659.05,"response_time":1680741842405.57},{"stage":"Practice","trial":3,"sequence":"T7L","letter_input":"TL","number_input":"7","is_correct":false,"presentation_start_time":1680741843938.27,"presentation_end_time":1680741848438.65,"response_time":1680741852368.92},{"stage":"Practice","trial":4,"sequence":"9J1","letter_input":"J","number_input":"1","is_correct":false,"presentation_start_time":1680741855401.17,"presentation_end_time":1680741859901.52,"response_time":1680741864065.04},{"stage":"Calibration","trial":0,"sequence":"5L","letter_input":"L","number_input":"5","is_correct":true,"presentation_start_time":1680741897403.8,"presentation_end_time":1680741900404.87,"response_time":1680741904968.12},{"stage":"Calibration","trial":1,"sequence":"N1","letter_input":"N","number_input":"1","is_correct":true,"presentation_start_time":1680741906500.83,"presentation_end_time":1680741909501.66,"response_time":1680741912932.14},{"stage":"Calibration","trial":2,"sequence":"5W2","letter_input":"W","number_input":"25","is_correct":true,"presentation_start_time":1680741914464.85,"presentation_end_time":1680741918965.41,"response_time":1680741927377.35},{"stage":"Calibration","trial":3,"sequence":"L9A","letter_input":"AL","number_input":"9","is_correct":true,"presentation_start_time":1680741928910.06,"presentation_end_time":1680741933410.51,"response_time":1680741936790.88},{"stage":"Calibration","trial":4,"sequence":"6E2B","letter_input":"BE","number_input":"26","is_correct":true,"presentation_start_time":1680741938323.55,"presentation_end_time":1680741944323.46,"response_time":1680741952135.74},{"stage":"Calibration","trial":5,"sequence":"Q9M4","letter_input":"MQ","number_input":"49","is_correct":true,"presentation_start_time":1680741953668.55,"presentation_end_time":1680741959668.52,"response_time":1680741967197.52},{"stage":"Calibration","trial":6,"sequence":"3K1D5","letter_input":"DK","number_input":"135","is_correct":true,"presentation_start_time":1680741968730.19,"presentation_end_time":1680741976229.6,"response_time":1680741984125.24},{"stage":"Calibration","trial":7,"sequence":"H6E2N","letter_input":"HEN","number_input":"2","is_correct":false,"presentation_start_time":1680741985657.91,"presentation_end_time":1680741993157.41,"response_time":1680742008916.97},{"stage":"Calibration","trial":8,"sequence":"8M5J3F","letter_input":"EFJ","number_input":"35","is_correct":false,"presentation_start_time":1680742010449.64,"presentation_end_time":1680742019448.67,"response_time":1680742031776.04},{"stage":"Calibration","trial":9,"sequence":"G2A9Y7","letter_input":"AGY","number_input":"27","is_correct":false,"presentation_start_time":1680742033308.7,"presentation_end_time":1680742042307.69,"response_time":1680742050169.91}]}