{"meta_data":{"additional_headers":{},"game_name":"Recollect","version":"2.53.01","user_name":"64","organization":"braingamecenter","study":"mpl2_2022_11","session_number":0,"device_id":"74342D95-EE82-45E3-8ADF-48FB3203C5DD"},"data":[{"stage":"Practice","trial":0,"sequence":"6F","letter_input":"F","number_input":"6","is_correct":true,"presentation_start_time":1680911540699.57,"presentation_end_time":1680911543700.51,"response_time":1680911550048.37},{"stage":"Practice","trial":1,"sequence":"G4","letter_input":"G","number_input":"4","is_correct":true,"presentation_start_time":1680911551579.28,"presentation_end_time":1680911554580.29,"response_time":1680911558993.62},{"stage":"Practice","trial":2,"sequence":"3W5","letter_input":"W","number_input":"35","is_correct":true,"presentation_start_time":1680911560526.36,"presentation_end_time":1680911565026.8,"response_time":1680911570156.59},{"stage":"Practice","trial":3,"sequence":"T7L","letter_input":"LT","number_input":"7","is_correct":true,"presentation_start_time":1680911571689.31,"presentation_end_time":1680911576189.82,"response_time":1680911581336.3},{"stage":"Practice","trial":4,"sequence":"9J1","letter_input":"J","number_input":"19","is_correct":true,"presentation_start_time":1680911582869,"presentation_end_time":1680911587369.45,"response_time":1680911592515.97},{"stage":"Calibration","trial":0,"sequence":"4T","letter_input":"T","number_input":"4","is_correct":true,"presentation_start_time":1680911606677.85,"presentation_end_time":1680911609678.71,"response_time":1680911613109.16},{"stage":"Calibration","trial":1,"sequence":"Y3","letter_input":"Y","number_input":"3","is_correct":true,"presentation_start_time":1680911614641.86,"presentation_end_time":1680911617642.92,"response_time":1680911621039.89},{"stage":"Calibration","trial":2,"sequence":"9C1","letter_input":"C","number_input":"19","is_correct":true,"presentation_start_time":1680911622572.59,"presentation_end_time":1680911627073.01,"response_time":1680911631536.43},{"stage":"Calibration","trial":3,"sequence":"J7E","letter_input":"EJ","number_input":"7","is_correct":true,"presentation_start_time":1680911633069.13,"presentation_end_time":1680911637569.57,"response_time":1680911643365.87},{"stage":"Calibration","trial":4,"sequence":"9W6B","letter_input":"BW","number_input":"69","is_correct":true,"presentation_start_time":1680911644898.57,"presentation_end_time":1680911650898.51,"response_time":1680911655828.31},{"stage":"Calibration","trial":5,"sequence":"R8A5","letter_input":"AR","number_input":"58","is_correct":true,"presentation_start_time":1680911657361.14,"presentation_end_time":1680911663361.06,"response_time":1680911667891.12},{"stage":"Calibration","trial":6,"sequence":"9Y7M4","letter_input":"MY","number_input":"479","is_correct":true,"presentation_start_time":1680911669423.8,"presentation_end_time":1680911676923.18,"response_time":1680911682986.08},{"stage":"Calibration","trial":7,"sequence":"C5S2H","letter_input":"CHS","number_input":"24","is_correct":false,"presentation_start_time":1680911684518.82,"presentation_end_time":1680911692018.3,"response_time":1680911699114.11},{"stage":"Calibration","trial":8,"sequence":"4W8P6L","letter_input":"LPW","number_input":"468","is_correct":true,"presentation_start_time":1680911700646.8,"presentation_end_time":1680911709645.87,"response_time":1680911722956.27},{"stage":"Calibration","trial":9,"sequence":"J9Q5N3","letter_input":"JNQ","number_input":"359","is_correct":true,"presentation_start_time":1680911724488.93,"presentation_end_time":1680911733487.92,"response_time":1680911748647.71},{"stage":"Calibration","trial":10,"sequence":"2C8T6H4","letter_input":"CHT","number_input":"2468","is_correct":true,"presentation_start_time":1680911750180.43,"presentation_end_time":1680911760678.91,"response_time":1680911788051.43},{"stage":"Calibration","trial":11,"sequence":"A3S9G7Z","letter_input":"AGHS","number_input":"379","is_correct":false,"presentation_start_time":1680911789584.23,"presentation_end_time":1680911800082.64,"response_time":1680911826405.5},{"stage":"Calibration","trial":12,"sequence":"5B1Y8M6F","letter_input":"ABFY","number_input":"5678","is_correct":false,"presentation_start_time":1680911827938.2,"presentation_end_time":1680911839936.26,"response_time":1680911885985.86},{"stage":"Calibration","trial":13,"sequence":"H3S7P4N9","letter_input":"BHNP","number_input":"3479","is_correct":false,"presentation_start_time":1680911887518.51,"presentation_end_time":1680911899516.51,"response_time":1680911918041.97}]}