{"meta_data":{"additional_headers":{},"game_name":"Recollect","version":"2.53.01","user_name":"65","organization":"braingamecenter","study":"mpl2_2022_11","session_number":0,"device_id":"74342D95-EE82-45E3-8ADF-48FB3203C5DD"},"data":[{"stage":"Practice","trial":0,"sequence":"6F","letter_input":"F","number_input":"6","is_correct":true,"presentation_start_time":1681149275318.76,"presentation_end_time":1681149278319.9,"response_time":1681149284152.43},{"stage":"Practice","trial":1,"sequence":"G4","letter_input":"G","number_input":"4","is_correct":true,"presentation_start_time":1681149285682.05,"presentation_end_time":1681149288683.1,"response_time":1681149292696.59},{"stage":"Practice","trial":2,"sequence":"3W5","letter_input":"W","number_input":"35","is_correct":true,"presentation_start_time":1681149294229.3,"presentation_end_time":1681149298729.93,"response_time":1681149303493.04},{"stage":"Practice","trial":3,"sequence":"T7L","letter_input":"LT","number_input":"7","is_correct":true,"presentation_start_time":1681149305025.72,"presentation_end_time":1681149309526.34,"response_time":1681149313356.52},{"stage":"Practice","trial":4,"sequence":"9J1","letter_input":"J","number_input":"19","is_correct":true,"presentation_start_time":1681149314889.22,"presentation_end_time":1681149319389.62,"response_time":1681149322536.89},{"stage":"Calibration","trial":0,"sequence":"8Y","letter_input":"Y","number_input":"8","is_correct":true,"presentation_start_time":1681149329251.17,"presentation_end_time":1681149332252.06,"response_time":1681149335532.53},{"stage":"Calibration","trial":1,"sequence":"F2","letter_input":"F","number_input":"2","is_correct":true,"presentation_start_time":1681149337065.32,"presentation_end_time":1681149340066.24,"response_time":1681149343280.05},{"stage":"Calibration","trial":2,"sequence":"6Z3","letter_input":"Z","number_input":"36","is_correct":true,"presentation_start_time":1681149344812.66,"presentation_end_time":1681149349311.87,"response_time":1681149353776.59},{"stage":"Calibration","trial":3,"sequence":"Y7G","letter_input":"GY","number_input":"7","is_correct":true,"presentation_start_time":1681149355309.35,"presentation_end_time":1681149359809.81,"response_time":1681149363740.02},{"stage":"Calibration","trial":4,"sequence":"5V1M","letter_input":"MV","number_input":"15","is_correct":true,"presentation_start_time":1681149365272.7,"presentation_end_time":1681149371272.75,"response_time":1681149375669.46},{"stage":"Calibration","trial":5,"sequence":"L9C3","letter_input":"CL","number_input":"39","is_correct":true,"presentation_start_time":1681149377202.15,"presentation_end_time":1681149383202.17,"response_time":1681149389898.11},{"stage":"Calibration","trial":6,"sequence":"5R1K8","letter_input":"KR","number_input":"158","is_correct":true,"presentation_start_time":1681149391430.84,"presentation_end_time":1681149398930.31,"response_time":1681149404226.84},{"stage":"Calibration","trial":7,"sequence":"A6Y4L","letter_input":"ALY","number_input":"46","is_correct":true,"presentation_start_time":1681149405759.5,"presentation_end_time":1681149413258.99,"response_time":1681149417655.71},{"stage":"Calibration","trial":8,"sequence":"8V5K1F","letter_input":"FKV","number_input":"158","is_correct":true,"presentation_start_time":1681149419188.37,"presentation_end_time":1681149428187.41,"response_time":1681149433017.31},{"stage":"Calibration","trial":9,"sequence":"D3W9R6","letter_input":"DRW","number_input":"369","is_correct":true,"presentation_start_time":1681149434550.02,"presentation_end_time":1681149443549.08,"response_time":1681149447962.49},{"stage":"Calibration","trial":10,"sequence":"5F8A1N7","letter_input":"AFN","number_input":"1578","is_correct":true,"presentation_start_time":1681149449495.11,"presentation_end_time":1681149459993.59,"response_time":1681149464873.61},{"stage":"Calibration","trial":11,"sequence":"Y4K9R6P","letter_input":"KNRY","number_input":"469","is_correct":false,"presentation_start_time":1681149466406.28,"presentation_end_time":1681149476904.91,"response_time":1681149488482.59},{"stage":"Calibration","trial":12,"sequence":"5C3J8F1W","letter_input":"CJYW","number_input":"1358","is_correct":false,"presentation_start_time":1681149490015.18,"presentation_end_time":1681149502013.34,"response_time":1681149515257.12},{"stage":"Calibration","trial":13,"sequence":"M9A7T4D2","letter_input":"ADMW","number_input":"2479","is_correct":false,"presentation_start_time":1681149516789.83,"presentation_end_time":1681149528787.88,"response_time":1681149554444.31}]}