{"meta_data":{"additional_headers":{},"game_name":"Recollect","version":"2.53.01","user_name":"65","organization":"braingamecenter","study":"mpl2_2022_11","session_number":0,"device_id":"74342D95-EE82-45E3-8ADF-48FB3203C5DD"},"data":[{"trial":0,"action":1,"button_pressed":3,"time_out":false,"dwell_time":48.599853515625,"response_time":1681148869353.41},{"trial":0,"action":1,"button_pressed":2,"time_out":false,"dwell_time":81.551025390625,"response_time":1681148869886.39},{"trial":0,"action":9,"button_pressed":-1,"time_out":false,"dwell_time":126.39501953125,"response_time":1681148870614.48},{"trial":1,"action":1,"button_pressed":2,"time_out":false,"dwell_time":47.964111328125,"response_time":1681148880166.93},{"trial":1,"action":1,"button_pressed":4,"time_out":false,"dwell_time":48.18408203125,"response_time":1681148880516.15},{"trial":1,"action":1,"button_pressed":1,"time_out":false,"dwell_time":48.8251953125,"response_time":1681148880933.38},{"trial":1,"action":9,"button_pressed":-1,"time_out":false,"dwell_time":65.39697265625,"response_time":1681148881399.8},{"trial":2,"action":1,"button_pressed":0,"time_out":false,"dwell_time":48.350830078125,"response_time":1681148893328.73},{"trial":2,"action":1,"button_pressed":10,"time_out":false,"dwell_time":48.595947265625,"response_time":1681148893762.37},{"trial":2,"action":1,"button_pressed":2,"time_out":false,"dwell_time":31.464111328125,"response_time":1681148894162.36},{"trial":2,"action":1,"button_pressed":6,"time_out":false,"dwell_time":31.221923828125,"response_time":1681148894645.51},{"trial":2,"action":9,"button_pressed":-1,"time_out":false,"dwell_time":31.927001953125,"response_time":1681148895178.46},{"trial":3,"action":1,"button_pressed":1,"time_out":false,"dwell_time":48.22998046875,"response_time":1681148909624},{"trial":3,"action":1,"button_pressed":10,"time_out":false,"dwell_time":48.095947265625,"response_time":1681148910040.48},{"trial":3,"action":1,"button_pressed":0,"time_out":false,"dwell_time":48.876220703125,"response_time":1681148910473.66},{"trial":3,"action":1,"button_pressed":9,"time_out":false,"dwell_time":47.194091796875,"response_time":1681148910856.29},{"trial":3,"action":1,"button_pressed":5,"time_out":false,"dwell_time":30.65087890625,"response_time":1681148911256.05},{"trial":3,"action":9,"button_pressed":-1,"time_out":false,"dwell_time":16.7421875,"response_time":1681148912138.92},{"trial":4,"action":1,"button_pressed":0,"time_out":false,"dwell_time":64.448974609375,"response_time":1681148929183.18},{"trial":4,"action":1,"button_pressed":4,"time_out":false,"dwell_time":48.748046875,"response_time":1681148929517.43},{"trial":4,"action":1,"button_pressed":11,"time_out":false,"dwell_time":31.39599609375,"response_time":1681148929983.97},{"trial":4,"action":1,"button_pressed":3,"time_out":false,"dwell_time":48.005126953125,"response_time":1681148930649.62},{"trial":4,"action":1,"button_pressed":5,"time_out":false,"dwell_time":31.7099609375,"response_time":1681148931116.32},{"trial":4,"action":1,"button_pressed":7,"time_out":false,"dwell_time":48.71484375,"response_time":1681148931733.4},{"trial":4,"action":9,"button_pressed":-1,"time_out":false,"dwell_time":48.551025390625,"response_time":1681148932417.01},{"trial":5,"action":1,"button_pressed":9,"time_out":false,"dwell_time":48.026123046875,"response_time":1681148952309.35},{"trial":5,"action":1,"button_pressed":7,"time_out":false,"dwell_time":47.982177734375,"response_time":1681148952692.47},{"trial":5,"action":1,"button_pressed":4,"time_out":false,"dwell_time":48.5888671875,"response_time":1681148953143},{"trial":5,"action":1,"button_pressed":1,"time_out":false,"dwell_time":47.1708984375,"response_time":1681148953525.46},{"trial":5,"action":1,"button_pressed":11,"time_out":false,"dwell_time":47.950927734375,"response_time":1681148953959.4},{"trial":5,"action":1,"button_pressed":6,"time_out":false,"dwell_time":47.1259765625,"response_time":1681148954341.85},{"trial":5,"action":1,"button_pressed":8,"time_out":false,"dwell_time":30.8291015625,"response_time":1681148954742.03},{"trial":5,"action":9,"button_pressed":-1,"time_out":false,"dwell_time":48.76513671875,"response_time":1681148955243.15},{"trial":6,"action":1,"button_pressed":11,"time_out":false,"dwell_time":64.712890625,"response_time":1681148982499.83},{"trial":6,"action":1,"button_pressed":3,"time_out":false,"dwell_time":80.926025390625,"response_time":1681148982949.68},{"trial":6,"action":1,"button_pressed":9,"time_out":false,"dwell_time":64.89599609375,"response_time":1681148983432.86},{"trial":6,"action":1,"button_pressed":7,"time_out":false,"dwell_time":64.505126953125,"response_time":1681148983865.93},{"trial":6,"action":1,"button_pressed":4,"time_out":false,"dwell_time":80.85595703125,"response_time":1681148984415.71},{"trial":6,"action":1,"button_pressed":2,"time_out":false,"dwell_time":81.43994140625,"response_time":1681148984915.56},{"trial":6,"action":1,"button_pressed":10,"time_out":false,"dwell_time":48.0400390625,"response_time":1681148985365.4},{"trial":6,"action":1,"button_pressed":1,"time_out":false,"dwell_time":48.016845703125,"response_time":1681148985865.78},{"trial":6,"action":9,"button_pressed":-1,"time_out":false,"dwell_time":64.501953125,"response_time":1681148986782.01},{"trial":7,"action":1,"button_pressed":11,"time_out":false,"dwell_time":65.808837890625,"response_time":1681149012224.05},{"trial":7,"action":1,"button_pressed":9,"time_out":false,"dwell_time":80.710205078125,"response_time":1681149012606.5},{"trial":7,"action":1,"button_pressed":0,"time_out":false,"dwell_time":63.39892578125,"response_time":1681149013089.14},{"trial":7,"action":1,"button_pressed":2,"time_out":false,"dwell_time":81.51220703125,"response_time":1681149013656.15},{"trial":7,"action":1,"button_pressed":7,"time_out":false,"dwell_time":46.76806640625,"response_time":1681149014405.26},{"trial":7,"action":1,"button_pressed":3,"time_out":false,"dwell_time":47.98388671875,"response_time":1681149014922.83},{"trial":7,"action":1,"button_pressed":8,"time_out":false,"dwell_time":48.057861328125,"response_time":1681149015372.34},{"trial":7,"action":1,"button_pressed":1,"time_out":false,"dwell_time":31.528076171875,"response_time":1681149016055.27},{"trial":7,"action":1,"button_pressed":10,"time_out":false,"dwell_time":47.01611328125,"response_time":1681149016721.6},{"trial":7,"action":9,"button_pressed":-1,"time_out":false,"dwell_time":98.18603515625,"response_time":1681149019037.75},{"trial":8,"action":1,"button_pressed":1,"time_out":false,"dwell_time":64.4921875,"response_time":1681149046461.59},{"trial":8,"action":1,"button_pressed":3,"time_out":false,"dwell_time":99.14306640625,"response_time":1681149047645.06},{"trial":8,"action":1,"button_pressed":10,"time_out":false,"dwell_time":32.010986328125,"response_time":1681149048312.02},{"trial":8,"action":1,"button_pressed":2,"time_out":false,"dwell_time":30.4150390625,"response_time":1681149052693.1},{"trial":8,"action":9,"button_pressed":-1,"time_out":true,"dwell_time":10042.9421386719,"response_time":1681149062705.63},{"trial":9,"action":1,"button_pressed":10,"time_out":false,"dwell_time":65.10498046875,"response_time":1681149090248.02},{"trial":9,"action":1,"button_pressed":2,"time_out":false,"dwell_time":97.883056640625,"response_time":1681149091297.88},{"trial":9,"action":1,"button_pressed":11,"time_out":false,"dwell_time":81.39892578125,"response_time":1681149091963.79},{"trial":9,"action":1,"button_pressed":8,"time_out":false,"dwell_time":47.833984375,"response_time":1681149092680.2},{"trial":9,"action":1,"button_pressed":5,"time_out":false,"dwell_time":31.7939453125,"response_time":1681149093663.38},{"trial":9,"action":1,"button_pressed":0,"time_out":false,"dwell_time":47.801025390625,"response_time":1681149094979.23},{"trial":9,"action":1,"button_pressed":7,"time_out":false,"dwell_time":48.55615234375,"response_time":1681149095629.77},{"trial":9,"action":1,"button_pressed":6,"time_out":false,"dwell_time":47.899169921875,"response_time":1681149096179.77},{"trial":9,"action":9,"button_pressed":-1,"time_out":false,"dwell_time":114.653076171875,"response_time":1681149097695.98},{"trial":10,"action":1,"button_pressed":9,"time_out":false,"dwell_time":48.55078125,"response_time":1681149127002.95},{"trial":10,"action":1,"button_pressed":7,"time_out":false,"dwell_time":48.02294921875,"response_time":1681149127752.02},{"trial":10,"action":1,"button_pressed":3,"time_out":false,"dwell_time":63.984130859375,"response_time":1681149128368.52},{"trial":10,"action":1,"button_pressed":8,"time_out":false,"dwell_time":64.0478515625,"response_time":1681149128851.87},{"trial":10,"action":1,"button_pressed":5,"time_out":false,"dwell_time":64.631103515625,"response_time":1681149129268.28},{"trial":10,"action":1,"button_pressed":11,"time_out":false,"dwell_time":31.094970703125,"response_time":1681149131100.74},{"trial":10,"action":9,"button_pressed":-1,"time_out":false,"dwell_time":97.221923828125,"response_time":1681149132417.07},{"trial":11,"action":1,"button_pressed":7,"time_out":false,"dwell_time":47.72802734375,"response_time":1681149154643.27},{"trial":11,"action":1,"button_pressed":5,"time_out":false,"dwell_time":80.220947265625,"response_time":1681149155126},{"trial":11,"action":1,"button_pressed":3,"time_out":false,"dwell_time":64.802001953125,"response_time":1681149155593.04},{"trial":11,"action":1,"button_pressed":4,"time_out":false,"dwell_time":63.893798828125,"response_time":1681149155975.51},{"trial":11,"action":1,"button_pressed":1,"time_out":false,"dwell_time":64.0751953125,"response_time":1681149156375.45},{"trial":11,"action":1,"button_pressed":10,"time_out":false,"dwell_time":30.989013671875,"response_time":1681149156809.44},{"trial":11,"action":1,"button_pressed":2,"time_out":false,"dwell_time":64.340087890625,"response_time":1681149157308.59},{"trial":11,"action":1,"button_pressed":8,"time_out":false,"dwell_time":30.99609375,"response_time":1681149157692.82},{"trial":11,"action":9,"button_pressed":-1,"time_out":false,"dwell_time":81.873046875,"response_time":1681149158209.33},{"trial":12,"action":1,"button_pressed":10,"time_out":false,"dwell_time":97.552978515625,"response_time":1681149183184.17},{"trial":12,"action":1,"button_pressed":3,"time_out":false,"dwell_time":48.248046875,"response_time":1681149185117.35},{"trial":12,"action":1,"button_pressed":8,"time_out":false,"dwell_time":63.347900390625,"response_time":1681149185582.59},{"trial":12,"action":0,"button_pressed":-1,"time_out":false,"dwell_time":64.460205078125,"response_time":1681149187065.59},{"trial":12,"action":1,"button_pressed":10,"time_out":false,"dwell_time":48.592041015625,"response_time":1681149187599.84},{"trial":12,"action":1,"button_pressed":3,"time_out":false,"dwell_time":81.59716796875,"response_time":1681149188032.43},{"trial":12,"action":1,"button_pressed":6,"time_out":false,"dwell_time":63.889892578125,"response_time":1681149188464.82},{"trial":12,"action":1,"button_pressed":8,"time_out":false,"dwell_time":97.546142578125,"response_time":1681149188848.22},{"trial":12,"action":1,"button_pressed":11,"time_out":false,"dwell_time":48.570068359375,"response_time":1681149189115.93},{"trial":12,"action":1,"button_pressed":7,"time_out":false,"dwell_time":30.51708984375,"response_time":1681149189465.08},{"trial":12,"action":1,"button_pressed":2,"time_out":false,"dwell_time":64.2900390625,"response_time":1681149190265.19},{"trial":12,"action":1,"button_pressed":4,"time_out":false,"dwell_time":47.981201171875,"response_time":1681149190682.07},{"trial":12,"action":9,"button_pressed":-1,"time_out":false,"dwell_time":32.9208984375,"response_time":1681149193631.98},{"trial":13,"action":1,"button_pressed":3,"time_out":false,"dwell_time":13.61181640625,"response_time":1681149220704.35},{"trial":13,"action":0,"button_pressed":-1,"time_out":false,"dwell_time":47.593994140625,"response_time":1681149222837.61},{"trial":13,"action":1,"button_pressed":3,"time_out":false,"dwell_time":48.16796875,"response_time":1681149223538.18},{"trial":13,"action":1,"button_pressed":5,"time_out":false,"dwell_time":47.976806640625,"response_time":1681149224237.02},{"trial":13,"action":1,"button_pressed":6,"time_out":false,"dwell_time":64.342041015625,"response_time":1681149224803.24},{"trial":13,"action":1,"button_pressed":10,"time_out":false,"dwell_time":81.452880859375,"response_time":1681149226303.18},{"trial":13,"action":1,"button_pressed":2,"time_out":false,"dwell_time":80.116943359375,"response_time":1681149226819.29},{"trial":13,"action":1,"button_pressed":7,"time_out":false,"dwell_time":63.913818359375,"response_time":1681149227103.08},{"trial":13,"action":1,"button_pressed":8,"time_out":false,"dwell_time":64.096923828125,"response_time":1681149227619.6},{"trial":13,"action":9,"button_pressed":-1,"time_out":false,"dwell_time":81.969970703125,"response_time":1681149232635.06}]}