{"meta_data":{"additional_headers":{},"game_name":"Recollect","version":"2.53.01","user_name":"66","organization":"braingamecenter","study":"mpl2_2022_11","session_number":0,"device_id":"74342D95-EE82-45E3-8ADF-48FB3203C5DD"},"data":[{"stage":"Practice","trial":0,"sequence":"6F","letter_input":"F","number_input":"6","is_correct":true,"presentation_start_time":1681170066761.39,"presentation_end_time":1681170069762.42,"response_time":1681170076394.47},{"stage":"Practice","trial":1,"sequence":"G4","letter_input":"G","number_input":"4","is_correct":true,"presentation_start_time":1681170077924.26,"presentation_end_time":1681170080925.32,"response_time":1681170085421.91},{"stage":"Practice","trial":2,"sequence":"3W5","letter_input":"W","number_input":"35","is_correct":true,"presentation_start_time":1681170086954.6,"presentation_end_time":1681170091455.03,"response_time":1681170096518.17},{"stage":"Practice","trial":3,"sequence":"T7L","letter_input":"LT","number_input":"7","is_correct":true,"presentation_start_time":1681170098050.87,"presentation_end_time":1681170102551.26,"response_time":1681170107297.84},{"stage":"Practice","trial":4,"sequence":"9J1","letter_input":"J","number_input":"19","is_correct":true,"presentation_start_time":1681170108830.61,"presentation_end_time":1681170113330.98,"response_time":1681170118094.27},{"stage":"Calibration","trial":0,"sequence":"6L","letter_input":"L","number_input":"6","is_correct":true,"presentation_start_time":1681170126424.59,"presentation_end_time":1681170129425.65,"response_time":1681170132972.54},{"stage":"Calibration","trial":1,"sequence":"C9","letter_input":"C","number_input":"9","is_correct":true,"presentation_start_time":1681170134505.27,"presentation_end_time":1681170137506.25,"response_time":1681170141136.48},{"stage":"Calibration","trial":2,"sequence":"8V1","letter_input":"V","number_input":"18","is_correct":true,"presentation_start_time":1681170142669.24,"presentation_end_time":1681170147169.63,"response_time":1681170150949.94},{"stage":"Calibration","trial":3,"sequence":"S2H","letter_input":"HS","number_input":"2","is_correct":true,"presentation_start_time":1681170152482.59,"presentation_end_time":1681170156983.01,"response_time":1681170161096.6},{"stage":"Calibration","trial":4,"sequence":"9Z7W","letter_input":"WZ","number_input":"79","is_correct":true,"presentation_start_time":1681170162629.13,"presentation_end_time":1681170168629.13,"response_time":1681170173875.45},{"stage":"Calibration","trial":5,"sequence":"Y3A1","letter_input":"AY","number_input":"13","is_correct":true,"presentation_start_time":1681170175408.13,"presentation_end_time":1681170181408.17,"response_time":1681170186504.58},{"stage":"Calibration","trial":6,"sequence":"2R8F5","letter_input":"FR","number_input":"258","is_correct":true,"presentation_start_time":1681170188037.24,"presentation_end_time":1681170195536.71,"response_time":1681170201049.67},{"stage":"Calibration","trial":7,"sequence":"S7G4V","letter_input":"GSV","number_input":"47","is_correct":true,"presentation_start_time":1681170202582.36,"presentation_end_time":1681170210081.94,"response_time":1681170219793.36},{"stage":"Calibration","trial":8,"sequence":"2E9A5H","letter_input":"AEH","number_input":"259","is_correct":true,"presentation_start_time":1681170221326.06,"presentation_end_time":1681170230325.08,"response_time":1681170241152.84},{"stage":"Calibration","trial":9,"sequence":"V7C4Y1","letter_input":"YZZ","number_input":"147","is_correct":false,"presentation_start_time":1681170242685.6,"presentation_end_time":1681170251684.59,"response_time":1681170285871.15},{"stage":"Calibration","trial":10,"sequence":"3G8B6K2","letter_input":"BGK","number_input":"3268","is_correct":false,"presentation_start_time":1681170287403.85,"presentation_end_time":1681170297902.41,"response_time":1681170314694.87},{"stage":"Calibration","trial":11,"sequence":"L4C1Y9V","letter_input":"CLVY","number_input":"149","is_correct":true,"presentation_start_time":1681170316227.51,"presentation_end_time":1681170326726.03,"response_time":1681170338870.04},{"stage":"Calibration","trial":12,"sequence":"7Z3B9R5G","letter_input":"BGZ","number_input":"3579","is_correct":false,"presentation_start_time":1681170340402.7,"presentation_end_time":1681170352400.64,"response_time":1681170363211.86},{"stage":"Calibration","trial":13,"sequence":"N6J2W8P4","letter_input":"JNW","number_input":"2468","is_correct":false,"presentation_start_time":1681170364744.5,"presentation_end_time":1681170376742.44,"response_time":1681170398516.61}]}