{"meta_data":{"additional_headers":{},"game_name":"Recollect","version":"2.53.01","user_name":"67","organization":"braingamecenter","study":"mpl2_2022_11","session_number":0,"device_id":"74342D95-EE82-45E3-8ADF-48FB3203C5DD"},"data":[{"trial":0,"action":1,"button_pressed":10,"time_out":false,"dwell_time":80.326904296875,"response_time":1681246528020.02},{"trial":0,"action":1,"button_pressed":7,"time_out":false,"dwell_time":63.38916015625,"response_time":1681246528502.93},{"trial":0,"action":9,"button_pressed":-1,"time_out":false,"dwell_time":143.22900390625,"response_time":1681246529814.6},{"trial":1,"action":1,"button_pressed":0,"time_out":false,"dwell_time":80.94287109375,"response_time":1681246539349.94},{"trial":1,"action":1,"button_pressed":10,"time_out":false,"dwell_time":80.601806640625,"response_time":1681246539799.71},{"trial":1,"action":1,"button_pressed":11,"time_out":false,"dwell_time":80.179931640625,"response_time":1681246540265.64},{"trial":1,"action":9,"button_pressed":-1,"time_out":false,"dwell_time":113.910888671875,"response_time":1681246540949.2},{"trial":2,"action":1,"button_pressed":6,"time_out":false,"dwell_time":80.093994140625,"response_time":1681246553028.11},{"trial":2,"action":1,"button_pressed":8,"time_out":false,"dwell_time":81.3330078125,"response_time":1681246553511.56},{"trial":2,"action":1,"button_pressed":11,"time_out":false,"dwell_time":114.218994140625,"response_time":1681246554111.8},{"trial":2,"action":1,"button_pressed":7,"time_out":false,"dwell_time":148.158203125,"response_time":1681246554728.09},{"trial":2,"action":9,"button_pressed":-1,"time_out":false,"dwell_time":114.8291015625,"response_time":1681246557377.03},{"trial":3,"action":1,"button_pressed":3,"time_out":false,"dwell_time":131.10693359375,"response_time":1681246572754.96},{"trial":3,"action":1,"button_pressed":8,"time_out":false,"dwell_time":113.330078125,"response_time":1681246573271.24},{"trial":3,"action":1,"button_pressed":4,"time_out":false,"dwell_time":114.348876953125,"response_time":1681246573854.48},{"trial":3,"action":1,"button_pressed":10,"time_out":false,"dwell_time":97.177001953125,"response_time":1681246574304.57},{"trial":3,"action":1,"button_pressed":11,"time_out":false,"dwell_time":96.9150390625,"response_time":1681246574837.5},{"trial":3,"action":9,"button_pressed":-1,"time_out":false,"dwell_time":131.488037109375,"response_time":1681246575588.41},{"trial":4,"action":1,"button_pressed":3,"time_out":false,"dwell_time":97.72705078125,"response_time":1681246592882.25},{"trial":4,"action":1,"button_pressed":7,"time_out":false,"dwell_time":131.30908203125,"response_time":1681246593465.08},{"trial":4,"action":1,"button_pressed":4,"time_out":false,"dwell_time":131.012939453125,"response_time":1681246594130.95},{"trial":4,"action":1,"button_pressed":4,"time_out":false,"dwell_time":48.39111328125,"response_time":1681246596031.3},{"trial":4,"action":1,"button_pressed":10,"time_out":false,"dwell_time":114.260009765625,"response_time":1681246596097.17},{"trial":4,"action":1,"button_pressed":2,"time_out":false,"dwell_time":97.5771484375,"response_time":1681246597980.32},{"trial":4,"action":1,"button_pressed":9,"time_out":false,"dwell_time":63.156982421875,"response_time":1681246598546.07},{"trial":4,"action":1,"button_pressed":4,"time_out":false,"dwell_time":114.307861328125,"response_time":1681246603761.79},{"trial":4,"action":1,"button_pressed":4,"time_out":false,"dwell_time":64.238037109375,"response_time":1681246604361.45},{"trial":4,"action":1,"button_pressed":4,"time_out":false,"dwell_time":64.430908203125,"response_time":1681246604811.47},{"trial":4,"action":1,"button_pressed":4,"time_out":false,"dwell_time":64.339111328125,"response_time":1681246605311.19},{"trial":4,"action":1,"button_pressed":4,"time_out":false,"dwell_time":64.27392578125,"response_time":1681246605726.95},{"trial":4,"action":1,"button_pressed":4,"time_out":false,"dwell_time":63.58203125,"response_time":1681246606110.29},{"trial":4,"action":1,"button_pressed":4,"time_out":false,"dwell_time":80.467041015625,"response_time":1681246606477.07},{"trial":4,"action":1,"button_pressed":4,"time_out":false,"dwell_time":48.071044921875,"response_time":1681246606893.72},{"trial":4,"action":1,"button_pressed":4,"time_out":false,"dwell_time":47.387939453125,"response_time":1681246607176.99},{"trial":4,"action":1,"button_pressed":4,"time_out":false,"dwell_time":64.39306640625,"response_time":1681246607377.21},{"trial":4,"action":1,"button_pressed":4,"time_out":false,"dwell_time":80.94189453125,"response_time":1681246607543.72},{"trial":4,"action":1,"button_pressed":4,"time_out":false,"dwell_time":63.993896484375,"response_time":1681246607693.7},{"trial":4,"action":1,"button_pressed":4,"time_out":false,"dwell_time":81.618896484375,"response_time":1681246607976.89},{"trial":4,"action":0,"button_pressed":-1,"time_out":false,"dwell_time":64.427001953125,"response_time":1681246609159.54},{"trial":4,"action":1,"button_pressed":3,"time_out":false,"dwell_time":97.470947265625,"response_time":1681246610192.18},{"trial":4,"action":1,"button_pressed":7,"time_out":false,"dwell_time":114.93115234375,"response_time":1681246610609.38},{"trial":4,"action":1,"button_pressed":4,"time_out":false,"dwell_time":80.39501953125,"response_time":1681246611225.39},{"trial":4,"action":1,"button_pressed":10,"time_out":false,"dwell_time":64.283203125,"response_time":1681246611708.38},{"trial":4,"action":1,"button_pressed":2,"time_out":false,"dwell_time":81.742919921875,"response_time":1681246612325.63},{"trial":4,"action":1,"button_pressed":9,"time_out":false,"dwell_time":47.298095703125,"response_time":1681246612858.49},{"trial":4,"action":9,"button_pressed":-1,"time_out":false,"dwell_time":64.046875,"response_time":1681246613641.59},{"trial":5,"action":1,"button_pressed":9,"time_out":false,"dwell_time":131.573974609375,"response_time":1681246633385.45},{"trial":5,"action":1,"button_pressed":4,"time_out":false,"dwell_time":113.7841796875,"response_time":1681246633934.62},{"trial":5,"action":1,"button_pressed":7,"time_out":false,"dwell_time":113.97314453125,"response_time":1681246634918.22},{"trial":5,"action":1,"button_pressed":1,"time_out":false,"dwell_time":113.964111328125,"response_time":1681246635433.87},{"trial":5,"action":1,"button_pressed":6,"time_out":false,"dwell_time":80.58203125,"response_time":1681246635867.74},{"trial":5,"action":1,"button_pressed":11,"time_out":false,"dwell_time":63.27783203125,"response_time":1681246636233.56},{"trial":5,"action":1,"button_pressed":8,"time_out":false,"dwell_time":47.133056640625,"response_time":1681246636800.44},{"trial":5,"action":9,"button_pressed":-1,"time_out":false,"dwell_time":64.39599609375,"response_time":1681246637550.03},{"trial":6,"action":1,"button_pressed":11,"time_out":false,"dwell_time":131.172119140625,"response_time":1681246657943.01},{"trial":6,"action":1,"button_pressed":4,"time_out":false,"dwell_time":79.998046875,"response_time":1681246658692.6},{"trial":6,"action":1,"button_pressed":3,"time_out":false,"dwell_time":80.97802734375,"response_time":1681246659209.32},{"trial":6,"action":1,"button_pressed":10,"time_out":false,"dwell_time":63.760009765625,"response_time":1681246660075.49},{"trial":6,"action":1,"button_pressed":2,"time_out":false,"dwell_time":80.327880859375,"response_time":1681246660575.54},{"trial":6,"action":1,"button_pressed":8,"time_out":false,"dwell_time":63.399169921875,"response_time":1681246661025.27},{"trial":6,"action":1,"button_pressed":1,"time_out":false,"dwell_time":64.91796875,"response_time":1681246661508.98},{"trial":6,"action":9,"button_pressed":-1,"time_out":false,"dwell_time":80.919189453125,"response_time":1681246662125.93},{"trial":7,"action":1,"button_pressed":7,"time_out":false,"dwell_time":80.505859375,"response_time":1681246684134.44},{"trial":7,"action":1,"button_pressed":5,"time_out":false,"dwell_time":64.825927734375,"response_time":1681246684434.87},{"trial":7,"action":1,"button_pressed":4,"time_out":false,"dwell_time":98.28515625,"response_time":1681246684884.67},{"trial":7,"action":1,"button_pressed":3,"time_out":false,"dwell_time":81,"response_time":1681246685200.58},{"trial":7,"action":1,"button_pressed":10,"time_out":false,"dwell_time":81.218994140625,"response_time":1681246685500.82},{"trial":7,"action":1,"button_pressed":1,"time_out":false,"dwell_time":114.77685546875,"response_time":1681246685817.6},{"trial":7,"action":1,"button_pressed":2,"time_out":false,"dwell_time":81.39892578125,"response_time":1681246686117.59},{"trial":7,"action":1,"button_pressed":8,"time_out":false,"dwell_time":47.677001953125,"response_time":1681246686484.49},{"trial":7,"action":9,"button_pressed":-1,"time_out":false,"dwell_time":47.64208984375,"response_time":1681246687150.73},{"trial":8,"action":1,"button_pressed":3,"time_out":false,"dwell_time":64.31103515625,"response_time":1681246709159.25},{"trial":8,"action":1,"button_pressed":1,"time_out":false,"dwell_time":81.0009765625,"response_time":1681246709392.42},{"trial":8,"action":1,"button_pressed":8,"time_out":false,"dwell_time":63.616943359375,"response_time":1681246709676.04},{"trial":8,"action":1,"button_pressed":5,"time_out":false,"dwell_time":64.094970703125,"response_time":1681246709959.71},{"trial":8,"action":1,"button_pressed":0,"time_out":false,"dwell_time":98.570068359375,"response_time":1681246710326.47},{"trial":8,"action":1,"button_pressed":7,"time_out":false,"dwell_time":80.641845703125,"response_time":1681246710576.2},{"trial":8,"action":1,"button_pressed":10,"time_out":false,"dwell_time":64.59716796875,"response_time":1681246711142.47},{"trial":8,"action":1,"button_pressed":9,"time_out":false,"dwell_time":65.06591796875,"response_time":1681246711392.65},{"trial":8,"action":9,"button_pressed":-1,"time_out":false,"dwell_time":31.85400390625,"response_time":1681246712126.61},{"trial":9,"action":1,"button_pressed":10,"time_out":false,"dwell_time":98.257080078125,"response_time":1681246729419.81},{"trial":9,"action":1,"button_pressed":2,"time_out":false,"dwell_time":114.416015625,"response_time":1681246731735.18},{"trial":9,"action":1,"button_pressed":9,"time_out":false,"dwell_time":113.3349609375,"response_time":1681246732318.13},{"trial":9,"action":1,"button_pressed":5,"time_out":false,"dwell_time":81.6337890625,"response_time":1681246732785.43},{"trial":9,"action":1,"button_pressed":11,"time_out":false,"dwell_time":97.47705078125,"response_time":1681246733367.79},{"trial":9,"action":1,"button_pressed":0,"time_out":false,"dwell_time":64.02294921875,"response_time":1681246733668.28},{"trial":9,"action":9,"button_pressed":-1,"time_out":false,"dwell_time":100.08203125,"response_time":1681246734253.22},{"trial":10,"action":1,"button_pressed":6,"time_out":false,"dwell_time":64.339111328125,"response_time":1681246753877.83},{"trial":10,"action":1,"button_pressed":11,"time_out":false,"dwell_time":64.9169921875,"response_time":1681246754144.81},{"trial":10,"action":1,"button_pressed":10,"time_out":false,"dwell_time":64.218994140625,"response_time":1681246754594.02},{"trial":10,"action":1,"button_pressed":4,"time_out":false,"dwell_time":64.4951171875,"response_time":1681246754944.07},{"trial":10,"action":1,"button_pressed":8,"time_out":false,"dwell_time":47.430908203125,"response_time":1681246755227.88},{"trial":10,"action":1,"button_pressed":3,"time_out":false,"dwell_time":48.64013671875,"response_time":1681246756311.26},{"trial":10,"action":1,"button_pressed":2,"time_out":false,"dwell_time":48.14599609375,"response_time":1681246756743.89},{"trial":10,"action":9,"button_pressed":-1,"time_out":false,"dwell_time":98.10400390625,"response_time":1681246757327.66},{"trial":11,"action":1,"button_pressed":4,"time_out":false,"dwell_time":81.72509765625,"response_time":1681246777120.5},{"trial":11,"action":1,"button_pressed":2,"time_out":false,"dwell_time":63.971923828125,"response_time":1681246777403.53},{"trial":11,"action":1,"button_pressed":6,"time_out":false,"dwell_time":80.9619140625,"response_time":1681246777870.55},{"trial":11,"action":1,"button_pressed":8,"time_out":false,"dwell_time":80.81494140625,"response_time":1681246778236.18},{"trial":11,"action":1,"button_pressed":1,"time_out":false,"dwell_time":80.9541015625,"response_time":1681246778752.62},{"trial":11,"action":1,"button_pressed":9,"time_out":false,"dwell_time":80.718994140625,"response_time":1681246779169.12},{"trial":11,"action":1,"button_pressed":0,"time_out":false,"dwell_time":81.069091796875,"response_time":1681246779585.64},{"trial":11,"action":9,"button_pressed":-1,"time_out":false,"dwell_time":81.18212890625,"response_time":1681246780136.51},{"trial":12,"action":1,"button_pressed":4,"time_out":false,"dwell_time":63.556884765625,"response_time":1681246802494.74},{"trial":12,"action":1,"button_pressed":11,"time_out":false,"dwell_time":97.583984375,"response_time":1681246802727.86},{"trial":12,"action":1,"button_pressed":7,"time_out":false,"dwell_time":164.131103515625,"response_time":1681246803111.19},{"trial":12,"action":1,"button_pressed":0,"time_out":false,"dwell_time":96.70703125,"response_time":1681246803860.82},{"trial":12,"action":1,"button_pressed":2,"time_out":false,"dwell_time":65.26708984375,"response_time":1681246804210.66},{"trial":12,"action":1,"button_pressed":3,"time_out":false,"dwell_time":63.439208984375,"response_time":1681246804760.42},{"trial":12,"action":1,"button_pressed":1,"time_out":false,"dwell_time":80.85302734375,"response_time":1681246805093.77},{"trial":12,"action":1,"button_pressed":9,"time_out":false,"dwell_time":64.278076171875,"response_time":1681246805510.98},{"trial":12,"action":9,"button_pressed":-1,"time_out":false,"dwell_time":63.900146484375,"response_time":1681246806260.48},{"trial":13,"action":1,"button_pressed":3,"time_out":false,"dwell_time":97.72412109375,"response_time":1681246828386.83},{"trial":13,"action":1,"button_pressed":10,"time_out":false,"dwell_time":64.151123046875,"response_time":1681246828769.79},{"trial":13,"action":1,"button_pressed":1,"time_out":false,"dwell_time":81.738037109375,"response_time":1681246829336.41},{"trial":13,"action":1,"button_pressed":2,"time_out":false,"dwell_time":63.57080078125,"response_time":1681246829785.48},{"trial":13,"action":1,"button_pressed":0,"time_out":false,"dwell_time":98.048828125,"response_time":1681246832651.9},{"trial":13,"action":1,"button_pressed":7,"time_out":false,"dwell_time":80.143798828125,"response_time":1681246833234.41},{"trial":13,"action":1,"button_pressed":11,"time_out":false,"dwell_time":81.591064453125,"response_time":1681246833535.04},{"trial":13,"action":1,"button_pressed":4,"time_out":false,"dwell_time":63.885986328125,"response_time":1681246833984.5},{"trial":13,"action":9,"button_pressed":-1,"time_out":false,"dwell_time":64.555908203125,"response_time":1681246834750.96}]}