{"meta_data":{"additional_headers":{},"game_name":"Recollect","version":"2.53.01","user_name":"67","organization":"braingamecenter","study":"mpl2_2022_11","session_number":0,"device_id":"74342D95-EE82-45E3-8ADF-48FB3203C5DD"},"data":[{"stage":"Practice","trial":0,"sequence":"6F","letter_input":"F","number_input":"6","is_correct":true,"presentation_start_time":1681246878451.44,"presentation_end_time":1681246881452.52,"response_time":1681246887801.54},{"stage":"Practice","trial":1,"sequence":"G4","letter_input":"G","number_input":"4","is_correct":true,"presentation_start_time":1681246889331.16,"presentation_end_time":1681246892332.19,"response_time":1681246896845.38},{"stage":"Practice","trial":2,"sequence":"3W5","letter_input":"W","number_input":"35","is_correct":true,"presentation_start_time":1681246898378.07,"presentation_end_time":1681246902878.55,"response_time":1681246908641.47},{"stage":"Practice","trial":3,"sequence":"T7L","letter_input":"LT","number_input":"7","is_correct":true,"presentation_start_time":1681246910174.14,"presentation_end_time":1681246914674.68,"response_time":1681246927884.98},{"stage":"Practice","trial":4,"sequence":"9J1","letter_input":"J","number_input":"19","is_correct":true,"presentation_start_time":1681246929417.75,"presentation_end_time":1681246933918.32,"response_time":1681246938348.14},{"stage":"Calibration","trial":0,"sequence":"7S","letter_input":"S","number_input":"7","is_correct":true,"presentation_start_time":1681246947611.67,"presentation_end_time":1681246950612.66,"response_time":1681246956125.55},{"stage":"Calibration","trial":1,"sequence":"D4","letter_input":"D","number_input":"4","is_correct":true,"presentation_start_time":1681246957658.25,"presentation_end_time":1681246960659.39,"response_time":1681246964189.57},{"stage":"Calibration","trial":2,"sequence":"6R2","letter_input":"R","number_input":"26","is_correct":true,"presentation_start_time":1681246965722.24,"presentation_end_time":1681246970222.71,"response_time":1681246974419.45},{"stage":"Calibration","trial":3,"sequence":"S1D","letter_input":"DS","number_input":"1","is_correct":true,"presentation_start_time":1681246975952.14,"presentation_end_time":1681246980452.61,"response_time":1681246984466.05},{"stage":"Calibration","trial":4,"sequence":"8L6G","letter_input":"LG","number_input":"68","is_correct":false,"presentation_start_time":1681246985998.76,"presentation_end_time":1681246991998.83,"response_time":1681246996945.2},{"stage":"Calibration","trial":5,"sequence":"S5A3","letter_input":"AS","number_input":"35","is_correct":true,"presentation_start_time":1681246998477.86,"presentation_end_time":1681247004477.94,"response_time":1681247014705.94},{"stage":"Calibration","trial":6,"sequence":"7M1C9","letter_input":"CM","number_input":"179","is_correct":true,"presentation_start_time":1681247016238.64,"presentation_end_time":1681247023738.14,"response_time":1681247042513.27},{"stage":"Calibration","trial":7,"sequence":"F5Z2H","letter_input":"FHZ","number_input":"25","is_correct":true,"presentation_start_time":1681247044045.94,"presentation_end_time":1681247051545.43,"response_time":1681247072769.82},{"stage":"Calibration","trial":8,"sequence":"6N3L1D","letter_input":"DNL","number_input":"136","is_correct":false,"presentation_start_time":1681247074302.5,"presentation_end_time":1681247083301.57,"response_time":1681247110473.89},{"stage":"Calibration","trial":9,"sequence":"E7B5H2","letter_input":"EHL","number_input":"257","is_correct":false,"presentation_start_time":1681247112006.53,"presentation_end_time":1681247121005.59,"response_time":1681247168870.98}]}