{"meta_data":{"additional_headers":{},"game_name":"Recollect","version":"2.53.01","user_name":"68","organization":"braingamecenter","study":"mpl2_2022_11","session_number":0,"device_id":"74342D95-EE82-45E3-8ADF-48FB3203C5DD"},"data":[{"stage":"Practice","trial":0,"sequence":"6F","letter_input":"F","number_input":"6","is_correct":true,"presentation_start_time":1681321818560.72,"presentation_end_time":1681321821561.76,"response_time":1681321831858.28},{"stage":"Practice","trial":1,"sequence":"G4","letter_input":"G","number_input":"4","is_correct":true,"presentation_start_time":1681321833389.1,"presentation_end_time":1681321836390.25,"response_time":1681321841086.73},{"stage":"Practice","trial":2,"sequence":"3W5","letter_input":"W","number_input":"35","is_correct":true,"presentation_start_time":1681321842619.5,"presentation_end_time":1681321847119.96,"response_time":1681321853282.75},{"stage":"Practice","trial":3,"sequence":"T7L","letter_input":"LT","number_input":"7","is_correct":true,"presentation_start_time":1681321854815.45,"presentation_end_time":1681321859315.84,"response_time":1681321867961.37},{"stage":"Practice","trial":4,"sequence":"9J1","letter_input":"J","number_input":"19","is_correct":true,"presentation_start_time":1681321869493.97,"presentation_end_time":1681321873994.45,"response_time":1681321878974.29},{"stage":"Calibration","trial":0,"sequence":"Q7","letter_input":"Q","number_input":"7","is_correct":true,"presentation_start_time":1681321890537.11,"presentation_end_time":1681321893538.16,"response_time":1681321897734.89},{"stage":"Calibration","trial":1,"sequence":"8H","letter_input":"H","number_input":"8","is_correct":true,"presentation_start_time":1681321899267.66,"presentation_end_time":1681321902268.64,"response_time":1681321905532.37},{"stage":"Calibration","trial":2,"sequence":"K9E","letter_input":"EK","number_input":"9","is_correct":true,"presentation_start_time":1681321907065.02,"presentation_end_time":1681321911565.65,"response_time":1681321915662.39},{"stage":"Calibration","trial":3,"sequence":"5T1","letter_input":"T","number_input":"15","is_correct":true,"presentation_start_time":1681321917195.1,"presentation_end_time":1681321921695.68,"response_time":1681321925492.5},{"stage":"Calibration","trial":4,"sequence":"L7E2","letter_input":"EL","number_input":"27","is_correct":true,"presentation_start_time":1681321927025.22,"presentation_end_time":1681321933025.24,"response_time":1681321937138.68},{"stage":"Calibration","trial":5,"sequence":"9W1S","letter_input":"WS","number_input":"19","is_correct":false,"presentation_start_time":1681321938671.41,"presentation_end_time":1681321944671.45,"response_time":1681321950934.17},{"stage":"Calibration","trial":6,"sequence":"Y8T3M","letter_input":"MTY","number_input":"38","is_correct":true,"presentation_start_time":1681321952466.87,"presentation_end_time":1681321959966.39,"response_time":1681321967961.95},{"stage":"Calibration","trial":7,"sequence":"6P4N9","letter_input":"MP","number_input":"469","is_correct":false,"presentation_start_time":1681321969494.65,"presentation_end_time":1681321976994.33,"response_time":1681321985022.96},{"stage":"Calibration","trial":8,"sequence":"D7Z5H1","letter_input":"DMZ","number_input":"157","is_correct":false,"presentation_start_time":1681321986555.72,"presentation_end_time":1681321995554.73,"response_time":1681322002017.43},{"stage":"Calibration","trial":9,"sequence":"2W9R6G","letter_input":"GRW","number_input":"296","is_correct":false,"presentation_start_time":1681322003550.11,"presentation_end_time":1681322012549.47,"response_time":1681322020678.09}]}