{"meta_data":{"additional_headers":{},"game_name":"Recollect","version":"2.53.01","user_name":"69","organization":"braingamecenter","study":"mpl2_2022_11","session_number":0,"device_id":"74342D95-EE82-45E3-8ADF-48FB3203C5DD"},"data":[{"stage":"Practice","trial":0,"sequence":"6F","letter_input":"F","number_input":"6","is_correct":true,"presentation_start_time":1681407770353.86,"presentation_end_time":1681407773355.04,"response_time":1681407780853.48},{"stage":"Practice","trial":1,"sequence":"G4","letter_input":"G","number_input":"4","is_correct":true,"presentation_start_time":1681407782383.28,"presentation_end_time":1681407785384.27,"response_time":1681407790697.34},{"stage":"Practice","trial":2,"sequence":"3W5","letter_input":"W","number_input":"35","is_correct":true,"presentation_start_time":1681407792230.05,"presentation_end_time":1681407796730.58,"response_time":1681407804426.18},{"stage":"Practice","trial":3,"sequence":"T7L","letter_input":"LT","number_input":"7","is_correct":true,"presentation_start_time":1681407805958.81,"presentation_end_time":1681407810459.4,"response_time":1681407817171.92},{"stage":"Practice","trial":4,"sequence":"9J1","letter_input":"J","number_input":"19","is_correct":true,"presentation_start_time":1681407818704.65,"presentation_end_time":1681407823205.18,"response_time":1681407830467.56},{"stage":"Calibration","trial":0,"sequence":"6F","letter_input":"F","number_input":"6","is_correct":true,"presentation_start_time":1681407843079.93,"presentation_end_time":1681407846080.97,"response_time":1681407850244.32},{"stage":"Calibration","trial":1,"sequence":"H1","letter_input":"H","number_input":"1","is_correct":true,"presentation_start_time":1681407851777.1,"presentation_end_time":1681407854778.08,"response_time":1681407858891.46},{"stage":"Calibration","trial":2,"sequence":"9Q7","letter_input":"Q","number_input":"79","is_correct":true,"presentation_start_time":1681407860424.22,"presentation_end_time":1681407864924.76,"response_time":1681407869404.88},{"stage":"Calibration","trial":3,"sequence":"T5G","letter_input":"GT","number_input":"5","is_correct":true,"presentation_start_time":1681407870937.38,"presentation_end_time":1681407875438.02,"response_time":1681407880767.62},{"stage":"Calibration","trial":4,"sequence":"8Y4F","letter_input":"FY","number_input":"48","is_correct":true,"presentation_start_time":1681407882300.33,"presentation_end_time":1681407888300.34,"response_time":1681407898961.67},{"stage":"Calibration","trial":5,"sequence":"Z9D2","letter_input":"DZ","number_input":"29","is_correct":true,"presentation_start_time":1681407900494.38,"presentation_end_time":1681407906494.33,"response_time":1681407913656.79},{"stage":"Calibration","trial":6,"sequence":"5R1G8","letter_input":"GR","number_input":"158","is_correct":true,"presentation_start_time":1681407915189.54,"presentation_end_time":1681407922689.07,"response_time":1681407937765.55},{"stage":"Calibration","trial":7,"sequence":"D7Q3K","letter_input":"DKQ","number_input":"37","is_correct":true,"presentation_start_time":1681407939298.32,"presentation_end_time":1681407946797.7,"response_time":1681407967688.99},{"stage":"Calibration","trial":8,"sequence":"8W4F2A","letter_input":"AFW","number_input":"248","is_correct":true,"presentation_start_time":1681407969221.74,"presentation_end_time":1681407978220.82,"response_time":1681407991497.88},{"stage":"Calibration","trial":9,"sequence":"G6Z3T1","letter_input":"GTZ","number_input":"136","is_correct":true,"presentation_start_time":1681407993030.54,"presentation_end_time":1681408002029.6,"response_time":1681408027735.94},{"stage":"Calibration","trial":10,"sequence":"7F4A9V2","letter_input":"AFGV","number_input":"279","is_correct":false,"presentation_start_time":1681408029268.6,"presentation_end_time":1681408039767.15,"response_time":1681408070255.23},{"stage":"Calibration","trial":11,"sequence":"G6Z1E8J","letter_input":"EJZ","number_input":"168","is_correct":false,"presentation_start_time":1681408071787.91,"presentation_end_time":1681408082286.57,"response_time":1681408105010.46}]}