{"meta_data":{"additional_headers":{},"game_name":"Recollect","version":"2.53.01","user_name":"6","organization":"braingamecenter","study":"mpl2_2022_11","session_number":0,"device_id":"74342D95-EE82-45E3-8ADF-48FB3203C5DD"},"data":[{"stage":"Practice","trial":0,"sequence":"6F","letter_input":"F","number_input":"6","is_correct":true,"presentation_start_time":1675721218407.52,"presentation_end_time":1675721221407.8,"response_time":1675721228024.76},{"stage":"Practice","trial":1,"sequence":"G4","letter_input":"G","number_input":"4","is_correct":true,"presentation_start_time":1675721229553.93,"presentation_end_time":1675721232554.12,"response_time":1675721237401.55},{"stage":"Practice","trial":2,"sequence":"3W5","letter_input":"W","number_input":"35","is_correct":true,"presentation_start_time":1675721238934.34,"presentation_end_time":1675721243434.08,"response_time":1675721248364.71},{"stage":"Practice","trial":3,"sequence":"T7L","letter_input":"LT","number_input":"7","is_correct":true,"presentation_start_time":1675721249897.31,"presentation_end_time":1675721254397.28,"response_time":1675721262460.08},{"stage":"Practice","trial":4,"sequence":"9J1","letter_input":"J","number_input":"19","is_correct":true,"presentation_start_time":1675721263992.76,"presentation_end_time":1675721268492.58,"response_time":1675721272690.13},{"stage":"Calibration","trial":0,"sequence":"1E","letter_input":"E","number_input":"1","is_correct":true,"presentation_start_time":1675721282770.08,"presentation_end_time":1675721285770.37,"response_time":1675721289634.63},{"stage":"Calibration","trial":1,"sequence":"J7","letter_input":"J","number_input":"7","is_correct":true,"presentation_start_time":1675721291167.36,"presentation_end_time":1675721294167.64,"response_time":1675721297865.35},{"stage":"Calibration","trial":2,"sequence":"8G3","letter_input":"G","number_input":"38","is_correct":true,"presentation_start_time":1675721299398.04,"presentation_end_time":1675721303897.86,"response_time":1675721308211.96},{"stage":"Calibration","trial":3,"sequence":"Z1Q","letter_input":"QZ","number_input":"1","is_correct":true,"presentation_start_time":1675721309744.66,"presentation_end_time":1675721314244.56,"response_time":1675721319874.91},{"stage":"Calibration","trial":4,"sequence":"8C3A","letter_input":"CA","number_input":"38","is_correct":false,"presentation_start_time":1675721321407.57,"presentation_end_time":1675721327406.87,"response_time":1675721342650.91},{"stage":"Calibration","trial":5,"sequence":"W6Q1","letter_input":"QW","number_input":"16","is_correct":true,"presentation_start_time":1675721344183.57,"presentation_end_time":1675721350182.91,"response_time":1675721356613},{"stage":"Calibration","trial":6,"sequence":"7R5L9","letter_input":"LRQ","number_input":"579","is_correct":false,"presentation_start_time":1675721358145.85,"presentation_end_time":1675721365644.63,"response_time":1675721383521.01},{"stage":"Calibration","trial":7,"sequence":"Z3Q1K","letter_input":"LQZ","number_input":"13","is_correct":false,"presentation_start_time":1675721385053.7,"presentation_end_time":1675721392552.59,"response_time":1675721405530.65}]}