{"meta_data":{"additional_headers":{},"game_name":"Recollect","version":"2.53.01","user_name":"6","organization":"braingamecenter","study":"mpl2_2022_11","session_number":0,"device_id":"74342D95-EE82-45E3-8ADF-48FB3203C5DD"},"data":[{"trial":0,"action":1,"button_pressed":11,"time_out":false,"dwell_time":80.784912109375,"response_time":1675721028636.88},{"trial":0,"action":1,"button_pressed":8,"time_out":false,"dwell_time":64.307861328125,"response_time":1675721029035.99},{"trial":0,"action":9,"button_pressed":-1,"time_out":false,"dwell_time":75.199951171875,"response_time":1675721029697.35},{"trial":1,"action":1,"button_pressed":9,"time_out":false,"dwell_time":81.926025390625,"response_time":1675721039133.6},{"trial":1,"action":1,"button_pressed":1,"time_out":false,"dwell_time":98.720947265625,"response_time":1675721040233.14},{"trial":1,"action":1,"button_pressed":3,"time_out":false,"dwell_time":65.201904296875,"response_time":1675721040616.25},{"trial":1,"action":9,"button_pressed":-1,"time_out":false,"dwell_time":48.173828125,"response_time":1675721041283.16},{"trial":2,"action":1,"button_pressed":2,"time_out":false,"dwell_time":47.697998046875,"response_time":1675721052962.24},{"trial":2,"action":1,"button_pressed":4,"time_out":false,"dwell_time":80.89501953125,"response_time":1675721053378.25},{"trial":2,"action":1,"button_pressed":10,"time_out":false,"dwell_time":63.677978515625,"response_time":1675721053744.72},{"trial":2,"action":1,"button_pressed":5,"time_out":false,"dwell_time":48.555908203125,"response_time":1675721054178.56},{"trial":2,"action":9,"button_pressed":-1,"time_out":false,"dwell_time":64.801025390625,"response_time":1675721054861.38},{"trial":3,"action":1,"button_pressed":6,"time_out":false,"dwell_time":80.552978515625,"response_time":1675721069340.03},{"trial":3,"action":1,"button_pressed":3,"time_out":false,"dwell_time":81.488037109375,"response_time":1675721069723.11},{"trial":3,"action":1,"button_pressed":8,"time_out":false,"dwell_time":80.30712890625,"response_time":1675721070156.2},{"trial":3,"action":1,"button_pressed":11,"time_out":false,"dwell_time":64.263916015625,"response_time":1675721070756.5},{"trial":3,"action":1,"button_pressed":0,"time_out":false,"dwell_time":63.64697265625,"response_time":1675721071322.37},{"trial":3,"action":9,"button_pressed":-1,"time_out":false,"dwell_time":65.52294921875,"response_time":1675721071773.25},{"trial":4,"action":1,"button_pressed":8,"time_out":false,"dwell_time":80.43896484375,"response_time":1675721088600.29},{"trial":4,"action":1,"button_pressed":11,"time_out":false,"dwell_time":81.781005859375,"response_time":1675721089350.57},{"trial":4,"action":1,"button_pressed":6,"time_out":false,"dwell_time":47.55322265625,"response_time":1675721090283.52},{"trial":4,"action":1,"button_pressed":4,"time_out":false,"dwell_time":63.734130859375,"response_time":1675721090766.08},{"trial":4,"action":1,"button_pressed":1,"time_out":false,"dwell_time":81.946044921875,"response_time":1675721091266.78},{"trial":4,"action":1,"button_pressed":10,"time_out":false,"dwell_time":64.235107421875,"response_time":1675721091782.45},{"trial":4,"action":9,"button_pressed":-1,"time_out":false,"dwell_time":64.65185546875,"response_time":1675721092783.38},{"trial":5,"action":1,"button_pressed":10,"time_out":false,"dwell_time":81.1162109375,"response_time":1675721109727.49},{"trial":5,"action":1,"button_pressed":1,"time_out":false,"dwell_time":63.795166015625,"response_time":1675721110343.16},{"trial":5,"action":1,"button_pressed":2,"time_out":false,"dwell_time":97.79296875,"response_time":1675721111026.95},{"trial":5,"action":1,"button_pressed":8,"time_out":false,"dwell_time":80.43896484375,"response_time":1675721111576.22},{"trial":5,"action":1,"button_pressed":11,"time_out":false,"dwell_time":64.348876953125,"response_time":1675721112692.46},{"trial":5,"action":1,"button_pressed":6,"time_out":false,"dwell_time":64.450927734375,"response_time":1675721113942.04},{"trial":5,"action":9,"button_pressed":-1,"time_out":false,"dwell_time":64.98095703125,"response_time":1675721114642.28},{"trial":6,"action":1,"button_pressed":6,"time_out":false,"dwell_time":81.68798828125,"response_time":1675721127055.23},{"trial":6,"action":1,"button_pressed":8,"time_out":false,"dwell_time":47.962890625,"response_time":1675721127488.65},{"trial":6,"action":1,"button_pressed":11,"time_out":false,"dwell_time":64.373779296875,"response_time":1675721128054.79},{"trial":6,"action":1,"button_pressed":7,"time_out":false,"dwell_time":65.14501953125,"response_time":1675721128421.31},{"trial":6,"action":9,"button_pressed":-1,"time_out":false,"dwell_time":64.919921875,"response_time":1675721129105},{"trial":7,"action":1,"button_pressed":8,"time_out":false,"dwell_time":64.455810546875,"response_time":1675721143749.17},{"trial":7,"action":1,"button_pressed":4,"time_out":false,"dwell_time":64.5849609375,"response_time":1675721144132.41},{"trial":7,"action":1,"button_pressed":1,"time_out":false,"dwell_time":48.97119140625,"response_time":1675721144549.88},{"trial":7,"action":1,"button_pressed":5,"time_out":false,"dwell_time":48.39306640625,"response_time":1675721145032.41},{"trial":7,"action":1,"button_pressed":3,"time_out":false,"dwell_time":81.945068359375,"response_time":1675721145515.85},{"trial":7,"action":9,"button_pressed":-1,"time_out":false,"dwell_time":48.552001953125,"response_time":1675721146083.16},{"trial":8,"action":1,"button_pressed":8,"time_out":false,"dwell_time":81.197998046875,"response_time":1675721162777.18},{"trial":8,"action":1,"button_pressed":0,"time_out":false,"dwell_time":63.739990234375,"response_time":1675721163209.44},{"trial":8,"action":1,"button_pressed":1,"time_out":false,"dwell_time":64.88916015625,"response_time":1675721163626.63},{"trial":8,"action":1,"button_pressed":9,"time_out":false,"dwell_time":81.05712890625,"response_time":1675721164075.77},{"trial":8,"action":9,"button_pressed":-1,"time_out":true,"dwell_time":10094.3249511719,"response_time":1675721174089.03},{"trial":9,"action":1,"button_pressed":5,"time_out":false,"dwell_time":64.861083984375,"response_time":1675721191284.38},{"trial":9,"action":1,"button_pressed":0,"time_out":false,"dwell_time":63.822998046875,"response_time":1675721191650.31},{"trial":9,"action":1,"button_pressed":11,"time_out":false,"dwell_time":64.31298828125,"response_time":1675721192084.08},{"trial":9,"action":1,"button_pressed":6,"time_out":false,"dwell_time":64.05712890625,"response_time":1675721192433.78},{"trial":9,"action":1,"button_pressed":8,"time_out":false,"dwell_time":64.2568359375,"response_time":1675721192900.49},{"trial":9,"action":1,"button_pressed":4,"time_out":false,"dwell_time":31.153076171875,"response_time":1675721193217.14},{"trial":9,"action":9,"button_pressed":-1,"time_out":false,"dwell_time":64.80810546875,"response_time":1675721193834.03}]}