Audio_Only_Files,Video_Files,Original_Word_List,noiseLevelCode,conditionCodes,noiseLevelFile1,noiseLevelFile2,InstrTextVar,practiceTrials.thisRepN,practiceTrials.thisTrialN,practiceTrials.thisN,practiceTrials.thisIndex,trials.thisRepN,trials.thisTrialN,trials.thisN,trials.thisIndex,letsGoAlready.keys,letsGoAlready.rt,letsGoAlready.started,letsGoAlready.stopped,text_2.started,text_2.stopped,text_3.started,text_3.stopped,key_resp_2.keys,key_resp_2.rt,key_resp_2.started,key_resp_2.stopped,text_5.started,text_5.stopped,fixCross.started,fixCross.stopped,fixCross2.started,fixCross2.stopped,answerPrompt.started,answerPrompt.stopped,getAnswer.text,getAnswer.started,getAnswer.stopped,goToNext.keys,goToNext.rt,goToNext.started,goToNext.stopped,stretchBreakTxrt.started,stretchBreakTxrt.stopped,key_resp_3.keys,key_resp_3.rt,key_resp_3.started,key_resp_3.stopped,exitTxt.started,exitTxt.stopped,key_resp.keys,key_resp.rt,key_resp.started,key_resp.stopped,participant,session,date,expName,psychopyVersion,frameRate,
,,,,,,,,,,,,,,,,space,2.939167560019996,17.079279008001322,None,,,,,,,,,,,,,,,,,,,,,,,,,,,,,,,,,,,,6,001,2023_Feb_06_1517,SpeechDraft1Carolyn_lessNoise,2021.2.3,60.02268844853045,
,,,,,,,,,,,,,,,,,,,,17.079279008001322,None,20.045989784994163,None,space,0.9174946910061408,20.212935413990635,None,,,,,,,,,,,,,,,,,,,,,,,,,,,,6,001,2023_Feb_06_1517,SpeechDraft1Carolyn_lessNoise,2021.2.3,60.02268844853045,
ash.wav,ash.mpg,ash,1,A,Pink_Noise_1_1.wav,Pink_Noise_1_2.wav,"This is an example of an

AUDIO trial",0,0,0,0,,,,,,,,,,,,,,,,,21.195885002001887,None,22.179068725003162,None,25.27882055498776,None,26.662902353011305,None,ash,26.662902353011305,None,return,2.3447142349905334,26.74576099301339,None,,,,,,,,,,,,,6,001,2023_Feb_06_1517,SpeechDraft1Carolyn_lessNoise,2021.2.3,60.02268844853045,
ash.wav,ash.mpg,ash,1,AV,Pink_Noise_1_1.wav,Pink_Noise_1_2.wav,"This is an example of an

AUDIO + VIDEO  trial",0,1,1,1,,,,,,,,,,,,,,,,,29.145964691997506,None,30.12907484101015,None,31.62883162300568,None,32.995803964993684,None,ash,32.995803964993684,None,return,2.6994253960147034,33.079088869999396,None,,,,,,,,,,,,,6,001,2023_Feb_06_1517,SpeechDraft1Carolyn_lessNoise,2021.2.3,60.02268844853045,
,,,,,,,,,,,,,,,,,,,,,,,,,,,,,,,,,,,,,,,,,,,35.82884612499038,None,space,4.96664395800326,35.99580655401223,None,,,,,,,6,001,2023_Feb_06_1517,SpeechDraft1Carolyn_lessNoise,2021.2.3,60.02268844853045,
claim.wav,claim.mpg,claim,5,AV,Pink_Noise_5_1.wav,Pink_Noise_5_2.wav,,,,,,0,0,0,102,,,,,,,,,,,,,,,41.02913126000203,None,42.497518416988896,None,43.87910523600294,None,claim,43.87910523600294,None,return,2.8561722809972707,43.96234680901398,None,,,,,,,,,,,,,6,001,2023_Feb_06_1517,SpeechDraft1Carolyn_lessNoise,2021.2.3,60.02268844853045,
fill.wav,fill.mpg,fill,1,A,Pink_Noise_1_1.wav,Pink_Noise_1_2.wav,,,,,,0,1,1,50,,,,,,,,,,,,,,,46.846051180997165,None,48.345811787003186,None,49.72989101198618,None,fill,49.72989101198618,None,return,2.2462071490008384,49.81224231800297,None,,,,,,,,,,,,,6,001,2023_Feb_06_1517,SpeechDraft1Carolyn_lessNoise,2021.2.3,60.02268844853045,
dip.wav,dip.mpg,dip,3,A,Pink_Noise_3_1.wav,Pink_Noise_3_2.wav,,,,,,0,2,2,10,,,,,,,,,,,,,,,52.07913954500691,None,53.59565110999392,None,54.979087896994315,None,"dip
",54.979087896994315,None,return,1.2198065489938017,55.0626327630016,None,,,,,,,,,,,,,6,001,2023_Feb_06_1517,SpeechDraft1Carolyn_lessNoise,2021.2.3,60.02268844853045,
golf.wav,golf.mpg,golf,2,A,Pink_Noise_2_1.wav,Pink_Noise_2_2.wav,,,,,,0,3,3,34,,,,,,,,,,,,,,,56.3135547649872,None,57.81384214598802,None,59.195769412006484,None,golf,59.195769412006484,None,return,1.3949732299952302,59.2795156929933,None,,,,,,,,,,,,,6,001,2023_Feb_06_1517,SpeechDraft1Carolyn_lessNoise,2021.2.3,60.02268844853045,
chalk.wav,chalk.mpg,chalk,6,A,Pink_Noise_6_1.wav,Pink_Noise_6_2.wav,,,,,,0,4,4,28,,,,,,,,,,,,,,,60.695982347999234,None,62.19574709999142,None,63.5628326490114,None,"chalk
",63.5628326490114,None,return,2.4526708670018706,63.64576951498748,None,,,,,,,,,,,,,6,001,2023_Feb_06_1517,SpeechDraft1Carolyn_lessNoise,2021.2.3,60.02268844853045,
gift.wav,gift.mpg,gift,2,AV,Pink_Noise_2_1.wav,Pink_Noise_2_2.wav,,,,,,0,5,5,70,,,,,,,,,,,,,,,66.12954821900348,None,67.64599386398913,None,69.04641444800654,None,"gift
",69.04641444800654,None,return,1.6170527809881605,69.12937307200627,None,,,,,,,,,,,,,6,001,2023_Feb_06_1517,SpeechDraft1Carolyn_lessNoise,2021.2.3,60.02268844853045,
flag.wav,flag.mpg,flag,3,AV,Pink_Noise_3_1.wav,Pink_Noise_3_2.wav,,,,,,0,6,6,95,,,,,,,,,,,,,,,70.77935128600802,None,72.27904580600443,None,73.66251676299726,None,flag,73.66251676299726,None,return,2.7125099300174043,73.74593781400472,None,,,,,,,,,,,,,6,001,2023_Feb_06_1517,SpeechDraft1Carolyn_lessNoise,2021.2.3,60.02268844853045,
grind.wav,grind.mpg,grind,1,AV,Pink_Noise_1_1.wav,Pink_Noise_1_2.wav,,,,,,0,7,7,113,,,,,,,,,,,,,,,76.4791437209933,None,77.97935903599137,None,79.36236141901463,None,grind,79.36236141901463,None,return,2.3724653539829887,79.44605694300844,None,,,,,,,,,,,,,6,001,2023_Feb_06_1517,SpeechDraft1Carolyn_lessNoise,2021.2.3,60.02268844853045,
ask.wav,ask.mpg,ask,3,A,Pink_Noise_3_1.wav,Pink_Noise_3_2.wav,,,,,,0,8,8,21,,,,,,,,,,,,,,,81.84593992799637,None,83.34575163800037,None,84.71358683300787,None,ask,84.71358683300787,None,return,1.2946821649966296,84.79577022901503,None,,,,,,,,,,,,,6,001,2023_Feb_06_1517,SpeechDraft1Carolyn_lessNoise,2021.2.3,60.02268844853045,
squat.wav,squat.mpg,squat,4,A,Pink_Noise_4_1.wav,Pink_Noise_4_2.wav,,,,,,0,9,9,41,,,,,,,,,,,,,,,86.11286487101461,None,87.61228102099267,None,88.99586460599676,None,squat,88.99586460599676,None,return,3.3392487449746113,89.07918992900522,None,,,,,,,,,,,,,6,001,2023_Feb_06_1517,SpeechDraft1Carolyn_lessNoise,2021.2.3,60.02268844853045,
brick.wav,brick.mpg,brick,6,A,Pink_Noise_6_1.wav,Pink_Noise_6_2.wav,,,,,,0,10,10,36,,,,,,,,,,,,,,,92.44625278800959,None,93.94586339799571,None,95.33018682998954,None,grip,95.33018682998954,None,return,2.1659745809738524,95.41254817601293,None,,,,,,,,,,,,,6,001,2023_Feb_06_1517,SpeechDraft1Carolyn_lessNoise,2021.2.3,60.02268844853045,
curb.wav,curb.mpg,curb,6,A,Pink_Noise_6_1.wav,Pink_Noise_6_2.wav,,,,,,0,11,11,26,,,,,,,,,,,,,,,97.59606235398678,None,99.0957158000092,None,100.47931063800934,None,"through
",100.47931063800934,None,return,4.784090739005478,100.56239208599436,None,,,,,,,,,,,,,6,001,2023_Feb_06_1517,SpeechDraft1Carolyn_lessNoise,2021.2.3,60.02268844853045,
cat.wav,cat.mpg,cat,6,A,Pink_Noise_6_1.wav,Pink_Noise_6_2.wav,,,,,,0,12,12,3,,,,,,,,,,,,,,,105.37941412601504,None,106.89574518700829,None,108.27922986299382,None,pet,108.27922986299382,None,return,2.263959596020868,108.36251939300564,None,,,,,,,,,,,,,6,001,2023_Feb_06_1517,SpeechDraft1Carolyn_lessNoise,2021.2.3,60.02268844853045,
wear.wav,wear.mpg,wear,1,A,Pink_Noise_1_1.wav,Pink_Noise_1_2.wav,,,,,,0,13,13,22,,,,,,,,,,,,,,,110.64586731200689,None,112.16254833599669,None,113.54583114100387,None,wear,113.54583114100387,None,return,3.0129606779955793,113.62957429999369,None,,,,,,,,,,,,,6,001,2023_Feb_06_1517,SpeechDraft1Carolyn_lessNoise,2021.2.3,60.02268844853045,
cuff.wav,cuff.mpg,cuff,3,AV,Pink_Noise_3_1.wav,Pink_Noise_3_2.wav,,,,,,0,14,14,104,,,,,,,,,,,,,,,116.6625570509932,None,118.16254460200435,None,119.59733082901221,None,cuff,119.59733082901221,None,return,1.923177175980527,119.67932091499097,None,,,,,,,,,,,,,6,001,2023_Feb_06_1517,SpeechDraft1Carolyn_lessNoise,2021.2.3,60.02268844853045,
frost.wav,frost.mpg,frost,2,A,Pink_Noise_2_1.wav,Pink_Noise_2_2.wav,,,,,,0,15,15,56,,,,,,,,,,,,,,,121.62981414000387,None,123.12907635301235,None,124.49595631100237,None,frost,124.49595631100237,None,return,2.4952372680127155,124.5792761890043,None,,,,,,,,,,,,,6,001,2023_Feb_06_1517,SpeechDraft1Carolyn_lessNoise,2021.2.3,60.02268844853045,
batch.wav,batch.mpg,batch,3,AV,Pink_Noise_3_1.wav,Pink_Noise_3_2.wav,,,,,,0,16,16,72,,,,,,,,,,,,,,,127.0963318409922,None,128.59563699399587,None,129.9792057859886,None,batch,129.9792057859886,None,return,2.323862525023287,130.0626296219998,None,,,,,,,,,,,,,6,001,2023_Feb_06_1517,SpeechDraft1Carolyn_lessNoise,2021.2.3,60.02268844853045,
please.wav,please.mpg,please,3,A,Pink_Noise_3_1.wav,Pink_Noise_3_2.wav,,,,,,0,17,17,31,,,,,,,,,,,,,,,132.41280161798932,None,133.91258303500945,None,135.27926645599655,None,"these
",135.27926645599655,None,return,4.367888584005414,135.3625671530026,None,,,,,,,,,,,,,6,001,2023_Feb_06_1517,SpeechDraft1Carolyn_lessNoise,2021.2.3,60.02268844853045,
freeze.wav,freeze.mpg,freeze,1,A,Pink_Noise_1_1.wav,Pink_Noise_1_2.wav,,,,,,0,18,18,51,,,,,,,,,,,,,,,139.76258263501222,None,141.2625533239916,None,142.62933255400276,None,freeze,142.62933255400276,None,return,2.8497772219998296,142.7127380729944,None,,,,,,,,,,,,,6,001,2023_Feb_06_1517,SpeechDraft1Carolyn_lessNoise,2021.2.3,60.02268844853045,
bat.wav,bat.mpg,bat,5,A,Pink_Noise_5_1.wav,Pink_Noise_5_2.wav,,,,,,0,19,19,45,,,,,,,,,,,,,,,145.57952600100543,None,147.07904806899023,None,148.46282517100917,None,bat,148.46282517100917,None,return,1.5281631649995688,148.54627570300363,None,,,,,,,,,,,,,6,001,2023_Feb_06_1517,SpeechDraft1Carolyn_lessNoise,2021.2.3,60.02268844853045,
bloat.wav,bloat.mpg,bloat,5,AV,Pink_Noise_5_1.wav,Pink_Noise_5_2.wav,,,,,,0,20,20,73,,,,,,,,,,,,,,,150.0969308599888,None,151.61237586900825,None,152.97964807099197,None,bloat,152.97964807099197,None,return,2.5799212060228456,153.06262379599502,None,,,,,,,,,,,,,6,001,2023_Feb_06_1517,SpeechDraft1Carolyn_lessNoise,2021.2.3,60.02268844853045,
cheer.wav,cheer.mpg,cheer,4,A,Pink_Noise_4_1.wav,Pink_Noise_4_2.wav,,,,,,0,21,21,33,,,,,,,,,,,,,,,155.66272428099182,None,157.16256468900247,None,158.54658722001477,None,cheer,158.54658722001477,None,return,2.2609068659949116,158.6295085849997,None,,,,,,,,,,,,,6,001,2023_Feb_06_1517,SpeechDraft1Carolyn_lessNoise,2021.2.3,60.02268844853045,
bird.wav,bird.mpg,bird,4,A,Pink_Noise_4_1.wav,Pink_Noise_4_2.wav,,,,,,0,22,22,40,,,,,,,,,,,,,,,160.9131483680103,None,162.4792366749898,None,163.86270415899344,None,birth,163.86270415899344,None,return,1.6725617240008432,163.9459533150075,None,,,,,,,,,,,,,6,001,2023_Feb_06_1517,SpeechDraft1Carolyn_lessNoise,2021.2.3,60.02268844853045,
cork.wav,cork.mpg,cork,2,AV,Pink_Noise_2_1.wav,Pink_Noise_2_2.wav,,,,,,0,23,23,117,,,,,,,,,,,,,,,165.64600856401375,None,167.14572833498823,None,168.5126384079922,None,"cork
",168.5126384079922,None,return,2.102555258985376,168.5959036150016,None,,,,,,,,,,,,,6,001,2023_Feb_06_1517,SpeechDraft1Carolyn_lessNoise,2021.2.3,60.02268844853045,
book.wav,book.mpg,book,2,A,Pink_Noise_2_1.wav,Pink_Noise_2_2.wav,,,,,,0,24,24,19,,,,,,,,,,,,,,,170.729261992994,None,172.229494203988,None,173.61261259700404,None,look,173.61261259700404,None,return,1.4104229520016816,173.696020125004,None,,,,,,,,,,,,,6,001,2023_Feb_06_1517,SpeechDraft1Carolyn_lessNoise,2021.2.3,60.02268844853045,
cope.wav,cope.mpg,cope,1,AV,Pink_Noise_1_1.wav,Pink_Noise_1_2.wav,,,,,,0,25,25,83,,,,,,,,,,,,,,,175.129650457995,None,176.62907169599202,None,178.0126701949921,None,cope,178.0126701949921,None,return,2.7624776950106025,178.09597191101057,None,,,,,,,,,,,,,6,001,2023_Feb_06_1517,SpeechDraft1Carolyn_lessNoise,2021.2.3,60.02268844853045,
broil.wav,broil.mpg,broil,2,AV,Pink_Noise_2_1.wav,Pink_Noise_2_2.wav,,,,,,0,26,26,100,,,,,,,,,,,,,,,180.87927259600838,None,182.37946530198678,None,183.76258822501404,None,broil,183.76258822501404,None,return,2.2124208319874015,183.8460221980058,None,,,,,,,,,,,,,6,001,2023_Feb_06_1517,SpeechDraft1Carolyn_lessNoise,2021.2.3,60.02268844853045,
fame.wav,fame.mpg,fame,2,AV,Pink_Noise_2_1.wav,Pink_Noise_2_2.wav,,,,,,0,27,27,64,,,,,,,,,,,,,,,186.07947141199838,None,187.62928592399112,None,189.01409061800223,None,"fame
",189.01409061800223,None,return,2.2504438090254553,189.0959862600139,None,,,,,,,,,,,,,6,001,2023_Feb_06_1517,SpeechDraft1Carolyn_lessNoise,2021.2.3,60.02268844853045,
pants.wav,pants.mpg,pants,3,A,Pink_Noise_3_1.wav,Pink_Noise_3_2.wav,,,,,,0,28,28,35,,,,,,,,,,,,,,,191.37933217699174,None,192.87906286801444,None,194.26271972901304,None,"pants
",194.26271972901304,None,return,1.9524108199984767,194.34604613800184,None,,,,,,,,,,,,,6,001,2023_Feb_06_1517,SpeechDraft1Carolyn_lessNoise,2021.2.3,60.02268844853045,
deal.wav,deal.mpg,deal,1,AV,Pink_Noise_1_1.wav,Pink_Noise_1_2.wav,,,,,,0,29,29,105,,,,,,,,,,,,,,,196.32935568399262,None,197.89603393900325,None,199.27948019601172,None,deal,199.27948019601172,None,return,1.4078403509920463,199.36272828199435,None,,,,,,,,,,,,,6,001,2023_Feb_06_1517,SpeechDraft1Carolyn_lessNoise,2021.2.3,60.02268844853045,
cell.wav,cell.mpg,cell,3,AV,Pink_Noise_3_1.wav,Pink_Noise_3_2.wav,,,,,,0,30,30,93,,,,,,,,,,,,,,,200.79593635498895,None,202.36248156800866,None,203.72935308801243,None,sell,203.72935308801243,None,return,1.989794282009825,203.81270574199152,None,,,,,,,,,,,,,6,001,2023_Feb_06_1517,SpeechDraft1Carolyn_lessNoise,2021.2.3,60.02268844853045,
sake.wav,sake.mpg,sake,2,A,Pink_Noise_2_1.wav,Pink_Noise_2_2.wav,,,,,,0,31,31,0,,,,,,,,,,,,,,,205.82945415598806,None,207.32910167699447,None,208.7126105829957,None,sink,208.7126105829957,None,return,1.8223944529891014,208.79609496801277,None,,,,,,,,,,,,,6,001,2023_Feb_06_1517,SpeechDraft1Carolyn_lessNoise,2021.2.3,60.02268844853045,
beef.wav,beef.mpg,beef,1,AV,Pink_Noise_1_1.wav,Pink_Noise_1_2.wav,,,,,,0,32,32,62,,,,,,,,,,,,,,,210.64607438800158,None,212.14594335798756,None,213.52950085900375,None,beef,213.52950085900375,None,return,1.7658995320089161,213.61261655500857,None,,,,,,,,,,,,,6,001,2023_Feb_06_1517,SpeechDraft1Carolyn_lessNoise,2021.2.3,60.02268844853045,
thief.wav,thief.mpg,thief,1,A,Pink_Noise_1_1.wav,Pink_Noise_1_2.wav,,,,,,0,33,33,11,,,,,,,,,,,,,,,215.3959740959981,None,216.8958613910072,None,218.27940614300314,None,theif,218.27940614300314,None,return,2.631284814007813,218.36321226900327,None,,,,,,,,,,,,,6,001,2023_Feb_06_1517,SpeechDraft1Carolyn_lessNoise,2021.2.3,60.02268844853045,
cap.wav,cap.mpg,cap,5,AV,Pink_Noise_5_1.wav,Pink_Noise_5_2.wav,,,,,,0,34,34,65,,,,,,,,,,,,,,,221.01290685299318,None,222.52917094298755,None,223.91275610699086,None,"cap
",223.91275610699086,None,return,1.918268048990285,223.99617650199798,None,,,,,,,,,,,,,6,001,2023_Feb_06_1517,SpeechDraft1Carolyn_lessNoise,2021.2.3,60.02268844853045,
spire.wav,spire.mpg,spire,2,A,Pink_Noise_2_1.wav,Pink_Noise_2_2.wav,,,,,,0,35,35,43,,,,,,,,,,,,,,,225.94608515000436,None,227.46275246300502,None,228.84650143200997,None,"inspire
",228.84650143200997,None,return,5.537026023986982,228.92940622501192,None,,,,,,,,,,,,,6,001,2023_Feb_06_1517,SpeechDraft1Carolyn_lessNoise,2021.2.3,60.02268844853045,
flat.wav,flat.mpg,flat,6,AV,Pink_Noise_6_1.wav,Pink_Noise_6_2.wav,,,,,,0,36,36,96,,,,,,,,,,,,,,,234.4961094080063,None,235.99637305698707,None,237.36279844801174,None,flat,237.36279844801174,None,return,1.980315632012207,237.44618889599224,None,,,,,,,,,,,,,6,001,2023_Feb_06_1517,SpeechDraft1Carolyn_lessNoise,2021.2.3,60.02268844853045,
gash.wav,gash.mpg,gash,1,AV,Pink_Noise_1_1.wav,Pink_Noise_1_2.wav,,,,,,0,37,37,116,,,,,,,,,,,,,,,239.446072302002,None,240.97959594000713,None,242.36302307000733,None,gash,242.36302307000733,None,return,1.780238420004025,242.44630496500758,None,,,,,,,,,,,,,6,001,2023_Feb_06_1517,SpeechDraft1Carolyn_lessNoise,2021.2.3,60.02268844853045,
creep.wav,creep.mpg,creep,5,AV,Pink_Noise_5_1.wav,Pink_Noise_5_2.wav,,,,,,0,38,38,78,,,,,,,,,,,,,,,244.24612890399294,None,245.76265422301367,None,247.14672415101086,None,creep,247.14672415101086,None,return,1.708443705982063,247.2299900749931,None,,,,,,,,,,,,,6,001,2023_Feb_06_1517,SpeechDraft1Carolyn_lessNoise,2021.2.3,60.02268844853045,
bed.wav,bed.mpg,bed,6,AV,Pink_Noise_6_1.wav,Pink_Noise_6_2.wav,,,,,,0,39,39,98,,,,,,,,,,,,,,,248.96271755400812,None,250.48065565500292,None,251.86261222101166,None,"bend
",251.86261222101166,None,return,2.336425528017571,251.94601588899968,None,,,,,,,,,,,,,6,001,2023_Feb_06_1517,SpeechDraft1Carolyn_lessNoise,2021.2.3,60.02268844853045,
aunt.wav,aunt.mpg,aunt,2,A,Pink_Noise_2_1.wav,Pink_Noise_2_2.wav,,,,,,0,40,40,7,,,,,,,,,,,,,,,254.31254691499635,None,255.89596821699524,None,257.3307280819863,None,aunt,257.3307280819863,None,return,1.9884085970115848,257.414096004999,None,,,,,,,,,,,,,6,001,2023_Feb_06_1517,SpeechDraft1Carolyn_lessNoise,2021.2.3,60.02268844853045,
boot.wav,boot.mpg,boot,3,A,Pink_Noise_3_1.wav,Pink_Noise_3_2.wav,,,,,,0,41,41,1,,,,,,,,,,,,,,,259.42940933900536,None,260.92917207899154,None,262.31275648999144,None,"boot
",262.31275648999144,None,return,1.5020568580075633,262.3963807320106,None,,,,,,,,,,,,,6,001,2023_Feb_06_1517,SpeechDraft1Carolyn_lessNoise,2021.2.3,60.02268844853045,
bake.wav,bake.mpg,bake,3,AV,Pink_Noise_3_1.wav,Pink_Noise_3_2.wav,,,,,,0,42,42,88,,,,,,,,,,,,,,,263.94610512699,None,265.4624630190083,None,266.8292972059862,None,bake,266.8292972059862,None,return,1.849527061014669,266.9129943709995,None,,,,,,,,,,,,,6,001,2023_Feb_06_1517,SpeechDraft1Carolyn_lessNoise,2021.2.3,60.02268844853045,
click.wav,click.mpg,click,1,AV,Pink_Noise_1_1.wav,Pink_Noise_1_2.wav,,,,,,0,43,43,77,,,,,,,,,,,,,,,268.7795626450097,None,270.32932247099234,None,271.71320649201516,None,"click
",271.71320649201516,None,return,1.7340242069913074,271.79640113099595,None,,,,,,,,,,,,,6,001,2023_Feb_06_1517,SpeechDraft1Carolyn_lessNoise,2021.2.3,60.02268844853045,
eight.wav,eight.mpg,eight,6,AV,Pink_Noise_6_1.wav,Pink_Noise_6_2.wav,,,,,,0,44,44,81,,,,,,,,,,,,,,,273.56287224800326,None,275.079245335015,None,276.462778237008,None,eat,276.462778237008,None,return,1.3198971179954242,276.54653578301077,None,,,,,,,,,,,,,6,001,2023_Feb_06_1517,SpeechDraft1Carolyn_lessNoise,2021.2.3,60.02268844853045,
giant.wav,giant.mpg,giant,4,AV,Pink_Noise_4_1.wav,Pink_Noise_4_2.wav,,,,,,0,45,45,60,,,,,,,,,,,,,,,277.8960660689918,None,279.39581088500563,None,280.7794396649988,None,giant,280.7794396649988,None,return,2.107699740998214,280.86283334498876,None,,,,,,,,,,,,,6,001,2023_Feb_06_1517,SpeechDraft1Carolyn_lessNoise,2021.2.3,60.02268844853045,
dope.wav,dope.mpg,dope,2,AV,Pink_Noise_2_1.wav,Pink_Noise_2_2.wav,,,,,,0,46,46,110,,,,,,,,,,,,,,,282.99648805099423,None,284.5296287300007,None,285.8961184619984,None,"dope
",285.8961184619984,None,return,1.733923516003415,285.98050075999345,None,,,,,,,,,,,,,6,001,2023_Feb_06_1517,SpeechDraft1Carolyn_lessNoise,2021.2.3,60.02268844853045,
grant.wav,grant.mpg,grant,4,AV,Pink_Noise_4_1.wav,Pink_Noise_4_2.wav,,,,,,0,47,47,68,,,,,,,,,,,,,,,287.74629532100516,None,289.24608499900205,None,290.629424712999,None,"grant
",290.629424712999,None,return,1.9212786949938163,290.7132286959968,None,,,,,,,,,,,,,6,001,2023_Feb_06_1517,SpeechDraft1Carolyn_lessNoise,2021.2.3,60.02268844853045,
game.wav,game.mpg,game,6,AV,Pink_Noise_6_1.wav,Pink_Noise_6_2.wav,,,,,,0,48,48,112,,,,,,,,,,,,,,,292.6628598870011,None,294.1626138490101,None,295.54623281699605,None,"game
",295.54623281699605,None,return,1.8210352390015032,295.62939852199634,None,,,,,,,,,,,,,6,001,2023_Feb_06_1517,SpeechDraft1Carolyn_lessNoise,2021.2.3,60.02268844853045,
script.wav,script.mpg,script,5,AV,Pink_Noise_5_1.wav,Pink_Noise_5_2.wav,,,,,,0,49,49,115,,,,,,,,,,,,,,,297.49633979899227,None,298.9961359860026,None,300.36275879701134,None,"stripped
",300.36275879701134,None,return,2.68427441600943,300.4461543050129,None,,,,,,,,,,,,,6,001,2023_Feb_06_1517,SpeechDraft1Carolyn_lessNoise,2021.2.3,60.02268844853045,
bond.wav,bond.mpg,bond,5,AV,Pink_Noise_5_1.wav,Pink_Noise_5_2.wav,,,,,,0,50,50,111,,,,,,,,,,,,,,,303.1629944460001,None,304.6626753580058,None,306.02953534701373,None,bond,306.02953534701373,None,return,1.6415805850119796,306.1128677139932,None,,,,,,,,,,,,,6,001,2023_Feb_06_1517,SpeechDraft1Carolyn_lessNoise,2021.2.3,60.02268844853045,
bride.wav,bride.mpg,bride,6,AV,Pink_Noise_6_1.wav,Pink_Noise_6_2.wav,,,,,,0,51,51,71,,,,,,,,,,,,,,,307.77949299899046,None,309.2961062650138,None,310.67925355100306,None,bride,310.67925355100306,None,return,2.3676699670031667,310.76277799200034,None,,,,,,,,,,,,,6,001,2023_Feb_06_1517,SpeechDraft1Carolyn_lessNoise,2021.2.3,60.02268844853045,
crush.wav,crush.mpg,crush,3,AV,Pink_Noise_3_1.wav,Pink_Noise_3_2.wav,,,,,,0,52,52,109,,,,,,,,,,,,,,,313.1627699370147,None,314.6624643380055,None,316.04629369900795,None,crush,316.04629369900795,None,return,2.49692158200196,316.1296211119916,None,,,,,,,,,,,,,6,001,2023_Feb_06_1517,SpeechDraft1Carolyn_lessNoise,2021.2.3,60.02268844853045,
poll.wav,poll.mpg,poll,1,A,Pink_Noise_1_1.wav,Pink_Noise_1_2.wav,,,,,,0,53,53,37,,,,,,,,,,,,,,,318.64628462900873,None,320.1463317630114,None,321.52950476499973,None,pull,321.52950476499973,None,return,1.093598623003345,321.61283281398937,None,,,,,,,,,,,,,6,001,2023_Feb_06_1517,SpeechDraft1Carolyn_lessNoise,2021.2.3,60.02268844853045,
chord.wav,chord.mpg,chord,5,AV,Pink_Noise_5_1.wav,Pink_Noise_5_2.wav,,,,,,0,54,54,86,,,,,,,,,,,,,,,322.72990703300457,None,324.2460976279981,None,325.6128068010148,None,court,325.6128068010148,None,return,2.8979156309796963,325.6965748970106,None,,,,,,,,,,,,,6,001,2023_Feb_06_1517,SpeechDraft1Carolyn_lessNoise,2021.2.3,60.02268844853045,
cloth.wav,cloth.mpg,cloth,4,AV,Pink_Noise_4_1.wav,Pink_Noise_4_2.wav,,,,,,0,55,55,74,,,,,,,,,,,,,,,328.6130517210113,None,330.2630148160097,None,331.69697503501084,None,cloth,331.69697503501084,None,return,2.0946474249940366,331.7797870860086,None,,,,,,,,,,,,,6,001,2023_Feb_06_1517,SpeechDraft1Carolyn_lessNoise,2021.2.3,60.02268844853045,
gust.wav,gust.mpg,gust,1,A,Pink_Noise_1_1.wav,Pink_Noise_1_2.wav,,,,,,0,56,56,57,,,,,,,,,,,,,,,333.8962057780009,None,335.412744072004,None,336.77953884899034,None,gust,336.77953884899034,None,return,1.595649899012642,336.86278818699066,None,,,,,,,,,,,,,6,001,2023_Feb_06_1517,SpeechDraft1Carolyn_lessNoise,2021.2.3,60.02268844853045,
blood.wav,blood.mpg,blood,4,A,Pink_Noise_4_1.wav,Pink_Noise_4_2.wav,,,,,,0,57,57,52,,,,,,,,,,,,,,,338.4798126789974,None,339.99609628200415,None,341.37961197900586,None,blood,341.37961197900586,None,return,1.8115066980244592,341.4629265659896,None,,,,,,,,,,,,,6,001,2023_Feb_06_1517,SpeechDraft1Carolyn_lessNoise,2021.2.3,60.02268844853045,
style.wav,style.mpg,style,3,A,Pink_Noise_3_1.wav,Pink_Noise_3_2.wav,,,,,,0,58,58,49,,,,,,,,,,,,,,,343.2962746490084,None,344.7804774219985,None,346.163329848001,None,style,346.163329848001,None,return,1.9962686609942466,346.2463154440047,None,,,,,,,,,,,,,6,001,2023_Feb_06_1517,SpeechDraft1Carolyn_lessNoise,2021.2.3,60.02268844853045,
dull.wav,dull.mpg,dull,5,AV,Pink_Noise_5_1.wav,Pink_Noise_5_2.wav,,,,,,0,59,59,91,,,,,,,,,,,,,,,348.26287312898785,None,349.7792566360149,None,351.164301265002,None,gull,351.164301265002,None,return,1.3556195949786343,351.24687674900633,None,,,,,,,,,,,,,6,001,2023_Feb_06_1517,SpeechDraft1Carolyn_lessNoise,2021.2.3,60.02268844853045,
climb.wav,climb.mpg,climb,1,A,Pink_Noise_1_1.wav,Pink_Noise_1_2.wav,,,,,,0,60,60,54,,,,,,,,,,,,,,,352.62972306800657,None,354.1293769289914,None,355.5144701729878,None,climb,355.5144701729878,None,return,2.1258574270177633,355.5965772419877,None,,,,,,,,,,,,,6,001,2023_Feb_06_1517,SpeechDraft1Carolyn_lessNoise,2021.2.3,60.02268844853045,
blade.wav,blade.mpg,blade,4,AV,Pink_Noise_4_1.wav,Pink_Noise_4_2.wav,,,,,,0,61,61,87,,,,,,,,,,,,,,,357.7461788269866,None,359.2460603619984,None,360.6295482139976,None,"blade
",360.6295482139976,None,return,3.2176016599987634,360.7128338170005,None,,,,,,,,,,,,,6,001,2023_Feb_06_1517,SpeechDraft1Carolyn_lessNoise,2021.2.3,60.02268844853045,
beach.wav,beach.mpg,beach,6,A,Pink_Noise_6_1.wav,Pink_Noise_6_2.wav,,,,,,0,62,62,47,,,,,,,,,,,,,,,363.9629182009958,None,365.51287943299394,None,366.89614911100944,None,beach,366.89614911100944,None,return,2.0149639949959237,366.97963177700876,None,,,,,,,,,,,,,6,001,2023_Feb_06_1517,SpeechDraft1Carolyn_lessNoise,2021.2.3,60.02268844853045,
foil.wav,foil.mpg,foil,2,A,Pink_Noise_2_1.wav,Pink_Noise_2_2.wav,,,,,,0,63,63,9,,,,,,,,,,,,,,,369.0129289680044,None,370.5295363680052,None,371.89756921998924,None,foil,371.89756921998924,None,return,1.4467531149857678,371.9797494529921,None,,,,,,,,,,,,,6,001,2023_Feb_06_1517,SpeechDraft1Carolyn_lessNoise,2021.2.3,60.02268844853045,
fear.wav,fear.mpg,fear,5,A,Pink_Noise_5_1.wav,Pink_Noise_5_2.wav,,,,,,0,64,64,13,,,,,,,,,,,,,,,373.44616003800184,None,374.946656938002,None,376.3296202280035,None,lead,376.3296202280035,None,return,2.9095782699878328,376.41293437901186,None,,,,,,,,,,,,,6,001,2023_Feb_06_1517,SpeechDraft1Carolyn_lessNoise,2021.2.3,60.02268844853045,
globe.wav,globe.mpg,globe,1,AV,Pink_Noise_1_1.wav,Pink_Noise_1_2.wav,,,,,,0,65,65,103,,,,,,,,,,,,,,,379.34648375899997,None,380.91326834700885,None,382.2962733870081,None,globe,382.2962733870081,None,return,1.8147366880148184,382.37975789699703,None,,,,,,,,,,,,,6,001,2023_Feb_06_1517,SpeechDraft1Carolyn_lessNoise,2021.2.3,60.02268844853045,
nine.wav,nine.mpg,nine,2,AV,Pink_Noise_2_1.wav,Pink_Noise_2_2.wav,,,,,,0,66,66,76,,,,,,,,,,,,,,,384.21323290700093,None,385.7461327050114,None,387.12951067401445,None,nine,387.12951067401445,None,return,1.7816250339965336,387.2129022399895,None,,,,,,,,,,,,,6,001,2023_Feb_06_1517,SpeechDraft1Carolyn_lessNoise,2021.2.3,60.02268844853045,
deed.wav,deed.mpg,deed,6,AV,Pink_Noise_6_1.wav,Pink_Noise_6_2.wav,,,,,,0,67,67,90,,,,,,,,,,,,,,,389.01324058001046,None,390.5127914279874,None,391.8962911220151,None,lead,391.8962911220151,None,return,3.598382455005776,391.98013173701474,None,,,,,,,,,,,,,6,001,2023_Feb_06_1517,SpeechDraft1Carolyn_lessNoise,2021.2.3,60.02268844853045,
bad.wav,bad.mpg,bad,4,AV,Pink_Noise_4_1.wav,Pink_Noise_4_2.wav,,,,,,0,68,68,84,,,,,,,,,,,,,,,395.5962307979935,None,397.0960911400034,None,398.4795384960016,None,band,398.4795384960016,None,return,2.047166220989311,398.56328994300566,None,,,,,,,,,,,,,6,001,2023_Feb_06_1517,SpeechDraft1Carolyn_lessNoise,2021.2.3,60.02268844853045,
strike.wav,strike.mpg,strike,2,AV,Pink_Noise_2_1.wav,Pink_Noise_2_2.wav,,,,,,0,69,69,67,,,,,,,,,,,,,,,400.6296081239998,None,402.12941490201047,None,403.5128147919895,None,strike,403.5128147919895,None,return,2.390183884999715,403.5963620689872,None,,,,,,,,,,,,,6,001,2023_Feb_06_1517,SpeechDraft1Carolyn_lessNoise,2021.2.3,60.02268844853045,
roar.wav,roar.mpg,roar,2,A,Pink_Noise_2_1.wav,Pink_Noise_2_2.wav,,,,,,0,70,70,8,,,,,,,,,,,,,,,406.0129383399908,None,407.5128753170138,None,408.89646248699864,None,roar,408.89646248699864,None,return,2.4148680380021688,408.9796516020142,None,,,,,,,,,,,,,6,001,2023_Feb_06_1517,SpeechDraft1Carolyn_lessNoise,2021.2.3,60.02268844853045,
faith.wav,faith.mpg,faith,5,A,Pink_Noise_5_1.wav,Pink_Noise_5_2.wav,,,,,,0,71,71,53,,,,,,,,,,,,,,,411.41292469299515,None,412.913734605012,None,414.2962848719908,None,think,414.2962848719908,None,return,3.1908879250113387,414.37957840500167,None,,,,,,,,,,,,,6,001,2023_Feb_06_1517,SpeechDraft1Carolyn_lessNoise,2021.2.3,60.02268844853045,
cab.wav,cab.mpg,cab,6,A,Pink_Noise_6_1.wav,Pink_Noise_6_2.wav,,,,,,0,72,72,25,,,,,,,,,,,,,,,417.5964051730116,None,419.09643142600544,None,420.4799737200083,None,ham,420.4799737200083,None,return,2.359498674981296,420.56292332400335,None,,,,,,,,,,,,,6,001,2023_Feb_06_1517,SpeechDraft1Carolyn_lessNoise,2021.2.3,60.02268844853045,
blond.wav,blond.mpg,blond,3,A,Pink_Noise_3_1.wav,Pink_Noise_3_2.wav,,,,,,0,73,73,30,,,,,,,,,,,,,,,422.94638981699245,None,424.4461649500008,None,425.83013008200214,None,blonde,425.83013008200214,None,return,2.425469477981096,425.9129904760048,None,,,,,,,,,,,,,6,001,2023_Feb_06_1517,SpeechDraft1Carolyn_lessNoise,2021.2.3,60.02268844853045,
cent.wav,cent.mpg,cent,4,AV,Pink_Noise_4_1.wav,Pink_Noise_4_2.wav,,,,,,0,74,74,94,,,,,,,,,,,,,,,428.36296360898996,None,429.87947777399677,None,431.26343851099955,None,"set
",431.26343851099955,None,return,1.3200492049800232,431.3463919539936,None,,,,,,,,,,,,,6,001,2023_Feb_06_1517,SpeechDraft1Carolyn_lessNoise,2021.2.3,60.02268844853045,
fowl.wav,fowl.mpg,fowl,3,A,Pink_Noise_3_1.wav,Pink_Noise_3_2.wav,,,,,,0,75,75,59,,,,,,,,,,,,,,,432.69641465399764,None,434.21282598300604,None,435.5962747420126,None,"foul
",435.5962747420126,None,return,1.4667029649717733,435.6797218720021,None,,,,,,,,,,,,,6,001,2023_Feb_06_1517,SpeechDraft1Carolyn_lessNoise,2021.2.3,60.02268844853045,
paid.wav,paid.mpg,paid,5,A,Pink_Noise_5_1.wav,Pink_Noise_5_2.wav,,,,,,0,76,76,4,,,,,,,,,,,,,,,437.17961878399365,None,438.67956202398636,None,440.0630468860036,None,"pain
",440.0630468860036,None,return,3.3521900910127442,440.1462550389988,None,,,,,,,,,,,,,6,001,2023_Feb_06_1517,SpeechDraft1Carolyn_lessNoise,2021.2.3,60.02268844853045,
fruit.wav,fruit.mpg,fruit,6,A,Pink_Noise_6_1.wav,Pink_Noise_6_2.wav,,,,,,0,77,77,42,,,,,,,,,,,,,,,443.5298095699982,None,445.1631217490067,None,446.5463078340108,None,breached,446.5463078340108,None,return,4.980781411024509,446.62965210998664,None,,,,,,,,,,,,,6,001,2023_Feb_06_1517,SpeechDraft1Carolyn_lessNoise,2021.2.3,60.02268844853045,
nice.wav,nice.mpg,nice,3,A,Pink_Noise_3_1.wav,Pink_Noise_3_2.wav,,,,,,0,78,78,12,,,,,,,,,,,,,,,451.6297026149987,None,453.14613032201305,None,454.52968820600654,None,nice,454.52968820600654,None,return,1.7498010550043546,454.61298905301373,None,,,,,,,,,,,,,6,001,2023_Feb_06_1517,SpeechDraft1Carolyn_lessNoise,2021.2.3,60.02268844853045,
eat.wav,eat.mpg,eat,5,AV,Pink_Noise_5_1.wav,Pink_Noise_5_2.wav,,,,,,0,79,79,108,,,,,,,,,,,,,,,456.3796092380071,None,457.96281434601406,None,459.3465115989966,None,eat,459.3465115989966,None,return,2.40485100101796,459.42962203201023,None,,,,,,,,,,,,,6,001,2023_Feb_06_1517,SpeechDraft1Carolyn_lessNoise,2021.2.3,60.02268844853045,
dust.wav,dust.mpg,dust,4,A,Pink_Noise_4_1.wav,Pink_Noise_4_2.wav,,,,,,0,80,80,48,,,,,,,,,,,,,,,461.86311764401034,None,463.36305496201385,None,464.74773672400624,None,"dust
",464.74773672400624,None,return,2.436728139000479,464.8297019019956,None,,,,,,,,,,,,,6,001,2023_Feb_06_1517,SpeechDraft1Carolyn_lessNoise,2021.2.3,60.02268844853045,
crack.wav,crack.mpg,crack,4,AV,Pink_Noise_4_1.wav,Pink_Noise_4_2.wav,,,,,,0,81,81,66,,,,,,,,,,,,,,,467.2964153900102,None,468.7963044010103,None,470.1794330079865,None,crack,470.1794330079865,None,return,4.691049512010068,470.2634409189923,None,,,,,,,,,,,,,6,001,2023_Feb_06_1517,SpeechDraft1Carolyn_lessNoise,2021.2.3,60.02268844853045,
jeep.wav,jeep.mpg,jeep,4,AV,Pink_Noise_4_1.wav,Pink_Noise_4_2.wav,,,,,,0,82,82,119,,,,,,,,,,,,,,,474.9800855900103,None,476.4965614939865,None,477.86297359800665,None,jeep,477.86297359800665,None,return,1.9440345629991498,477.9464130009874,None,,,,,,,,,,,,,6,001,2023_Feb_06_1517,SpeechDraft1Carolyn_lessNoise,2021.2.3,60.02268844853045,
die.wav,die.mpg,die,3,AV,Pink_Noise_3_1.wav,Pink_Noise_3_2.wav,,,,,,0,83,83,118,,,,,,,,,,,,,,,479.913245756994,None,481.46307812599116,None,482.8465923529875,None,die,482.8465923529875,None,return,1.9526697830006015,482.9297647009953,None,,,,,,,,,,,,,6,001,2023_Feb_06_1517,SpeechDraft1Carolyn_lessNoise,2021.2.3,60.02268844853045,
cure.wav,cure.mpg,cure,2,AV,Pink_Noise_2_1.wav,Pink_Noise_2_2.wav,,,,,,0,84,84,79,,,,,,,,,,,,,,,484.91326692601433,None,486.42974834900815,None,487.8129059089988,None,"cure
",487.8129059089988,None,return,1.9859997390012722,487.896423261991,None,,,,,,,,,,,,,6,001,2023_Feb_06_1517,SpeechDraft1Carolyn_lessNoise,2021.2.3,60.02268844853045,
truck.wav,truck.mpg,truck,6,A,Pink_Noise_6_1.wav,Pink_Noise_6_2.wav,,,,,,0,85,85,29,,,,,,,,,,,,,,,489.9130055299902,None,491.42977398700896,None,492.81378729699645,None,truck,492.81378729699645,None,return,2.6580144519975875,492.8965008269879,None,,,,,,,,,,,,,6,001,2023_Feb_06_1517,SpeechDraft1Carolyn_lessNoise,2021.2.3,60.02268844853045,
fog.wav,fog.mpg,fog,1,AV,Pink_Noise_1_1.wav,Pink_Noise_1_2.wav,,,,,,0,86,86,69,,,,,,,,,,,,,,,495.58032874998753,None,497.08092785300687,None,498.4796625720046,None,fog,498.4796625720046,None,return,1.495946451992495,498.54649923200486,None,,,,,,,,,,,,,6,001,2023_Feb_06_1517,SpeechDraft1Carolyn_lessNoise,2021.2.3,60.02268844853045,
feast.wav,feast.mpg,feast,6,AV,Pink_Noise_6_1.wav,Pink_Noise_6_2.wav,,,,,,0,87,87,85,,,,,,,,,,,,,,,500.06302840501303,None,501.56299122900236,None,502.94642778500565,None,fleet,502.94642778500565,None,return,2.7568246129958425,503.0296877679939,None,,,,,,,,,,,,,6,001,2023_Feb_06_1517,SpeechDraft1Carolyn_lessNoise,2021.2.3,60.02268844853045,
drab.wav,drab.mpg,drab,4,AV,Pink_Noise_4_1.wav,Pink_Noise_4_2.wav,,,,,,0,88,88,82,,,,,,,,,,,,,,,505.81322950401227,None,507.329803280998,None,508.6963752039883,None,"drab
",508.6963752039883,None,return,2.270673277002061,508.77977138600545,None,,,,,,,,,,,,,6,001,2023_Feb_06_1517,SpeechDraft1Carolyn_lessNoise,2021.2.3,60.02268844853045,
bar.wav,bar.mpg,bar,2,A,Pink_Noise_2_1.wav,Pink_Noise_2_2.wav,,,,,,0,89,89,24,,,,,,,,,,,,,,,511.0802688150143,None,512.596458629996,None,513.9798862820026,None,bar,513.9798862820026,None,return,1.2433613080065697,514.0630891009932,None,,,,,,,,,,,,,6,001,2023_Feb_06_1517,SpeechDraft1Carolyn_lessNoise,2021.2.3,60.02268844853045,
blank.wav,blank.mpg,blank,4,A,Pink_Noise_4_1.wav,Pink_Noise_4_2.wav,,,,,,0,90,90,16,,,,,,,,,,,,,,,515.3298230269866,None,516.8295176090032,None,518.213105769013,None,"length
",518.213105769013,None,return,4.63391716699698,518.2965674390143,None,,,,,,,,,,,,,6,001,2023_Feb_06_1517,SpeechDraft1Carolyn_lessNoise,2021.2.3,60.02268844853045,
bless.wav,bless.mpg,bless,4,A,Pink_Noise_4_1.wav,Pink_Noise_4_2.wav,,,,,,0,91,91,2,,,,,,,,,,,,,,,522.963428285002,None,524.4629820589907,None,525.8644484649994,None,rest,525.8644484649994,None,return,2.0878743470238987,525.9465601870033,None,,,,,,,,,,,,,6,001,2023_Feb_06_1517,SpeechDraft1Carolyn_lessNoise,2021.2.3,60.02268844853045,
sock.wav,sock.mpg,sock,3,AV,Pink_Noise_3_1.wav,Pink_Noise_3_2.wav,,,,,,0,92,92,106,,,,,,,,,,,,,,,528.0630657300062,None,529.5629916290054,None,530.9463160879968,None,sock,530.9463160879968,None,return,1.5964707599778194,531.0300355819927,None,,,,,,,,,,,,,6,001,2023_Feb_06_1517,SpeechDraft1Carolyn_lessNoise,2021.2.3,60.02268844853045,
hit.wav,hit.mpg,hit,1,AV,Pink_Noise_1_1.wav,Pink_Noise_1_2.wav,,,,,,0,93,93,97,,,,,,,,,,,,,,,532.6466426539992,None,534.1464708860149,None,535.5297789509932,None,"hit
",535.5297789509932,None,return,1.2370885960117448,535.6133460930141,None,,,,,,,,,,,,,6,001,2023_Feb_06_1517,SpeechDraft1Carolyn_lessNoise,2021.2.3,60.02268844853045,
gush.wav,gush.mpg,gush,2,AV,Pink_Noise_2_1.wav,Pink_Noise_2_2.wav,,,,,,0,94,94,114,,,,,,,,,,,,,,,536.8968311189965,None,538.396429727989,None,539.779701722,None,gush,539.779701722,None,return,1.8752628799993545,539.8631795769907,None,,,,,,,,,,,,,6,001,2023_Feb_06_1517,SpeechDraft1Carolyn_lessNoise,2021.2.3,60.02268844853045,
crime.wav,crime.mpg,crime,4,A,Pink_Noise_4_1.wav,Pink_Noise_4_2.wav,,,,,,0,95,95,18,,,,,,,,,,,,,,,541.7631236620073,None,543.263039981015,None,544.6464524210023,None,climb,544.6464524210023,None,return,1.9923645950038917,544.7300668380049,None,,,,,,,,,,,,,6,001,2023_Feb_06_1517,SpeechDraft1Carolyn_lessNoise,2021.2.3,60.02268844853045,
fish.wav,fish.mpg,fish,5,A,Pink_Noise_5_1.wav,Pink_Noise_5_2.wav,,,,,,0,96,96,27,,,,,,,,,,,,,,,546.7466776299989,None,548.2466795129876,None,549.6297923680104,None,fish,549.6297923680104,None,return,1.6332317109918222,549.7132038059935,None,,,,,,,,,,,,,6,001,2023_Feb_06_1517,SpeechDraft1Carolyn_lessNoise,2021.2.3,60.02268844853045,
dwell.wav,dwell.mpg,dwell,1,A,Pink_Noise_1_1.wav,Pink_Noise_1_2.wav,,,,,,0,97,97,46,,,,,,,,,,,,,,,551.3632490489981,None,552.9642887549999,None,554.3464008859883,None,dwell,554.3464008859883,None,return,2.116646272013895,554.4298068929929,None,,,,,,,,,,,,,6,001,2023_Feb_06_1517,SpeechDraft1Carolyn_lessNoise,2021.2.3,60.02268844853045,
rod.wav,rod.mpg,rod,5,A,Pink_Noise_5_1.wav,Pink_Noise_5_2.wav,,,,,,0,98,98,39,,,,,,,,,,,,,,,556.5631058150029,None,558.0631871949881,None,559.4484499820101,None,ride,559.4484499820101,None,return,3.7445003800094128,559.529945309012,None,,,,,,,,,,,,,6,001,2023_Feb_06_1517,SpeechDraft1Carolyn_lessNoise,2021.2.3,60.02268844853045,
priest.wav,priest.mpg,priest,2,AV,Pink_Noise_2_1.wav,Pink_Noise_2_2.wav,,,,,,0,99,99,80,,,,,,,,,,,,,,,563.2964693930116,None,564.7963848740037,None,566.1807342219981,None,priest,566.1807342219981,None,return,2.2107280179916415,566.2637156519922,None,,,,,,,,,,,,,6,001,2023_Feb_06_1517,SpeechDraft1Carolyn_lessNoise,2021.2.3,60.02268844853045,
damp.wav,damp.mpg,damp,4,AV,Pink_Noise_4_1.wav,Pink_Noise_4_2.wav,,,,,,0,100,100,99,,,,,,,,,,,,,,,568.4969710079895,None,570.1297748119978,None,571.5131860869878,None,damp,571.5131860869878,None,return,1.565967520000413,571.5965658409987,None,,,,,,,,,,,,,6,001,2023_Feb_06_1517,SpeechDraft1Carolyn_lessNoise,2021.2.3,60.02268844853045,
chart.wav,chart.mpg,chart,6,A,Pink_Noise_6_1.wav,Pink_Noise_6_2.wav,,,,,,0,101,101,58,,,,,,,,,,,,,,,573.1798220459896,None,574.6964795649983,None,576.0797702209966,None,trust,576.0797702209966,None,return,2.1829738939995877,576.1635219409945,None,,,,,,,,,,,,,6,001,2023_Feb_06_1517,SpeechDraft1Carolyn_lessNoise,2021.2.3,60.02268844853045,
flip.wav,flip.mpg,flip,3,A,Pink_Noise_3_1.wav,Pink_Noise_3_2.wav,,,,,,0,102,102,14,,,,,,,,,,,,,,,578.3643668210134,None,579.9632842029969,None,581.346555155993,None,flip,581.346555155993,None,return,1.2205744170059916,581.4298601280025,None,,,,,,,,,,,,,6,001,2023_Feb_06_1517,SpeechDraft1Carolyn_lessNoise,2021.2.3,60.02268844853045,
bridge.wav,bridge.mpg,bridge,5,A,Pink_Noise_5_1.wav,Pink_Noise_5_2.wav,,,,,,0,103,103,5,,,,,,,,,,,,,,,582.6800032230094,None,584.1797110690095,None,585.56315686999,None,bridge,585.56315686999,None,return,2.387965300993528,585.6464674060117,None,,,,,,,,,,,,,6,001,2023_Feb_06_1517,SpeechDraft1Carolyn_lessNoise,2021.2.3,60.02268844853045,
crude.wav,crude.mpg,crude,4,A,Pink_Noise_4_1.wav,Pink_Noise_4_2.wav,,,,,,0,104,104,17,,,,,,,,,,,,,,,588.0632567770081,None,589.6466284269991,None,591.0299536419916,None,crood,591.0299536419916,None,return,2.1211835610156413,591.1132611840148,None,,,,,,,,,,,,,6,001,2023_Feb_06_1517,SpeechDraft1Carolyn_lessNoise,2021.2.3,60.02268844853045,
date.wav,date.mpg,date,4,A,Pink_Noise_4_1.wav,Pink_Noise_4_2.wav,,,,,,0,105,105,20,,,,,,,,,,,,,,,593.2631796390051,None,594.7797907629865,None,596.1466253790131,None,date,596.1466253790131,None,return,1.52447350602597,596.2299742460018,None,,,,,,,,,,,,,6,001,2023_Feb_06_1517,SpeechDraft1Carolyn_lessNoise,2021.2.3,60.02268844853045,
cloak.wav,cloak.mpg,cloak,1,A,Pink_Noise_1_1.wav,Pink_Noise_1_2.wav,,,,,,0,106,106,38,,,,,,,,,,,,,,,597.7799641999882,None,599.2965726600087,None,600.6799049790134,None,cloak,600.6799049790134,None,return,6.527280412003165,600.7631771609886,None,,,,,,,,,,,,,6,001,2023_Feb_06_1517,SpeechDraft1Carolyn_lessNoise,2021.2.3,60.02268844853045,
deem.wav,deem.mpg,deem,1,A,Pink_Noise_1_1.wav,Pink_Noise_1_2.wav,,,,,,0,107,107,15,,,,,,,,,,,,,,,607.3138517389889,None,608.8464788440033,None,610.2132257570047,None,"deem
",610.2132257570047,None,return,1.5699032449920196,610.2965299669886,None,,,,,,,,,,,,,6,001,2023_Feb_06_1517,SpeechDraft1Carolyn_lessNoise,2021.2.3,60.02268844853045,
chunk.wav,chunk.mpg,chunk,6,AV,Pink_Noise_6_1.wav,Pink_Noise_6_2.wav,,,,,,0,108,108,107,,,,,,,,,,,,,,,611.8965582440142,None,613.4131860210036,None,614.7965135920094,None,chuck,614.7965135920094,None,return,3.378580811986467,614.8798936620005,None,,,,,,,,,,,,,6,001,2023_Feb_06_1517,SpeechDraft1Carolyn_lessNoise,2021.2.3,60.02268844853045,
thorn.wav,thorn.mpg,thorn,1,AV,Pink_Noise_1_1.wav,Pink_Noise_1_2.wav,,,,,,0,109,109,61,,,,,,,,,,,,,,,618.2805235119886,None,619.7967879739881,None,621.1798747899884,None,thorn,621.1798747899884,None,return,2.01921688800212,621.2632136910106,None,,,,,,,,,,,,,6,001,2023_Feb_06_1517,SpeechDraft1Carolyn_lessNoise,2021.2.3,60.02268844853045,
blast.wav,blast.mpg,blast,6,AV,Pink_Noise_6_1.wav,Pink_Noise_6_2.wav,,,,,,0,110,110,92,,,,,,,,,,,,,,,623.3133272370033,None,624.8298264869954,None,626.2131571159989,None,blast,626.2131571159989,None,return,1.8978004129894543,626.2966564479866,None,,,,,,,,,,,,,6,001,2023_Feb_06_1517,SpeechDraft1Carolyn_lessNoise,2021.2.3,60.02268844853045,
beam.wav,beam.mpg,beam,3,AV,Pink_Noise_3_1.wav,Pink_Noise_3_2.wav,,,,,,0,111,111,75,,,,,,,,,,,,,,,628.2132219279883,None,629.7134401109943,None,631.0965653599997,None,beam,631.0965653599997,None,return,4.110457875998691,631.1799740300048,None,,,,,,,,,,,,,6,001,2023_Feb_06_1517,SpeechDraft1Carolyn_lessNoise,2021.2.3,60.02268844853045,
boil.wav,boil.mpg,boil,3,AV,Pink_Noise_3_1.wav,Pink_Noise_3_2.wav,,,,,,0,112,112,101,,,,,,,,,,,,,,,635.313298515015,None,636.8297669749882,None,638.2138832120108,None,boil,638.2138832120108,None,return,1.1613486499991268,638.2970246830082,None,,,,,,,,,,,,,6,001,2023_Feb_06_1517,SpeechDraft1Carolyn_lessNoise,2021.2.3,60.02268844853045,
draft.wav,draft.mpg,draft,5,AV,Pink_Noise_5_1.wav,Pink_Noise_5_2.wav,,,,,,0,113,113,89,,,,,,,,,,,,,,,639.4798777659889,None,640.9962409359869,None,642.3798808249994,None,dreft,642.3798808249994,None,return,2.0990902229968924,642.4634358279873,None,,,,,,,,,,,,,6,001,2023_Feb_06_1517,SpeechDraft1Carolyn_lessNoise,2021.2.3,60.02268844853045,
cake.wav,cake.mpg,cake,2,A,Pink_Noise_2_1.wav,Pink_Noise_2_2.wav,,,,,,0,114,114,55,,,,,,,,,,,,,,,644.5799339899968,None,646.1967710969911,None,647.5800302840071,None,cake,647.5800302840071,None,return,2.8990413430146873,647.663464326004,None,,,,,,,,,,,,,6,001,2023_Feb_06_1517,SpeechDraft1Carolyn_lessNoise,2021.2.3,60.02268844853045,
stuck.wav,stuck.mpg,stuck,5,A,Pink_Noise_5_1.wav,Pink_Noise_5_2.wav,,,,,,0,115,115,44,,,,,,,,,,,,,,,650.5810267589986,None,652.1314478710119,None,653.5131306010007,None,stuck,653.5131306010007,None,return,1.6617863120045513,653.5966532239981,None,,,,,,,,,,,,,6,001,2023_Feb_06_1517,SpeechDraft1Carolyn_lessNoise,2021.2.3,60.02268844853045,
flight.wav,flight.mpg,flight,6,A,Pink_Noise_6_1.wav,Pink_Noise_6_2.wav,,,,,,0,116,116,32,,,,,,,,,,,,,,,655.2811320869951,None,656.796604194009,None,658.1799300030107,None,"light
",658.1799300030107,None,return,1.8192181609920226,658.2632305000152,None,,,,,,,,,,,,,6,001,2023_Feb_06_1517,SpeechDraft1Carolyn_lessNoise,2021.2.3,60.02268844853045,
cling.wav,cling.mpg,cling,5,A,Pink_Noise_5_1.wav,Pink_Noise_5_2.wav,,,,,,0,117,117,6,,,,,,,,,,,,,,,660.1134376059927,None,661.6132125570148,None,662.9970878800086,None,clean,662.9970878800086,None,return,3.0263626480009407,663.0800807769992,None,,,,,,,,,,,,,6,001,2023_Feb_06_1517,SpeechDraft1Carolyn_lessNoise,2021.2.3,60.02268844853045,
broke.wav,broke.mpg,broke,5,A,Pink_Noise_5_1.wav,Pink_Noise_5_2.wav,,,,,,0,118,118,23,,,,,,,,,,,,,,,666.1299351289927,None,667.6302211779985,None,669.0141300449905,None,growth,669.0141300449905,None,return,1.9773957800061908,669.0970428900036,None,,,,,,,,,,,,,6,001,2023_Feb_06_1517,SpeechDraft1Carolyn_lessNoise,2021.2.3,60.02268844853045,
dim.wav,dim.mpg,dim,6,AV,Pink_Noise_6_1.wav,Pink_Noise_6_2.wav,,,,,,0,119,119,63,,,,,,,,,,,,,,,671.0966023160145,None,672.6131338069972,None,673.9965335380111,None,lip,673.9965335380111,None,return,1.6904920310189482,674.0799838129897,None,,,,,,,,,,,,,6,001,2023_Feb_06_1517,SpeechDraft1Carolyn_lessNoise,2021.2.3,60.02268844853045,
,,,,,,,,,,,,,,,,,,,,,,,,,,,,,,,,,,,,,,,,,,,,,,,,,675.796761575999,None,c,18.885899133980274,676.7805693820119,None,6,001,2023_Feb_06_1517,SpeechDraft1Carolyn_lessNoise,2021.2.3,60.02268844853045,
