{"meta_data":{"additional_headers":{},"game_name":"Recollect","version":"2.53.01","user_name":"70","organization":"braingamecenter","study":"mpl2_2022_11","session_number":0,"device_id":"74342D95-EE82-45E3-8ADF-48FB3203C5DD"},"data":[{"trial":0,"action":1,"button_pressed":2,"time_out":false,"dwell_time":48.822998046875,"response_time":1681416177365.47},{"trial":0,"action":1,"button_pressed":9,"time_out":false,"dwell_time":47.9169921875,"response_time":1681416177831.79},{"trial":0,"action":9,"button_pressed":-1,"time_out":false,"dwell_time":75.27587890625,"response_time":1681416178374.82},{"trial":1,"action":1,"button_pressed":4,"time_out":false,"dwell_time":64.48388671875,"response_time":1681416187977.31},{"trial":1,"action":1,"button_pressed":7,"time_out":false,"dwell_time":64.473876953125,"response_time":1681416188177.4},{"trial":1,"action":1,"button_pressed":10,"time_out":false,"dwell_time":30.551025390625,"response_time":1681416188327.62},{"trial":1,"action":9,"button_pressed":-1,"time_out":false,"dwell_time":48.85595703125,"response_time":1681416188761.96},{"trial":2,"action":1,"button_pressed":4,"time_out":false,"dwell_time":65.205078125,"response_time":1681416200807.39},{"trial":2,"action":1,"button_pressed":2,"time_out":false,"dwell_time":97.654052734375,"response_time":1681416201072.91},{"trial":2,"action":1,"button_pressed":7,"time_out":false,"dwell_time":97.323974609375,"response_time":1681416201556.82},{"trial":2,"action":1,"button_pressed":3,"time_out":false,"dwell_time":47.343994140625,"response_time":1681416201906.4},{"trial":2,"action":9,"button_pressed":-1,"time_out":false,"dwell_time":82.177001953125,"response_time":1681416202373.71},{"trial":3,"action":1,"button_pressed":7,"time_out":false,"dwell_time":30.7451171875,"response_time":1681416216551.78},{"trial":3,"action":1,"button_pressed":4,"time_out":false,"dwell_time":64.99609375,"response_time":1681416216851.75},{"trial":3,"action":1,"button_pressed":11,"time_out":false,"dwell_time":64.919921875,"response_time":1681416217884.7},{"trial":3,"action":1,"button_pressed":3,"time_out":false,"dwell_time":63.970947265625,"response_time":1681416218251.19},{"trial":3,"action":1,"button_pressed":10,"time_out":false,"dwell_time":64.7998046875,"response_time":1681416218684.48},{"trial":3,"action":9,"button_pressed":-1,"time_out":false,"dwell_time":97.955078125,"response_time":1681416219518.05},{"trial":4,"action":1,"button_pressed":6,"time_out":false,"dwell_time":97.73388671875,"response_time":1681416236278.21},{"trial":4,"action":1,"button_pressed":5,"time_out":false,"dwell_time":81.68603515625,"response_time":1681416236645.25},{"trial":4,"action":1,"button_pressed":0,"time_out":false,"dwell_time":31.4189453125,"response_time":1681416237145.5},{"trial":4,"action":1,"button_pressed":11,"time_out":false,"dwell_time":81.453125,"response_time":1681416237611.55},{"trial":4,"action":1,"button_pressed":8,"time_out":false,"dwell_time":80.7958984375,"response_time":1681416238027.44},{"trial":4,"action":1,"button_pressed":4,"time_out":false,"dwell_time":47.8369140625,"response_time":1681416238428.44},{"trial":4,"action":9,"button_pressed":-1,"time_out":false,"dwell_time":16.85009765625,"response_time":1681416240593.57},{"trial":5,"action":1,"button_pressed":7,"time_out":false,"dwell_time":114.3291015625,"response_time":1681416259904.39},{"trial":5,"action":1,"button_pressed":4,"time_out":false,"dwell_time":63.6279296875,"response_time":1681416260270.15},{"trial":5,"action":1,"button_pressed":9,"time_out":false,"dwell_time":79.800048828125,"response_time":1681416260619.75},{"trial":5,"action":1,"button_pressed":1,"time_out":false,"dwell_time":64.9130859375,"response_time":1681416261020.38},{"trial":5,"action":1,"button_pressed":11,"time_out":false,"dwell_time":64.080810546875,"response_time":1681416261470.27},{"trial":5,"action":1,"button_pressed":6,"time_out":false,"dwell_time":46.751953125,"response_time":1681416261720.13},{"trial":5,"action":1,"button_pressed":8,"time_out":false,"dwell_time":63.9609375,"response_time":1681416262220.07},{"trial":5,"action":9,"button_pressed":-1,"time_out":false,"dwell_time":82.85107421875,"response_time":1681416262787.8},{"trial":6,"action":1,"button_pressed":3,"time_out":false,"dwell_time":64.43994140625,"response_time":1681416282246.99},{"trial":6,"action":1,"button_pressed":0,"time_out":false,"dwell_time":64.388916015625,"response_time":1681416282496.84},{"trial":6,"action":1,"button_pressed":4,"time_out":false,"dwell_time":81.708984375,"response_time":1681416282746.73},{"trial":6,"action":1,"button_pressed":10,"time_out":false,"dwell_time":81.201904296875,"response_time":1681416283129.9},{"trial":6,"action":1,"button_pressed":5,"time_out":false,"dwell_time":64.31103515625,"response_time":1681416283479.78},{"trial":6,"action":1,"button_pressed":1,"time_out":false,"dwell_time":81.236083984375,"response_time":1681416283829.1},{"trial":6,"action":1,"button_pressed":2,"time_out":false,"dwell_time":65.06005859375,"response_time":1681416284079.61},{"trial":6,"action":9,"button_pressed":-1,"time_out":false,"dwell_time":32.263916015625,"response_time":1681416285130.15},{"trial":7,"action":1,"button_pressed":10,"time_out":false,"dwell_time":64.742919921875,"response_time":1681416299957.46},{"trial":7,"action":1,"button_pressed":5,"time_out":false,"dwell_time":64.35009765625,"response_time":1681416300257.07},{"trial":7,"action":1,"button_pressed":3,"time_out":false,"dwell_time":63.448974609375,"response_time":1681416300640.22},{"trial":7,"action":1,"button_pressed":6,"time_out":false,"dwell_time":64.156005859375,"response_time":1681416300841.05},{"trial":7,"action":1,"button_pressed":2,"time_out":false,"dwell_time":48.372802734375,"response_time":1681416301107.3},{"trial":7,"action":9,"button_pressed":-1,"time_out":false,"dwell_time":65.47314453125,"response_time":1681416301541},{"trial":8,"action":1,"button_pressed":8,"time_out":false,"dwell_time":47.323974609375,"response_time":1681416318451.6},{"trial":8,"action":1,"button_pressed":0,"time_out":false,"dwell_time":81.529052734375,"response_time":1681416318835.04},{"trial":8,"action":1,"button_pressed":1,"time_out":false,"dwell_time":63.64404296875,"response_time":1681416319167.66},{"trial":8,"action":1,"button_pressed":9,"time_out":false,"dwell_time":63.510986328125,"response_time":1681416319767.52},{"trial":8,"action":1,"button_pressed":3,"time_out":false,"dwell_time":32.01611328125,"response_time":1681416319968.31},{"trial":8,"action":1,"button_pressed":5,"time_out":false,"dwell_time":48.130126953125,"response_time":1681416320367.56},{"trial":8,"action":9,"button_pressed":-1,"time_out":false,"dwell_time":64.81591796875,"response_time":1681416320750.59},{"trial":9,"action":1,"button_pressed":6,"time_out":false,"dwell_time":63.68896484375,"response_time":1681416340610.74},{"trial":9,"action":1,"button_pressed":6,"time_out":false,"dwell_time":47.93408203125,"response_time":1681416341377.3},{"trial":9,"action":1,"button_pressed":6,"time_out":false,"dwell_time":47.7041015625,"response_time":1681416342060.45},{"trial":9,"action":1,"button_pressed":6,"time_out":false,"dwell_time":80.652099609375,"response_time":1681416342876.32},{"trial":9,"action":1,"button_pressed":6,"time_out":false,"dwell_time":81.107177734375,"response_time":1681416343043.17},{"trial":9,"action":1,"button_pressed":6,"time_out":false,"dwell_time":63.85205078125,"response_time":1681416343443.56},{"trial":9,"action":1,"button_pressed":9,"time_out":false,"dwell_time":30.89599609375,"response_time":1681416343760.38},{"trial":9,"action":1,"button_pressed":9,"time_out":false,"dwell_time":47.923095703125,"response_time":1681416344493.44},{"trial":9,"action":1,"button_pressed":9,"time_out":false,"dwell_time":14.402099609375,"response_time":1681416344625.81},{"trial":9,"action":1,"button_pressed":9,"time_out":false,"dwell_time":80.22900390625,"response_time":1681416345142.23},{"trial":9,"action":0,"button_pressed":-1,"time_out":false,"dwell_time":64.246826171875,"response_time":1681416346225.92},{"trial":9,"action":1,"button_pressed":9,"time_out":false,"dwell_time":47.7919921875,"response_time":1681416347325.82},{"trial":9,"action":1,"button_pressed":2,"time_out":false,"dwell_time":48.1298828125,"response_time":1681416347758.41},{"trial":9,"action":1,"button_pressed":6,"time_out":false,"dwell_time":47.822021484375,"response_time":1681416348242.13},{"trial":9,"action":1,"button_pressed":8,"time_out":false,"dwell_time":47.863037109375,"response_time":1681416348707.99},{"trial":9,"action":1,"button_pressed":1,"time_out":false,"dwell_time":48.173828125,"response_time":1681416349291.29},{"trial":9,"action":1,"button_pressed":9,"time_out":false,"dwell_time":47.77197265625,"response_time":1681416350174.91},{"trial":9,"action":1,"button_pressed":0,"time_out":false,"dwell_time":47.375,"response_time":1681416351473.88},{"trial":9,"action":9,"button_pressed":-1,"time_out":false,"dwell_time":65.373046875,"response_time":1681416353290.58},{"trial":10,"action":1,"button_pressed":2,"time_out":false,"dwell_time":48.125,"response_time":1681416372767.51},{"trial":10,"action":1,"button_pressed":6,"time_out":false,"dwell_time":47.330078125,"response_time":1681416373216.79},{"trial":10,"action":1,"button_pressed":9,"time_out":false,"dwell_time":63.781005859375,"response_time":1681416373466.46},{"trial":10,"action":1,"button_pressed":0,"time_out":false,"dwell_time":64.337158203125,"response_time":1681416373700.1},{"trial":10,"action":1,"button_pressed":3,"time_out":false,"dwell_time":48.887939453125,"response_time":1681416373917.19},{"trial":10,"action":1,"button_pressed":10,"time_out":false,"dwell_time":64.7880859375,"response_time":1681416374183.18},{"trial":10,"action":1,"button_pressed":7,"time_out":false,"dwell_time":30.22314453125,"response_time":1681416374499.51},{"trial":10,"action":9,"button_pressed":-1,"time_out":false,"dwell_time":48.274169921875,"response_time":1681416375466.95},{"trial":11,"action":1,"button_pressed":5,"time_out":false,"dwell_time":81.6240234375,"response_time":1681416397525.62},{"trial":11,"action":1,"button_pressed":6,"time_out":false,"dwell_time":81.44580078125,"response_time":1681416397758.92},{"trial":11,"action":1,"button_pressed":11,"time_out":false,"dwell_time":80.822021484375,"response_time":1681416398092.37},{"trial":11,"action":1,"button_pressed":1,"time_out":false,"dwell_time":97.01904296875,"response_time":1681416398491.46},{"trial":11,"action":1,"button_pressed":4,"time_out":false,"dwell_time":64.888916015625,"response_time":1681416398891.84},{"trial":11,"action":1,"button_pressed":10,"time_out":false,"dwell_time":81.616943359375,"response_time":1681416399125.25},{"trial":11,"action":1,"button_pressed":7,"time_out":false,"dwell_time":97.9521484375,"response_time":1681416399358.38},{"trial":11,"action":1,"button_pressed":0,"time_out":false,"dwell_time":47.968994140625,"response_time":1681416399542.01},{"trial":11,"action":9,"button_pressed":-1,"time_out":false,"dwell_time":81.379150390625,"response_time":1681416400441.17},{"trial":12,"action":1,"button_pressed":8,"time_out":false,"dwell_time":80.888916015625,"response_time":1681416424799.47},{"trial":12,"action":1,"button_pressed":1,"time_out":false,"dwell_time":80.8779296875,"response_time":1681416425033.25},{"trial":12,"action":1,"button_pressed":10,"time_out":false,"dwell_time":64.24609375,"response_time":1681416425265.92},{"trial":12,"action":1,"button_pressed":6,"time_out":false,"dwell_time":64.203857421875,"response_time":1681416425583.35},{"trial":12,"action":1,"button_pressed":0,"time_out":false,"dwell_time":48.43798828125,"response_time":1681416425933.26},{"trial":12,"action":1,"button_pressed":9,"time_out":false,"dwell_time":97.98779296875,"response_time":1681416426466.16},{"trial":12,"action":1,"button_pressed":2,"time_out":false,"dwell_time":64.877197265625,"response_time":1681416426865.98},{"trial":12,"action":1,"button_pressed":7,"time_out":false,"dwell_time":80.4609375,"response_time":1681416427165.18},{"trial":12,"action":1,"button_pressed":7,"time_out":false,"dwell_time":164.18896484375,"response_time":1681416430464.25},{"trial":12,"action":1,"button_pressed":7,"time_out":false,"dwell_time":130.7880859375,"response_time":1681416432080.9},{"trial":12,"action":1,"button_pressed":7,"time_out":false,"dwell_time":113.110107421875,"response_time":1681416432663.56},{"trial":12,"action":1,"button_pressed":7,"time_out":false,"dwell_time":47.420166015625,"response_time":1681416432847.36},{"trial":12,"action":1,"button_pressed":7,"time_out":false,"dwell_time":131.119873046875,"response_time":1681416433146.95},{"trial":12,"action":1,"button_pressed":7,"time_out":false,"dwell_time":96.864990234375,"response_time":1681416433396.56},{"trial":12,"action":1,"button_pressed":7,"time_out":false,"dwell_time":80.090087890625,"response_time":1681416433613.1},{"trial":12,"action":1,"button_pressed":7,"time_out":false,"dwell_time":63.594970703125,"response_time":1681416433796.44},{"trial":12,"action":1,"button_pressed":7,"time_out":false,"dwell_time":80.656005859375,"response_time":1681416433996.34},{"trial":12,"action":1,"button_pressed":7,"time_out":false,"dwell_time":63.447021484375,"response_time":1681416434179.66},{"trial":12,"action":1,"button_pressed":7,"time_out":false,"dwell_time":97.4521484375,"response_time":1681416434379.54},{"trial":12,"action":1,"button_pressed":7,"time_out":false,"dwell_time":64.197998046875,"response_time":1681416434546.11},{"trial":12,"action":1,"button_pressed":7,"time_out":false,"dwell_time":80.10205078125,"response_time":1681416434745.95},{"trial":12,"action":1,"button_pressed":7,"time_out":false,"dwell_time":81.60498046875,"response_time":1681416434929.94},{"trial":12,"action":1,"button_pressed":7,"time_out":false,"dwell_time":63.755859375,"response_time":1681416435096.22},{"trial":12,"action":1,"button_pressed":7,"time_out":false,"dwell_time":80.88916015625,"response_time":1681416435296.01},{"trial":12,"action":1,"button_pressed":7,"time_out":false,"dwell_time":80.867919921875,"response_time":1681416435513.23},{"trial":12,"action":1,"button_pressed":7,"time_out":false,"dwell_time":64.35400390625,"response_time":1681416435679.13},{"trial":12,"action":0,"button_pressed":-1,"time_out":false,"dwell_time":48.35400390625,"response_time":1681416436446.95},{"trial":12,"action":1,"button_pressed":8,"time_out":false,"dwell_time":97.22900390625,"response_time":1681416437162.54},{"trial":12,"action":1,"button_pressed":1,"time_out":false,"dwell_time":98.129150390625,"response_time":1681416437679.11},{"trial":12,"action":1,"button_pressed":0,"time_out":false,"dwell_time":30.641845703125,"response_time":1681416438262.07},{"trial":12,"action":1,"button_pressed":6,"time_out":false,"dwell_time":79.989013671875,"response_time":1681416438944.77},{"trial":12,"action":1,"button_pressed":10,"time_out":false,"dwell_time":81.44091796875,"response_time":1681416439661.81},{"trial":12,"action":1,"button_pressed":3,"time_out":false,"dwell_time":63.35302734375,"response_time":1681416441193.84},{"trial":12,"action":1,"button_pressed":2,"time_out":false,"dwell_time":47.30810546875,"response_time":1681416441627.54},{"trial":12,"action":1,"button_pressed":9,"time_out":false,"dwell_time":47.2099609375,"response_time":1681416443443.57},{"trial":12,"action":1,"button_pressed":7,"time_out":false,"dwell_time":96.926025390625,"response_time":1681416443643.22},{"trial":12,"action":9,"button_pressed":-1,"time_out":false,"dwell_time":17.178955078125,"response_time":1681416444793.16},{"trial":13,"action":1,"button_pressed":9,"time_out":false,"dwell_time":63.512939453125,"response_time":1681416469717.91},{"trial":13,"action":0,"button_pressed":-1,"time_out":false,"dwell_time":48.297119140625,"response_time":1681416471501.36},{"trial":13,"action":1,"button_pressed":11,"time_out":false,"dwell_time":64.20703125,"response_time":1681416472117.93},{"trial":13,"action":1,"button_pressed":9,"time_out":false,"dwell_time":81.4169921875,"response_time":1681416472517.66},{"trial":13,"action":1,"button_pressed":3,"time_out":false,"dwell_time":81.515869140625,"response_time":1681416472767.58},{"trial":13,"action":1,"button_pressed":0,"time_out":false,"dwell_time":47.949951171875,"response_time":1681416473017.83},{"trial":13,"action":1,"button_pressed":2,"time_out":false,"dwell_time":47.386962890625,"response_time":1681416473266.46},{"trial":13,"action":1,"button_pressed":1,"time_out":false,"dwell_time":63.599853515625,"response_time":1681416473999.91},{"trial":13,"action":0,"button_pressed":-1,"time_out":false,"dwell_time":46.5400390625,"response_time":1681416475099.14},{"trial":13,"action":1,"button_pressed":11,"time_out":false,"dwell_time":63.97607421875,"response_time":1681416475699.47},{"trial":13,"action":1,"button_pressed":9,"time_out":false,"dwell_time":81.262939453125,"response_time":1681416476033.01},{"trial":13,"action":1,"button_pressed":3,"time_out":false,"dwell_time":81.622802734375,"response_time":1681416476316.4},{"trial":13,"action":1,"button_pressed":0,"time_out":false,"dwell_time":47.196044921875,"response_time":1681416476599.39},{"trial":13,"action":1,"button_pressed":2,"time_out":false,"dwell_time":47.916015625,"response_time":1681416476899.79},{"trial":13,"action":1,"button_pressed":7,"time_out":false,"dwell_time":64.760986328125,"response_time":1681416477449.25},{"trial":13,"action":1,"button_pressed":1,"time_out":false,"dwell_time":48.079833984375,"response_time":1681416477816.42},{"trial":13,"action":1,"button_pressed":8,"time_out":false,"dwell_time":47.099853515625,"response_time":1681416478698.63},{"trial":13,"action":1,"button_pressed":6,"time_out":false,"dwell_time":48.738037109375,"response_time":1681416480265.72},{"trial":13,"action":9,"button_pressed":-1,"time_out":false,"dwell_time":32.793212890625,"response_time":1681416482798.87}]}