{"meta_data":{"additional_headers":{},"game_name":"Recollect","version":"2.53.01","user_name":"70","organization":"braingamecenter","study":"mpl2_2022_11","session_number":0,"device_id":"74342D95-EE82-45E3-8ADF-48FB3203C5DD"},"data":[{"stage":"Practice","trial":0,"sequence":"6F","letter_input":"F","number_input":"6","is_correct":true,"presentation_start_time":1681416509770.2,"presentation_end_time":1681416512771.22,"response_time":1681416518685.67},{"stage":"Practice","trial":1,"sequence":"G4","letter_input":"G","number_input":"4","is_correct":true,"presentation_start_time":1681416520216.72,"presentation_end_time":1681416523217.87,"response_time":1681416527547.76},{"stage":"Practice","trial":2,"sequence":"3W5","letter_input":"W","number_input":"35","is_correct":true,"presentation_start_time":1681416529080.5,"presentation_end_time":1681416533581.07,"response_time":1681416537911.12},{"stage":"Practice","trial":3,"sequence":"T7L","letter_input":"LT","number_input":"7","is_correct":true,"presentation_start_time":1681416539443.74,"presentation_end_time":1681416543944.32,"response_time":1681416556504.94},{"stage":"Practice","trial":4,"sequence":"9J1","letter_input":"J","number_input":"19","is_correct":true,"presentation_start_time":1681416558037.59,"presentation_end_time":1681416562538.27,"response_time":1681416569767.2},{"stage":"Calibration","trial":0,"sequence":"Y2","letter_input":"Y","number_input":"2","is_correct":true,"presentation_start_time":1681416578714.15,"presentation_end_time":1681416581715.29,"response_time":1681416585262.08},{"stage":"Calibration","trial":1,"sequence":"1J","letter_input":"J","number_input":"1","is_correct":true,"presentation_start_time":1681416586794.77,"presentation_end_time":1681416589795.88,"response_time":1681416593259.51},{"stage":"Calibration","trial":2,"sequence":"V7E","letter_input":"EV","number_input":"7","is_correct":true,"presentation_start_time":1681416594792.11,"presentation_end_time":1681416599292.74,"response_time":1681416604389.09},{"stage":"Calibration","trial":3,"sequence":"9A2","letter_input":"A","number_input":"29","is_correct":true,"presentation_start_time":1681416605921.8,"presentation_end_time":1681416610422.48,"response_time":1681416614652.38},{"stage":"Calibration","trial":4,"sequence":"V3C1","letter_input":"CV","number_input":"13","is_correct":true,"presentation_start_time":1681416616185.17,"presentation_end_time":1681416622185.11,"response_time":1681416626981.67},{"stage":"Calibration","trial":5,"sequence":"9R6M","letter_input":"MR","number_input":"69","is_correct":true,"presentation_start_time":1681416628514.48,"presentation_end_time":1681416634514.35,"response_time":1681416646891.71},{"stage":"Calibration","trial":6,"sequence":"P8J3B","letter_input":"BJP","number_input":"38","is_correct":true,"presentation_start_time":1681416648424.52,"presentation_end_time":1681416655924,"response_time":1681416661953.45},{"stage":"Calibration","trial":7,"sequence":"7Z4G2","letter_input":"BJP","number_input":"247","is_correct":false,"presentation_start_time":1681416663486.15,"presentation_end_time":1681416670985.81,"response_time":1681416676931.84},{"stage":"Calibration","trial":8,"sequence":"W8J5A3","letter_input":"AWJ","number_input":"358","is_correct":false,"presentation_start_time":1681416678464.55,"presentation_end_time":1681416687463.64,"response_time":1681416701157.16},{"stage":"Calibration","trial":9,"sequence":"4Y2S6M","letter_input":"MS","number_input":"246","is_correct":false,"presentation_start_time":1681416702689.87,"presentation_end_time":1681416711688.98,"response_time":1681416720284.21}]}