{"meta_data":{"additional_headers":{},"game_name":"Recollect","version":"2.53.01","user_name":"71","organization":"braingamecenter","study":"mpl2_2022_11","session_number":0,"device_id":"74342D95-EE82-45E3-8ADF-48FB3203C5DD"},"data":[{"stage":"Practice","trial":0,"sequence":"6F","letter_input":"F","number_input":"6","is_correct":true,"presentation_start_time":1681426930802.42,"presentation_end_time":1681426933802.95,"response_time":1681426941367.34},{"stage":"Practice","trial":1,"sequence":"G4","letter_input":"G","number_input":"4","is_correct":true,"presentation_start_time":1681426942898.52,"presentation_end_time":1681426945899.56,"response_time":1681426953428.62},{"stage":"Practice","trial":2,"sequence":"3W5","letter_input":"W","number_input":"35","is_correct":true,"presentation_start_time":1681426954961.34,"presentation_end_time":1681426959461.91,"response_time":1681426964608.29},{"stage":"Practice","trial":3,"sequence":"T7L","letter_input":"LT","number_input":"7","is_correct":true,"presentation_start_time":1681426966141.09,"presentation_end_time":1681426970641.76,"response_time":1681426977337.59},{"stage":"Practice","trial":4,"sequence":"9J1","letter_input":"J","number_input":"19","is_correct":true,"presentation_start_time":1681426978870.37,"presentation_end_time":1681426983371.12,"response_time":1681426986984.54},{"stage":"Calibration","trial":0,"sequence":"M2","letter_input":"M","number_input":"2","is_correct":true,"presentation_start_time":1681426999480.42,"presentation_end_time":1681427002481.5,"response_time":1681427006828.14},{"stage":"Calibration","trial":1,"sequence":"1Q","letter_input":"Q","number_input":"1","is_correct":true,"presentation_start_time":1681427008360.85,"presentation_end_time":1681427011362.04,"response_time":1681427015925.25},{"stage":"Calibration","trial":2,"sequence":"W4J","letter_input":"JW","number_input":"4","is_correct":true,"presentation_start_time":1681427017457.94,"presentation_end_time":1681427021958.67,"response_time":1681427025971.99},{"stage":"Calibration","trial":3,"sequence":"6F2","letter_input":"F","number_input":"26","is_correct":true,"presentation_start_time":1681427027504.78,"presentation_end_time":1681427032005.42,"response_time":1681427036635.29},{"stage":"Calibration","trial":4,"sequence":"M8D5","letter_input":"DM","number_input":"58","is_correct":true,"presentation_start_time":1681427038168,"presentation_end_time":1681427044168.26,"response_time":1681427048998},{"stage":"Calibration","trial":5,"sequence":"9P4C","letter_input":"CP","number_input":"49","is_correct":true,"presentation_start_time":1681427050530.71,"presentation_end_time":1681427056530.79,"response_time":1681427060261.03},{"stage":"Calibration","trial":6,"sequence":"N6F3Q","letter_input":"FPQ","number_input":"36","is_correct":false,"presentation_start_time":1681427061793.76,"presentation_end_time":1681427069293.57,"response_time":1681427084036.75},{"stage":"Calibration","trial":7,"sequence":"1Z8R5","letter_input":"RZ","number_input":"158","is_correct":true,"presentation_start_time":1681427085569.52,"presentation_end_time":1681427093069.12,"response_time":1681427102647.54},{"stage":"Calibration","trial":8,"sequence":"J6C2V9","letter_input":"MJV","number_input":"269","is_correct":false,"presentation_start_time":1681427104180.2,"presentation_end_time":1681427113179.4,"response_time":1681427131388.26},{"stage":"Calibration","trial":9,"sequence":"8Y5T3B","letter_input":"MTV","number_input":"358","is_correct":false,"presentation_start_time":1681427132920.99,"presentation_end_time":1681427141920.22,"response_time":1681427152814.76}]}