{"meta_data":{"additional_headers":{},"game_name":"Recollect","version":"2.53.01","user_name":"72","organization":"braingamecenter","study":"mpl2_2022_11","session_number":0,"device_id":"74342D95-EE82-45E3-8ADF-48FB3203C5DD"},"data":[{"stage":"Practice","trial":0,"sequence":"6F","letter_input":"F","number_input":"6","is_correct":true,"presentation_start_time":1681500578710.14,"presentation_end_time":1681500581711.31,"response_time":1681500588910.07},{"stage":"Practice","trial":1,"sequence":"G4","letter_input":"G","number_input":"4","is_correct":true,"presentation_start_time":1681500590439.56,"presentation_end_time":1681500593440.79,"response_time":1681500598103.91},{"stage":"Practice","trial":2,"sequence":"3W5","letter_input":"W","number_input":"35","is_correct":true,"presentation_start_time":1681500599636.49,"presentation_end_time":1681500604137.14,"response_time":1681500609416.73},{"stage":"Practice","trial":3,"sequence":"T7L","letter_input":"LT","number_input":"7","is_correct":true,"presentation_start_time":1681500610949.45,"presentation_end_time":1681500615449.98,"response_time":1681500619996.55},{"stage":"Practice","trial":4,"sequence":"9J1","letter_input":"J","number_input":"19","is_correct":true,"presentation_start_time":1681500621529.32,"presentation_end_time":1681500626029.91,"response_time":1681500629776.71},{"stage":"Calibration","trial":0,"sequence":"6L","letter_input":"L","number_input":"6","is_correct":true,"presentation_start_time":1681500633675.24,"presentation_end_time":1681500636676.24,"response_time":1681500639939.93},{"stage":"Calibration","trial":1,"sequence":"P2","letter_input":"P","number_input":"2","is_correct":true,"presentation_start_time":1681500641472.7,"presentation_end_time":1681500644473.91,"response_time":1681500648137.2},{"stage":"Calibration","trial":2,"sequence":"4W1","letter_input":"W","number_input":"14","is_correct":true,"presentation_start_time":1681500649670.04,"presentation_end_time":1681500654170.59,"response_time":1681500658733.79},{"stage":"Calibration","trial":3,"sequence":"T6M","letter_input":"MT","number_input":"6","is_correct":true,"presentation_start_time":1681500660266.5,"presentation_end_time":1681500664766.96,"response_time":1681500674511.76},{"stage":"Calibration","trial":4,"sequence":"7F3D","letter_input":"DF","number_input":"37","is_correct":true,"presentation_start_time":1681500676044.52,"presentation_end_time":1681500682044.61,"response_time":1681500697520.89},{"stage":"Calibration","trial":5,"sequence":"T4J2","letter_input":"JT","number_input":"24","is_correct":true,"presentation_start_time":1681500699053.64,"presentation_end_time":1681500705053.68,"response_time":1681500712765.83},{"stage":"Calibration","trial":6,"sequence":"6G1A8","letter_input":"AG","number_input":"168","is_correct":true,"presentation_start_time":1681500714298.5,"presentation_end_time":1681500721798.4,"response_time":1681500729760.21},{"stage":"Calibration","trial":7,"sequence":"C5S2J","letter_input":"CJS","number_input":"25","is_correct":true,"presentation_start_time":1681500731292.94,"presentation_end_time":1681500738792.58,"response_time":1681500753918.94},{"stage":"Calibration","trial":8,"sequence":"1W9K7H","letter_input":"AHJW","number_input":"179","is_correct":false,"presentation_start_time":1681500755451.58,"presentation_end_time":1681500764450.69,"response_time":1681500777594.35},{"stage":"Calibration","trial":9,"sequence":"Z5Q2E8","letter_input":"EQZ","number_input":"25","is_correct":false,"presentation_start_time":1681500779127.03,"presentation_end_time":1681500788126.14,"response_time":1681500811266.61}]}