{"meta_data":{"additional_headers":{},"game_name":"Recollect","version":"2.53.01","user_name":"73","organization":"braingamecenter","study":"mpl2_2022_11","session_number":0,"device_id":"74342D95-EE82-45E3-8ADF-48FB3203C5DD"},"data":[{"stage":"Practice","trial":0,"sequence":"6F","letter_input":"F","number_input":"6","is_correct":true,"presentation_start_time":1681508125619.85,"presentation_end_time":1681508128621.09,"response_time":1681508134586.88},{"stage":"Practice","trial":1,"sequence":"G4","letter_input":"G","number_input":"4","is_correct":true,"presentation_start_time":1681508136116.27,"presentation_end_time":1681508139117.4,"response_time":1681508144030.56},{"stage":"Practice","trial":2,"sequence":"3W5","letter_input":"W","number_input":"35","is_correct":true,"presentation_start_time":1681508145563.21,"presentation_end_time":1681508150063.92,"response_time":1681508153860.63},{"stage":"Practice","trial":3,"sequence":"T7L","letter_input":"LT","number_input":"7","is_correct":true,"presentation_start_time":1681508155393.33,"presentation_end_time":1681508159894.01,"response_time":1681508163807.32},{"stage":"Practice","trial":4,"sequence":"9J1","letter_input":"J","number_input":"19","is_correct":true,"presentation_start_time":1681508165340.07,"presentation_end_time":1681508169840.65,"response_time":1681508173520.87},{"stage":"Calibration","trial":0,"sequence":"Y2","letter_input":"Y","number_input":"2","is_correct":true,"presentation_start_time":1681508182284.4,"presentation_end_time":1681508185285.58,"response_time":1681508189498.77},{"stage":"Calibration","trial":1,"sequence":"6G","letter_input":"G","number_input":"6","is_correct":true,"presentation_start_time":1681508191031.51,"presentation_end_time":1681508194032.82,"response_time":1681508197912.72},{"stage":"Calibration","trial":2,"sequence":"S3L","letter_input":"LS","number_input":"3","is_correct":true,"presentation_start_time":1681508199445.39,"presentation_end_time":1681508203946.07,"response_time":1681508208292.61},{"stage":"Calibration","trial":3,"sequence":"9W5","letter_input":"W","number_input":"59","is_correct":true,"presentation_start_time":1681508209825.3,"presentation_end_time":1681508214325.92,"response_time":1681508218106.06},{"stage":"Calibration","trial":4,"sequence":"Y8H2","letter_input":"HY","number_input":"28","is_correct":true,"presentation_start_time":1681508219638.75,"presentation_end_time":1681508225638.92,"response_time":1681508231151.71},{"stage":"Calibration","trial":5,"sequence":"9S4B","letter_input":"BS","number_input":"49","is_correct":true,"presentation_start_time":1681508232684.41,"presentation_end_time":1681508238684.54,"response_time":1681508242464.71},{"stage":"Calibration","trial":6,"sequence":"F7C5L","letter_input":"CLF","number_input":"57","is_correct":false,"presentation_start_time":1681508243997.35,"presentation_end_time":1681508251496.97,"response_time":1681508258076.16},{"stage":"Calibration","trial":7,"sequence":"4Q2A6","letter_input":"AQ","number_input":"246","is_correct":true,"presentation_start_time":1681508259608.9,"presentation_end_time":1681508267108.46,"response_time":1681508271321.78},{"stage":"Calibration","trial":8,"sequence":"P8N3Y1","letter_input":"NPY","number_input":"138","is_correct":true,"presentation_start_time":1681508272854.48,"presentation_end_time":1681508281853.67,"response_time":1681508292014.94},{"stage":"Calibration","trial":9,"sequence":"5T9R7L","letter_input":"LTR","number_input":"579","is_correct":false,"presentation_start_time":1681508293547.57,"presentation_end_time":1681508302546.73,"response_time":1681508310142.27},{"stage":"Calibration","trial":10,"sequence":"W8F3Q1N","letter_input":"FNWQ","number_input":"138","is_correct":false,"presentation_start_time":1681508311674.92,"presentation_end_time":1681508322173.59,"response_time":1681508334417.61},{"stage":"Calibration","trial":11,"sequence":"2M9B7R5","letter_input":"TRWL","number_input":"2579","is_correct":false,"presentation_start_time":1681508335950.28,"presentation_end_time":1681508346448.91,"response_time":1681508352578.23}]}