Audio_Only_Files,Video_Files,Original_Word_List,noiseLevelCode,conditionCodes,noiseLevelFile1,noiseLevelFile2,InstrTextVar,targetSpeakerName,targetSpeakerEccen,targetSpkrChannel,targetSpkrSound,targetVisualDegrees,visStimLoc,visStimLoc2,visStimW,visStimH,practiceTrials.thisRepN,practiceTrials.thisTrialN,practiceTrials.thisN,practiceTrials.thisIndex,trials.thisRepN,trials.thisTrialN,trials.thisN,trials.thisIndex,audLocalLoop.thisRepN,audLocalLoop.thisTrialN,audLocalLoop.thisN,audLocalLoop.thisIndex,visualLocalLoop.thisRepN,visualLocalLoop.thisTrialN,visualLocalLoop.thisN,visualLocalLoop.thisIndex,letsGoAlready.keys,letsGoAlready.rt,letsGoAlready.started,letsGoAlready.stopped,text_2.started,text_2.stopped,text_3.started,text_3.stopped,key_resp_2.keys,key_resp_2.rt,key_resp_2.started,key_resp_2.stopped,text_5.started,text_5.stopped,fixCross.started,fixCross.stopped,fixCross2.started,fixCross2.stopped,answerPrompt.started,answerPrompt.stopped,getAnswer.text,getAnswer.started,getAnswer.stopped,goToNext.keys,goToNext.rt,goToNext.started,goToNext.stopped,stretchBreakTxrt.started,stretchBreakTxrt.stopped,key_resp_3.keys,key_resp_3.rt,key_resp_3.started,key_resp_3.stopped,letsGoLocal.keys,letsGoLocal.rt,letsGoLocal.started,letsGoLocal.stopped,text_4.started,text_4.stopped,prepFixTxt.started,prepFixTxt.stopped,prepFixTxt_2.started,prepFixTxt_2.stopped,respPromptLocal.started,respPromptLocal.stopped,slider.response,slider.rt,slider.started,slider.stopped,letsGoLocal_2.keys,letsGoLocal_2.rt,letsGoLocal_2.started,letsGoLocal_2.stopped,text_7.started,text_7.stopped,prepFixTxt_3.started,prepFixTxt_3.stopped,grating.started,grating.stopped,participant,session,date,expName,psychopyVersion,frameRate,
,,,,,,,,,,,,,,,,,,,,,,,,,,,,,,,,,space,1.6094496031291783,1248.9329437250271,None,,,,,,,,,,,,,,,,,,,,,,,,,,,,,,,,,,,,,,,,,,,,,,,,,,,,,,,,73,001,2023_Apr_14_1532,SpeechDraft1Carolyn_lessNoise_PlusLocalization,2021.2.3,59.919610958800206,
,,,,,,,,,,,,,,,,,,,,,,,,,,,,,,,,,,,,,1248.9329437250271,None,1250.6668720091693,None,space,12.493002929724753,1250.8493802519515,None,,,,,,,,,,,,,,,,,,,,,,,,,,,,,,,,,,,,,,,,,,,,,,,,73,001,2023_Apr_14_1532,SpeechDraft1Carolyn_lessNoise_PlusLocalization,2021.2.3,59.919610958800206,
ash.wav,ash.mpg,ash,1,A,Pink_Noise_1_1.wav,Pink_Noise_1_2.wav,"This is an example of an

AUDIO trial",,,,,,,,,,0,0,0,0,,,,,,,,,,,,,,,,,,,,,,,,,1263.3992028548382,None,1264.382965871133,None,1267.5828187768348,None,1268.9664476150647,None,ash,1268.9664476150647,None,return,3.9809918887913227,1269.0493597458117,None,,,,,,,,,,,,,,,,,,,,,,,,,,,,,,,,,73,001,2023_Apr_14_1532,SpeechDraft1Carolyn_lessNoise_PlusLocalization,2021.2.3,59.919610958800206,
ash.wav,ash.mpg,ash,1,AV,Pink_Noise_1_1.wav,Pink_Noise_1_2.wav,"This is an example of an

AUDIO + VIDEO  trial",,,,,,,,,,0,1,1,1,,,,,,,,,,,,,,,,,,,,,,,,,1273.065765703097,None,1274.066054936964,None,1275.5510626398027,None,1276.932796542067,None,ash,1276.932796542067,None,return,4.390414711087942,1277.0160669940524,None,,,,,,,,,,,,,,,,,,,,,,,,,,,,,,,,,73,001,2023_Apr_14_1532,SpeechDraft1Carolyn_lessNoise_PlusLocalization,2021.2.3,59.919610958800206,
,,,,,,,,,,,,,,,,,,,,,,,,,,,,,,,,,,,,,,,,,,,,,,,,,,,,,,,,,,,,1281.4490508190356,None,space,28.805560530163348,1281.6327906581573,None,,,,,,,,,,,,,,,,,,,,,,,,,,,73,001,2023_Apr_14_1532,SpeechDraft1Carolyn_lessNoise_PlusLocalization,2021.2.3,59.919610958800206,
news.wav,news.mpg,news,1,A,Pink_Noise_1_1.wav,Pink_Noise_1_2.wav,,,,,,,,,,,,,,,0,0,0,24,,,,,,,,,,,,,,,,,,,,,,,1310.4990813210607,None,1311.982534863986,None,1313.3661418189295,None,news,1313.3661418189295,None,return,2.3489681486971676,1313.449458421208,None,,,,,,,,,,,,,,,,,,,,,,,,,,,,,,,,,73,001,2023_Apr_14_1532,SpeechDraft1Carolyn_lessNoise_PlusLocalization,2021.2.3,59.919610958800206,
blob.wav,blob.mpg,blob,3,AV,Pink_Noise_3_1.wav,Pink_Noise_3_2.wav,,,,,,,,,,,,,,,0,1,1,76,,,,,,,,,,,,,,,,,,,,,,,1315.8162521398626,None,1317.2997888228856,None,1318.6826375820674,None,"blob
",1318.6826375820674,None,return,4.8002287466079,1318.7661346411332,None,,,,,,,,,,,,,,,,,,,,,,,,,,,,,,,,,73,001,2023_Apr_14_1532,SpeechDraft1Carolyn_lessNoise_PlusLocalization,2021.2.3,59.919610958800206,
bear.wav,bear.mpg,bear,1,AV,Pink_Noise_1_1.wav,Pink_Noise_1_2.wav,,,,,,,,,,,,,,,0,2,2,101,,,,,,,,,,,,,,,,,,,,,,,1323.5994973462075,None,1325.0991788371466,None,1326.482842661906,None,bear,1326.482842661906,None,return,5.312246561981738,1326.5661263978109,None,,,,,,,,,,,,,,,,,,,,,,,,,,,,,,,,,73,001,2023_Apr_14_1532,SpeechDraft1Carolyn_lessNoise_PlusLocalization,2021.2.3,59.919610958800206,
cried.wav,cried.mpg,cried,1,A,Pink_Noise_1_1.wav,Pink_Noise_1_2.wav,,,,,,,,,,,,,,,0,3,3,26,,,,,,,,,,,,,,,,,,,,,,,1331.8996189809404,None,1333.3991520251147,None,1334.7828507530503,None,"cried
",1334.7828507530503,None,return,5.684145668055862,1334.866220686119,None,,,,,,,,,,,,,,,,,,,,,,,,,,,,,,,,,73,001,2023_Apr_14_1532,SpeechDraft1Carolyn_lessNoise_PlusLocalization,2021.2.3,59.919610958800206,
groan.wav,groan.mpg,groan,2,A,Pink_Noise_2_1.wav,Pink_Noise_2_2.wav,,,,,,,,,,,,,,,0,4,4,8,,,,,,,,,,,,,,,,,,,,,,,1340.582847129088,None,1342.082579943817,None,1343.4664368112572,None,grown,1343.4664368112572,None,return,6.088831784203649,1343.549613383133,None,,,,,,,,,,,,,,,,,,,,,,,,,,,,,,,,,73,001,2023_Apr_14_1532,SpeechDraft1Carolyn_lessNoise_PlusLocalization,2021.2.3,59.919610958800206,
guess.wav,guess.mpg,guess,5,AV,Pink_Noise_5_1.wav,Pink_Noise_5_2.wav,,,,,,,,,,,,,,,0,5,5,92,,,,,,,,,,,,,,,,,,,,,,,1349.6662008031271,None,1351.1660248008557,None,1352.5495183081366,None,guests,1352.5495183081366,None,return,5.6615158203057945,1352.632870559115,None,,,,,,,,,,,,,,,,,,,,,,,,,,,,,,,,,73,001,2023_Apr_14_1532,SpeechDraft1Carolyn_lessNoise_PlusLocalization,2021.2.3,59.919610958800206,
blame.wav,blame.mpg,blame,3,A,Pink_Noise_3_1.wav,Pink_Noise_3_2.wav,,,,,,,,,,,,,,,0,6,6,39,,,,,,,,,,,,,,,,,,,,,,,1358.3162347539328,None,1359.8158610090613,None,1361.199463296216,None,lame,1361.199463296216,None,return,3.571543316822499,1361.2829206609167,None,,,,,,,,,,,,,,,,,,,,,,,,,,,,,,,,,73,001,2023_Apr_14_1532,SpeechDraft1Carolyn_lessNoise_PlusLocalization,2021.2.3,59.919610958800206,
broom.wav,broom.mpg,broom,3,AV,Pink_Noise_3_1.wav,Pink_Noise_3_2.wav,,,,,,,,,,,,,,,0,7,7,75,,,,,,,,,,,,,,,,,,,,,,,1364.8828498921357,None,1366.3825256861746,None,1367.7660967591219,None,broom,1367.7660967591219,None,return,2.316799412947148,1367.8495520208962,None,,,,,,,,,,,,,,,,,,,,,,,,,,,,,,,,,73,001,2023_Apr_14_1532,SpeechDraft1Carolyn_lessNoise_PlusLocalization,2021.2.3,59.919610958800206,
bomb.wav,bomb.mpg,bomb,4,A,Pink_Noise_4_1.wav,Pink_Noise_4_2.wav,,,,,,,,,,,,,,,0,8,8,6,,,,,,,,,,,,,,,,,,,,,,,1370.1830625152215,None,1371.682572987862,None,1373.0663522290997,None,bone,1373.0663522290997,None,return,3.112885702867061,1373.1495306510478,None,,,,,,,,,,,,,,,,,,,,,,,,,,,,,,,,,73,001,2023_Apr_14_1532,SpeechDraft1Carolyn_lessNoise_PlusLocalization,2021.2.3,59.919610958800206,
gap.wav,gap.mpg,gap,6,A,Pink_Noise_6_1.wav,Pink_Noise_6_2.wav,,,,,,,,,,,,,,,0,9,9,54,,,,,,,,,,,,,,,,,,,,,,,1376.282825006172,None,1377.782531045843,None,1379.166303532198,None,mist,1379.166303532198,None,return,2.676660053897649,1379.2496845368296,None,,,,,,,,,,,,,,,,,,,,,,,,,,,,,,,,,73,001,2023_Apr_14_1532,SpeechDraft1Carolyn_lessNoise_PlusLocalization,2021.2.3,59.919610958800206,
hit.wav,hit.mpg,hit,1,A,Pink_Noise_1_1.wav,Pink_Noise_1_2.wav,,,,,,,,,,,,,,,0,10,10,55,,,,,,,,,,,,,,,,,,,,,,,1381.949561634101,None,1383.4341754261404,None,1384.81623265706,None,hit,1384.81623265706,None,return,0.9947093552909791,1384.8996858731844,None,,,,,,,,,,,,,,,,,,,,,,,,,,,,,,,,,73,001,2023_Apr_14_1532,SpeechDraft1Carolyn_lessNoise_PlusLocalization,2021.2.3,59.919610958800206,
green.wav,green.mpg,green,4,A,Pink_Noise_4_1.wav,Pink_Noise_4_2.wav,,,,,,,,,,,,,,,0,11,11,28,,,,,,,,,,,,,,,,,,,,,,,1385.916325591039,None,1387.4159269081429,None,1388.7997428718954,None,green,1388.7997428718954,None,return,2.043474602047354,1388.8829047041945,None,,,,,,,,,,,,,,,,,,,,,,,,,,,,,,,,,73,001,2023_Apr_14_1532,SpeechDraft1Carolyn_lessNoise_PlusLocalization,2021.2.3,59.919610958800206,
chant.wav,chant.mpg,chant,6,AV,Pink_Noise_6_1.wav,Pink_Noise_6_2.wav,,,,,,,,,,,,,,,0,12,12,93,,,,,,,,,,,,,,,,,,,,,,,1390.9494989868253,None,1392.4493188410997,None,1393.8328862660564,None,chest,1393.8328862660564,None,return,1.994143529329449,1393.916248974856,None,,,,,,,,,,,,,,,,,,,,,,,,,,,,,,,,,73,001,2023_Apr_14_1532,SpeechDraft1Carolyn_lessNoise_PlusLocalization,2021.2.3,59.919610958800206,
bond.wav,bond.mpg,bond,4,A,Pink_Noise_4_1.wav,Pink_Noise_4_2.wav,,,,,,,,,,,,,,,0,13,13,40,,,,,,,,,,,,,,,,,,,,,,,1395.9328583702445,None,1397.4326154710725,None,1398.8162524420768,None,ofs,1398.8162524420768,None,return,2.4107859251089394,1398.8995603332296,None,,,,,,,,,,,,,,,,,,,,,,,,,,,,,,,,,73,001,2023_Apr_14_1532,SpeechDraft1Carolyn_lessNoise_PlusLocalization,2021.2.3,59.919610958800206,
axe.wav,axe.mpg,axe,4,AV,Pink_Noise_4_1.wav,Pink_Noise_4_2.wav,,,,,,,,,,,,,,,0,14,14,118,,,,,,,,,,,,,,,,,,,,,,,1401.3330430109054,None,1402.832615972031,None,1404.2161806090735,None,ex,1404.2161806090735,None,return,1.3468695520423353,1404.2995586670004,None,,,,,,,,,,,,,,,,,,,,,,,,,,,,,,,,,73,001,2023_Apr_14_1532,SpeechDraft1Carolyn_lessNoise_PlusLocalization,2021.2.3,59.919610958800206,
led.wav,led.mpg,led,5,A,Pink_Noise_5_1.wav,Pink_Noise_5_2.wav,,,,,,,,,,,,,,,0,15,15,20,,,,,,,,,,,,,,,,,,,,,,,1405.6662831711583,None,1407.1659299209714,None,1408.5496973441914,None,rum,1408.5496973441914,None,return,4.741454632952809,1408.6328859799542,None,,,,,,,,,,,,,,,,,,,,,,,,,,,,,,,,,73,001,2023_Apr_14_1532,SpeechDraft1Carolyn_lessNoise_PlusLocalization,2021.2.3,59.919610958800206,
client.wav,client.mpg,client,1,A,Pink_Noise_1_1.wav,Pink_Noise_1_2.wav,,,,,,,,,,,,,,,0,16,16,16,,,,,,,,,,,,,,,,,,,,,,,1413.3997239619493,None,1414.899271896109,None,1416.2829887620173,None,client,1416.2829887620173,None,return,3.432171753142029,1416.3662856901065,None,,,,,,,,,,,,,,,,,,,,,,,,,,,,,,,,,73,001,2023_Apr_14_1532,SpeechDraft1Carolyn_lessNoise_PlusLocalization,2021.2.3,59.919610958800206,
crane.wav,crane.mpg,crane,3,A,Pink_Noise_3_1.wav,Pink_Noise_3_2.wav,,,,,,,,,,,,,,,0,17,17,29,,,,,,,,,,,,,,,,,,,,,,,1419.816244192887,None,1421.315933433827,None,1422.6997475111857,None,pretty,1422.6997475111857,None,return,3.391432066913694,1422.7828960232437,None,,,,,,,,,,,,,,,,,,,,,,,,,,,,,,,,,73,001,2023_Apr_14_1532,SpeechDraft1Carolyn_lessNoise_PlusLocalization,2021.2.3,59.919610958800206,
fake.wav,fake.mpg,fake,5,AV,Pink_Noise_5_1.wav,Pink_Noise_5_2.wav,,,,,,,,,,,,,,,0,18,18,80,,,,,,,,,,,,,,,,,,,,,,,1426.1995993889868,None,1427.6992582171224,None,1429.0829299278557,None,fit,1429.0829299278557,None,return,1.9120340161025524,1429.1663238909096,None,,,,,,,,,,,,,,,,,,,,,,,,,,,,,,,,,73,001,2023_Apr_14_1532,SpeechDraft1Carolyn_lessNoise_PlusLocalization,2021.2.3,59.919610958800206,
climb.wav,climb.mpg,climb,2,AV,Pink_Noise_2_1.wav,Pink_Noise_2_2.wav,,,,,,,,,,,,,,,0,19,19,89,,,,,,,,,,,,,,,,,,,,,,,1431.0995967010967,None,1432.599351926241,None,1433.9829217791557,None,climb,1433.9829217791557,None,return,2.2440449320711195,1434.0662976992317,None,,,,,,,,,,,,,,,,,,,,,,,,,,,,,,,,,73,001,2023_Apr_14_1532,SpeechDraft1Carolyn_lessNoise_PlusLocalization,2021.2.3,59.919610958800206,
bun.wav,bun.mpg,bun,3,A,Pink_Noise_3_1.wav,Pink_Noise_3_2.wav,,,,,,,,,,,,,,,0,20,20,35,,,,,,,,,,,,,,,,,,,,,,,1436.3329994422384,None,1437.8326340769418,None,1439.2162691270933,None,fun,1439.2162691270933,None,return,3.394786639139056,1439.2995707741939,None,,,,,,,,,,,,,,,,,,,,,,,,,,,,,,,,,73,001,2023_Apr_14_1532,SpeechDraft1Carolyn_lessNoise_PlusLocalization,2021.2.3,59.919610958800206,
fat.wav,fat.mpg,fat,1,A,Pink_Noise_1_1.wav,Pink_Noise_1_2.wav,,,,,,,,,,,,,,,0,21,21,0,,,,,,,,,,,,,,,,,,,,,,,1442.716339407023,None,1444.21598710306,None,1445.599648267962,None,fat,1445.599648267962,None,return,0.8995339660905302,1445.6829264648259,None,,,,,,,,,,,,,,,,,,,,,,,,,,,,,,,,,73,001,2023_Apr_14_1532,SpeechDraft1Carolyn_lessNoise_PlusLocalization,2021.2.3,59.919610958800206,
cliff.wav,cliff.mpg,cliff,1,AV,Pink_Noise_1_1.wav,Pink_Noise_1_2.wav,,,,,,,,,,,,,,,0,22,22,83,,,,,,,,,,,,,,,,,,,,,,,1446.5996937220916,None,1448.0993379838765,None,1449.484073929023,None,cliff,1449.484073929023,None,return,1.2802184438332915,1449.56624651514,None,,,,,,,,,,,,,,,,,,,,,,,,,,,,,,,,,73,001,2023_Apr_14_1532,SpeechDraft1Carolyn_lessNoise_PlusLocalization,2021.2.3,59.919610958800206,
fine.wav,fine.mpg,fine,4,A,Pink_Noise_4_1.wav,Pink_Noise_4_2.wav,,,,,,,,,,,,,,,0,23,23,48,,,,,,,,,,,,,,,,,,,,,,,1450.8663117862307,None,1452.3660518848337,None,1453.7496413500048,None,"science
",1453.7496413500048,None,return,4.053372028283775,1453.8329802248627,None,,,,,,,,,,,,,,,,,,,,,,,,,,,,,,,,,73,001,2023_Apr_14_1532,SpeechDraft1Carolyn_lessNoise_PlusLocalization,2021.2.3,59.919610958800206,
swamp.wav,swamp.mpg,swamp,4,AV,Pink_Noise_4_1.wav,Pink_Noise_4_2.wav,,,,,,,,,,,,,,,0,24,24,108,,,,,,,,,,,,,,,,,,,,,,,1457.9165347767994,None,1459.416046579834,None,1460.7996843820438,None,swamp,1460.7996843820438,None,return,1.5154401366598904,1460.8829846880399,None,,,,,,,,,,,,,,,,,,,,,,,,,,,,,,,,,73,001,2023_Apr_14_1532,SpeechDraft1Carolyn_lessNoise_PlusLocalization,2021.2.3,59.919610958800206,
gag.wav,gag.mpg,gag,6,A,Pink_Noise_6_1.wav,Pink_Noise_6_2.wav,,,,,,,,,,,,,,,0,25,25,31,,,,,,,,,,,,,,,,,,,,,,,1462.4163009012118,None,1463.9161227452569,None,1465.2997386171483,None,guy,1465.2997386171483,None,return,3.5833401712588966,1465.3830148829147,None,,,,,,,,,,,,,,,,,,,,,,,,,,,,,,,,,73,001,2023_Apr_14_1532,SpeechDraft1Carolyn_lessNoise_PlusLocalization,2021.2.3,59.919610958800206,
bloom.wav,bloom.mpg,bloom,2,A,Pink_Noise_2_1.wav,Pink_Noise_2_2.wav,,,,,,,,,,,,,,,0,26,26,52,,,,,,,,,,,,,,,,,,,,,,,1468.9830136820674,None,1470.4829965038225,None,1471.8664502478205,None,bloom,1471.8664502478205,None,return,4.6247221399098635,1471.949619336985,None,,,,,,,,,,,,,,,,,,,,,,,,,,,,,,,,,73,001,2023_Apr_14_1532,SpeechDraft1Carolyn_lessNoise_PlusLocalization,2021.2.3,59.919610958800206,
cease.wav,cease.mpg,cease,5,A,Pink_Noise_5_1.wav,Pink_Noise_5_2.wav,,,,,,,,,,,,,,,0,27,27,21,,,,,,,,,,,,,,,,,,,,,,,1476.5999122052453,None,1478.0992924231105,None,1479.4843221730553,None,assist,1479.4843221730553,None,return,3.4160445989109576,1479.5663871448487,None,,,,,,,,,,,,,,,,,,,,,,,,,,,,,,,,,73,001,2023_Apr_14_1532,SpeechDraft1Carolyn_lessNoise_PlusLocalization,2021.2.3,59.919610958800206,
blue.wav,blue.mpg,blue,3,AV,Pink_Noise_3_1.wav,Pink_Noise_3_2.wav,,,,,,,,,,,,,,,0,28,28,68,,,,,,,,,,,,,,,,,,,,,,,1482.9997028429061,None,1484.499515681062,None,1485.882978613954,None,"blur
",1485.882978613954,None,return,5.33589533995837,1485.9664607848972,None,,,,,,,,,,,,,,,,,,,,,,,,,,,,,,,,,73,001,2023_Apr_14_1532,SpeechDraft1Carolyn_lessNoise_PlusLocalization,2021.2.3,59.919610958800206,
dock.wav,dock.mpg,dock,5,AV,Pink_Noise_5_1.wav,Pink_Noise_5_2.wav,,,,,,,,,,,,,,,0,29,29,86,,,,,,,,,,,,,,,,,,,,,,,1491.3330180379562,None,1492.8327772319317,None,1494.2162676909938,None,shot,1494.2162676909938,None,return,4.466677804943174,1494.2997044939548,None,,,,,,,,,,,,,,,,,,,,,,,,,,,,,,,,,73,001,2023_Apr_14_1532,SpeechDraft1Carolyn_lessNoise_PlusLocalization,2021.2.3,59.919610958800206,
beam.wav,beam.mpg,beam,5,A,Pink_Noise_5_1.wav,Pink_Noise_5_2.wav,,,,,,,,,,,,,,,0,30,30,2,,,,,,,,,,,,,,,,,,,,,,,1498.783077153843,None,1500.2828285922296,None,1501.666295510251,None,mix,1501.666295510251,None,return,3.9446345758624375,1501.7497109980322,None,,,,,,,,,,,,,,,,,,,,,,,,,,,,,,,,,73,001,2023_Apr_14_1532,SpeechDraft1Carolyn_lessNoise_PlusLocalization,2021.2.3,59.919610958800206,
two.wav,two.mpg,two,1,AV,Pink_Noise_1_1.wav,Pink_Noise_1_2.wav,,,,,,,,,,,,,,,0,31,31,104,,,,,,,,,,,,,,,,,,,,,,,1505.7166253430769,None,1507.2162048891187,None,1508.599841246847,None,"two
",1508.599841246847,None,return,1.619312681723386,1508.683057141956,None,,,,,,,,,,,,,,,,,,,,,,,,,,,,,,,,,73,001,2023_Apr_14_1532,SpeechDraft1Carolyn_lessNoise_PlusLocalization,2021.2.3,59.919610958800206,
cute.wav,cute.mpg,cute,6,A,Pink_Noise_6_1.wav,Pink_Noise_6_2.wav,,,,,,,,,,,,,,,0,32,32,49,,,,,,,,,,,,,,,,,,,,,,,1510.3330751452595,None,1511.8328500511125,None,1513.2165559078567,None,tree,1513.2165559078567,None,return,1.6987489452585578,1513.2996901632287,None,,,,,,,,,,,,,,,,,,,,,,,,,,,,,,,,,73,001,2023_Apr_14_1532,SpeechDraft1Carolyn_lessNoise_PlusLocalization,2021.2.3,59.919610958800206,
beach.wav,beach.mpg,beach,3,AV,Pink_Noise_3_1.wav,Pink_Noise_3_2.wav,,,,,,,,,,,,,,,0,33,33,94,,,,,,,,,,,,,,,,,,,,,,,1515.0164460572414,None,1516.5162226241082,None,1517.8996023111977,None,"beach
",1517.8996023111977,None,return,2.1032473077066243,1517.9831180321053,None,,,,,,,,,,,,,,,,,,,,,,,,,,,,,,,,,73,001,2023_Apr_14_1532,SpeechDraft1Carolyn_lessNoise_PlusLocalization,2021.2.3,59.919610958800206,
groom.wav,groom.mpg,groom,5,A,Pink_Noise_5_1.wav,Pink_Noise_5_2.wav,,,,,,,,,,,,,,,0,34,34,3,,,,,,,,,,,,,,,,,,,,,,,1520.1164848008193,None,1521.6160921840928,None,1522.9997063400224,None,"spring
",1522.9997063400224,None,return,2.4192098011262715,1523.0831289682537,None,,,,,,,,,,,,,,,,,,,,,,,,,,,,,,,,,73,001,2023_Apr_14_1532,SpeechDraft1Carolyn_lessNoise_PlusLocalization,2021.2.3,59.919610958800206,
fuel.wav,fuel.mpg,fuel,1,AV,Pink_Noise_1_1.wav,Pink_Noise_1_2.wav,,,,,,,,,,,,,,,0,35,35,106,,,,,,,,,,,,,,,,,,,,,,,1525.5331083978526,None,1527.032929387875,None,1528.4164573810995,None,fuel,1528.4164573810995,None,return,1.8425635523162782,1528.499797895085,None,,,,,,,,,,,,,,,,,,,,,,,,,,,,,,,,,73,001,2023_Apr_14_1532,SpeechDraft1Carolyn_lessNoise_PlusLocalization,2021.2.3,59.919610958800206,
broke.wav,broke.mpg,broke,2,A,Pink_Noise_2_1.wav,Pink_Noise_2_2.wav,,,,,,,,,,,,,,,0,36,36,11,,,,,,,,,,,,,,,,,,,,,,,1530.3663920718245,None,1531.8660746049136,None,1533.2498190668412,None,broke,1533.2498190668412,None,return,1.697194173000753,1533.3332227519713,None,,,,,,,,,,,,,,,,,,,,,,,,,,,,,,,,,73,001,2023_Apr_14_1532,SpeechDraft1Carolyn_lessNoise_PlusLocalization,2021.2.3,59.919610958800206,
curl.wav,curl.mpg,curl,1,AV,Pink_Noise_1_1.wav,Pink_Noise_1_2.wav,,,,,,,,,,,,,,,0,37,37,114,,,,,,,,,,,,,,,,,,,,,,,1535.0497770621441,None,1536.5493903011084,None,1537.93310560612,None,curl,1537.93310560612,None,return,1.373863763641566,1538.016504406929,None,,,,,,,,,,,,,,,,,,,,,,,,,,,,,,,,,73,001,2023_Apr_14_1532,SpeechDraft1Carolyn_lessNoise_PlusLocalization,2021.2.3,59.919610958800206,
grace.wav,grace.mpg,grace,5,A,Pink_Noise_5_1.wav,Pink_Noise_5_2.wav,,,,,,,,,,,,,,,0,38,38,56,,,,,,,,,,,,,,,,,,,,,,,1539.4169687991962,None,1540.9162082481198,None,1542.2998749981634,None,rinse,1542.2998749981634,None,return,1.471188616938889,1542.3831672659144,None,,,,,,,,,,,,,,,,,,,,,,,,,,,,,,,,,73,001,2023_Apr_14_1532,SpeechDraft1Carolyn_lessNoise_PlusLocalization,2021.2.3,59.919610958800206,
unit.wav,unit.mpg,unit,2,AV,Pink_Noise_2_1.wav,Pink_Noise_2_2.wav,,,,,,,,,,,,,,,0,39,39,81,,,,,,,,,,,,,,,,,,,,,,,1543.8833299782127,None,1545.3829695400782,None,1546.7664422439411,None,unit,1546.7664422439411,None,return,0.9483711649663746,1546.850066435989,None,,,,,,,,,,,,,,,,,,,,,,,,,,,,,,,,,73,001,2023_Apr_14_1532,SpeechDraft1Carolyn_lessNoise_PlusLocalization,2021.2.3,59.919610958800206,
mold.wav,mold.mpg,mold,3,A,Pink_Noise_3_1.wav,Pink_Noise_3_2.wav,,,,,,,,,,,,,,,0,40,40,13,,,,,,,,,,,,,,,,,,,,,,,1547.8164300438948,None,1549.3161155320704,None,1550.6997680738568,None,"fold
",1550.6997680738568,None,return,1.687045773025602,1550.783307713922,None,,,,,,,,,,,,,,,,,,,,,,,,,,,,,,,,,73,001,2023_Apr_14_1532,SpeechDraft1Carolyn_lessNoise_PlusLocalization,2021.2.3,59.919610958800206,
gut.wav,gut.mpg,gut,1,AV,Pink_Noise_1_1.wav,Pink_Noise_1_2.wav,,,,,,,,,,,,,,,0,41,41,71,,,,,,,,,,,,,,,,,,,,,,,1552.4998397449963,None,1553.9995756899007,None,1555.3830252448097,None,gut,1555.3830252448097,None,return,0.5556229511275887,1555.48283297522,None,,,,,,,,,,,,,,,,,,,,,,,,,,,,,,,,,73,001,2023_Apr_14_1532,SpeechDraft1Carolyn_lessNoise_PlusLocalization,2021.2.3,59.919610958800206,
build.wav,build.mpg,build,4,AV,Pink_Noise_4_1.wav,Pink_Noise_4_2.wav,,,,,,,,,,,,,,,0,42,42,69,,,,,,,,,,,,,,,,,,,,,,,1556.0664729438722,None,1557.5663184002042,None,1558.9497614530846,None,"build
",1558.9497614530846,None,return,1.2852056450210512,1559.033152773045,None,,,,,,,,,,,,,,,,,,,,,,,,,,,,,,,,,73,001,2023_Apr_14_1532,SpeechDraft1Carolyn_lessNoise_PlusLocalization,2021.2.3,59.919610958800206,
faith.wav,faith.mpg,faith,4,AV,Pink_Noise_4_1.wav,Pink_Noise_4_2.wav,,,,,,,,,,,,,,,0,43,43,110,,,,,,,,,,,,,,,,,,,,,,,1560.3498762170784,None,1561.8494004341774,None,1563.2331456388347,None,faith,1563.2331456388347,None,return,3.921886251773685,1563.31659868313,None,,,,,,,,,,,,,,,,,,,,,,,,,,,,,,,,,73,001,2023_Apr_14_1532,SpeechDraft1Carolyn_lessNoise_PlusLocalization,2021.2.3,59.919610958800206,
dial.wav,dial.mpg,dial,2,AV,Pink_Noise_2_1.wav,Pink_Noise_2_2.wav,,,,,,,,,,,,,,,0,44,44,113,,,,,,,,,,,,,,,,,,,,,,,1567.2665769630112,None,1568.7662514341064,None,1570.1497040619142,None,"dial
",1570.1497040619142,None,return,1.4531958498992026,1570.2331550568342,None,,,,,,,,,,,,,,,,,,,,,,,,,,,,,,,,,73,001,2023_Apr_14_1532,SpeechDraft1Carolyn_lessNoise_PlusLocalization,2021.2.3,59.919610958800206,
grass.wav,grass.mpg,grass,3,A,Pink_Noise_3_1.wav,Pink_Noise_3_2.wav,,,,,,,,,,,,,,,0,45,45,17,,,,,,,,,,,,,,,,,,,,,,,1571.716470927,None,1573.2161318189465,None,1574.5999907199293,None,grass,1574.5999907199293,None,return,1.515258293133229,1574.6831604721956,None,,,,,,,,,,,,,,,,,,,,,,,,,,,,,,,,,73,001,2023_Apr_14_1532,SpeechDraft1Carolyn_lessNoise_PlusLocalization,2021.2.3,59.919610958800206,
chunk.wav,chunk.mpg,chunk,6,AV,Pink_Noise_6_1.wav,Pink_Noise_6_2.wav,,,,,,,,,,,,,,,0,46,46,95,,,,,,,,,,,,,,,,,,,,,,,1576.2164917229675,None,1577.7162169050425,None,1579.099676777143,None,chunk,1579.099676777143,None,return,5.743143171072006,1579.1832086029463,None,,,,,,,,,,,,,,,,,,,,,,,,,,,,,,,,,73,001,2023_Apr_14_1532,SpeechDraft1Carolyn_lessNoise_PlusLocalization,2021.2.3,59.919610958800206,
blend.wav,blend.mpg,blend,1,A,Pink_Noise_1_1.wav,Pink_Noise_1_2.wav,,,,,,,,,,,,,,,0,47,47,5,,,,,,,,,,,,,,,,,,,,,,,1584.9498605332337,None,1586.4494779668748,None,1587.8331922190264,None,"fled
",1587.8331922190264,None,return,5.8337877676822245,1587.916558726225,None,,,,,,,,,,,,,,,,,,,,,,,,,,,,,,,,,73,001,2023_Apr_14_1532,SpeechDraft1Carolyn_lessNoise_PlusLocalization,2021.2.3,59.919610958800206,
cloud.wav,cloud.mpg,cloud,1,A,Pink_Noise_1_1.wav,Pink_Noise_1_2.wav,,,,,,,,,,,,,,,0,48,48,9,,,,,,,,,,,,,,,,,,,,,,,1593.7832021261565,None,1595.2829122240655,None,1596.6666153068654,None,cloud,1596.6666153068654,None,return,1.9284798889420927,1596.7498792270198,None,,,,,,,,,,,,,,,,,,,,,,,,,,,,,,,,,73,001,2023_Apr_14_1532,SpeechDraft1Carolyn_lessNoise_PlusLocalization,2021.2.3,59.919610958800206,
wild.wav,wild.mpg,wild,4,A,Pink_Noise_4_1.wav,Pink_Noise_4_2.wav,,,,,,,,,,,,,,,0,49,49,18,,,,,,,,,,,,,,,,,,,,,,,1598.6998382410966,None,1600.1996047301218,None,1601.5832460019737,None,wild,1601.5832460019737,None,return,6.139944516122341,1601.6665286268108,None,,,,,,,,,,,,,,,,,,,,,,,,,,,,,,,,,73,001,2023_Apr_14_1532,SpeechDraft1Carolyn_lessNoise_PlusLocalization,2021.2.3,59.919610958800206,
flash.wav,flash.mpg,flash,2,A,Pink_Noise_2_1.wav,Pink_Noise_2_2.wav,,,,,,,,,,,,,,,0,50,50,47,,,,,,,,,,,,,,,,,,,,,,,1607.8332215021364,None,1609.3330060001463,None,1610.7164433700964,None,flash,1610.7164433700964,None,return,1.6542347869835794,1610.800118979998,None,,,,,,,,,,,,,,,,,,,,,,,,,,,,,,,,,73,001,2023_Apr_14_1532,SpeechDraft1Carolyn_lessNoise_PlusLocalization,2021.2.3,59.919610958800206,
clothe.wav,clothe.mpg,clothe,6,A,Pink_Noise_6_1.wav,Pink_Noise_6_2.wav,,,,,,,,,,,,,,,0,51,51,34,,,,,,,,,,,,,,,,,,,,,,,1612.4832078339532,None,1613.9828384281136,None,1615.3665437768213,None,slay,1615.3665437768213,None,return,4.860426721163094,1615.4499524892308,None,,,,,,,,,,,,,,,,,,,,,,,,,,,,,,,,,73,001,2023_Apr_14_1532,SpeechDraft1Carolyn_lessNoise_PlusLocalization,2021.2.3,59.919610958800206,
slush.wav,slush.mpg,slush,4,AV,Pink_Noise_4_1.wav,Pink_Noise_4_2.wav,,,,,,,,,,,,,,,0,52,52,109,,,,,,,,,,,,,,,,,,,,,,,1620.3331650611944,None,1621.8330006529577,None,1623.2165426621214,None,"slush
",1623.2165426621214,None,return,2.41849236888811,1623.2998642968014,None,,,,,,,,,,,,,,,,,,,,,,,,,,,,,,,,,73,001,2023_Apr_14_1532,SpeechDraft1Carolyn_lessNoise_PlusLocalization,2021.2.3,59.919610958800206,
blot.wav,blot.mpg,blot,6,A,Pink_Noise_6_1.wav,Pink_Noise_6_2.wav,,,,,,,,,,,,,,,0,53,53,42,,,,,,,,,,,,,,,,,,,,,,,1625.750026550144,None,1627.249633694999,None,1628.6331231370568,None,blush,1628.6331231370568,None,return,3.1297780512832105,1628.7166722752154,None,,,,,,,,,,,,,,,,,,,,,,,,,,,,,,,,,73,001,2023_Apr_14_1532,SpeechDraft1Carolyn_lessNoise_PlusLocalization,2021.2.3,59.919610958800206,
fifth.wav,fifth.mpg,fifth,2,A,Pink_Noise_2_1.wav,Pink_Noise_2_2.wav,,,,,,,,,,,,,,,0,54,54,27,,,,,,,,,,,,,,,,,,,,,,,1631.8665700820275,None,1633.3829551828094,None,1634.7665899638087,None,fifth,1634.7665899638087,None,return,2.3165176352486014,1634.8499095831066,None,,,,,,,,,,,,,,,,,,,,,,,,,,,,,,,,,73,001,2023_Apr_14_1532,SpeechDraft1Carolyn_lessNoise_PlusLocalization,2021.2.3,59.919610958800206,
dump.wav,dump.mpg,dump,6,AV,Pink_Noise_6_1.wav,Pink_Noise_6_2.wav,,,,,,,,,,,,,,,0,55,55,87,,,,,,,,,,,,,,,,,,,,,,,1637.1832303008996,None,1638.6996137280948,None,1640.0832222388126,None,"gum
",1640.0832222388126,None,return,2.767658672761172,1640.166721579153,None,,,,,,,,,,,,,,,,,,,,,,,,,,,,,,,,,73,001,2023_Apr_14_1532,SpeechDraft1Carolyn_lessNoise_PlusLocalization,2021.2.3,59.919610958800206,
flip.wav,flip.mpg,flip,5,AV,Pink_Noise_5_1.wav,Pink_Noise_5_2.wav,,,,,,,,,,,,,,,0,56,56,96,,,,,,,,,,,,,,,,,,,,,,,1642.9666121150367,None,1644.4663402792066,None,1645.8498464571312,None,flip,1645.8498464571312,None,return,5.081133528146893,1645.9332305700518,None,,,,,,,,,,,,,,,,,,,,,,,,,,,,,,,,,73,001,2023_Apr_14_1532,SpeechDraft1Carolyn_lessNoise_PlusLocalization,2021.2.3,59.919610958800206,
drop.wav,drop.mpg,drop,1,A,Pink_Noise_1_1.wav,Pink_Noise_1_2.wav,,,,,,,,,,,,,,,0,57,57,51,,,,,,,,,,,,,,,,,,,,,,,1651.033188092988,None,1652.5330559271388,None,1653.9166316119954,None,drop,1653.9166316119954,None,return,1.2383789466693997,1653.9999604918994,None,,,,,,,,,,,,,,,,,,,,,,,,,,,,,,,,,73,001,2023_Apr_14_1532,SpeechDraft1Carolyn_lessNoise_PlusLocalization,2021.2.3,59.919610958800206,
brag.wav,brag.mpg,brag,6,A,Pink_Noise_6_1.wav,Pink_Noise_6_2.wav,,,,,,,,,,,,,,,0,58,58,14,,,,,,,,,,,,,,,,,,,,,,,1655.2665518340655,None,1656.7663001292385,None,1658.14997363789,None,rad,1658.14997363789,None,return,2.2609432730823755,1658.2334023551084,None,,,,,,,,,,,,,,,,,,,,,,,,,,,,,,,,,73,001,2023_Apr_14_1532,SpeechDraft1Carolyn_lessNoise_PlusLocalization,2021.2.3,59.919610958800206,
drum.wav,drum.mpg,drum,4,AV,Pink_Noise_4_1.wav,Pink_Noise_4_2.wav,,,,,,,,,,,,,,,0,59,59,102,,,,,,,,,,,,,,,,,,,,,,,1660.5166300348938,None,1662.016390603967,None,1663.3998750462197,None,drum,1663.3998750462197,None,return,1.7631494542583823,1663.4832939398475,None,,,,,,,,,,,,,,,,,,,,,,,,,,,,,,,,,73,001,2023_Apr_14_1532,SpeechDraft1Carolyn_lessNoise_PlusLocalization,2021.2.3,59.919610958800206,
brake.wav,brake.mpg,brake,2,A,Pink_Noise_2_1.wav,Pink_Noise_2_2.wav,,,,,,,,,,,,,,,0,60,60,33,,,,,,,,,,,,,,,,,,,,,,,1665.266630704049,None,1666.7663866071962,None,1668.1499604918063,None,"rig
",1668.1499604918063,None,return,0.8691322272643447,1668.2332229991443,None,,,,,,,,,,,,,,,,,,,,,,,,,,,,,,,,,73,001,2023_Apr_14_1532,SpeechDraft1Carolyn_lessNoise_PlusLocalization,2021.2.3,59.919610958800206,
chat.wav,chat.mpg,chat,6,A,Pink_Noise_6_1.wav,Pink_Noise_6_2.wav,,,,,,,,,,,,,,,0,61,61,37,,,,,,,,,,,,,,,,,,,,,,,1669.1332551110536,None,1670.633963065222,None,1672.0168299390934,None,chest,1672.0168299390934,None,return,3.0663462695665658,1672.1001189919189,None,,,,,,,,,,,,,,,,,,,,,,,,,,,,,,,,,73,001,2023_Apr_14_1532,SpeechDraft1Carolyn_lessNoise_PlusLocalization,2021.2.3,59.919610958800206,
globe.wav,globe.mpg,globe,6,A,Pink_Noise_6_1.wav,Pink_Noise_6_2.wav,,,,,,,,,,,,,,,0,62,62,19,,,,,,,,,,,,,,,,,,,,,,,1675.1833433839492,None,1676.6834079828113,None,1678.0667313570157,None,stove,1678.0667313570157,None,return,2.57643924606964,1678.1499580582604,None,,,,,,,,,,,,,,,,,,,,,,,,,,,,,,,,,73,001,2023_Apr_14_1532,SpeechDraft1Carolyn_lessNoise_PlusLocalization,2021.2.3,59.919610958800206,
budge.wav,budge.mpg,budge,4,AV,Pink_Noise_4_1.wav,Pink_Noise_4_2.wav,,,,,,,,,,,,,,,0,63,63,111,,,,,,,,,,,,,,,,,,,,,,,1680.7500261031091,None,1682.2497341958806,None,1683.6333132842556,None,budge,1683.6333132842556,None,return,1.8898691721260548,1683.7166536631994,None,,,,,,,,,,,,,,,,,,,,,,,,,,,,,,,,,73,001,2023_Apr_14_1532,SpeechDraft1Carolyn_lessNoise_PlusLocalization,2021.2.3,59.919610958800206,
fade.wav,fade.mpg,fade,1,AV,Pink_Noise_1_1.wav,Pink_Noise_1_2.wav,,,,,,,,,,,,,,,0,64,64,65,,,,,,,,,,,,,,,,,,,,,,,1685.633440906182,None,1687.1329265520908,None,1688.5165446451865,None,fade,1688.5165446451865,None,return,1.3743570144288242,1688.5999843548052,None,,,,,,,,,,,,,,,,,,,,,,,,,,,,,,,,,73,001,2023_Apr_14_1532,SpeechDraft1Carolyn_lessNoise_PlusLocalization,2021.2.3,59.919610958800206,
bye.wav,bye.mpg,bye,2,A,Pink_Noise_2_1.wav,Pink_Noise_2_2.wav,,,,,,,,,,,,,,,0,65,65,36,,,,,,,,,,,,,,,,,,,,,,,1689.9999892581254,None,1691.5164888100699,None,1692.9000554969534,None,by,1692.9000554969534,None,return,0.9590595397166908,1692.9832903039642,None,,,,,,,,,,,,,,,,,,,,,,,,,,,,,,,,,73,001,2023_Apr_14_1532,SpeechDraft1Carolyn_lessNoise_PlusLocalization,2021.2.3,59.919610958800206,
bound.wav,bound.mpg,bound,4,A,Pink_Noise_4_1.wav,Pink_Noise_4_2.wav,,,,,,,,,,,,,,,0,66,66,50,,,,,,,,,,,,,,,,,,,,,,,1693.9666672381572,None,1695.466315757949,None,1696.8501457199454,None,found,1696.8501457199454,None,return,2.44911593105644,1696.9333154750057,None,,,,,,,,,,,,,,,,,,,,,,,,,,,,,,,,,73,001,2023_Apr_14_1532,SpeechDraft1Carolyn_lessNoise_PlusLocalization,2021.2.3,59.919610958800206,
bull.wav,bull.mpg,bull,4,AV,Pink_Noise_4_1.wav,Pink_Noise_4_2.wav,,,,,,,,,,,,,,,0,67,67,97,,,,,,,,,,,,,,,,,,,,,,,1699.3999745422043,None,1700.9163094400428,None,1702.2999057262205,None,bull,1702.2999057262205,None,return,1.623212310951203,1702.383327325806,None,,,,,,,,,,,,,,,,,,,,,,,,,,,,,,,,,73,001,2023_Apr_14_1532,SpeechDraft1Carolyn_lessNoise_PlusLocalization,2021.2.3,59.919610958800206,
fence.wav,fence.mpg,fence,3,AV,Pink_Noise_3_1.wav,Pink_Noise_3_2.wav,,,,,,,,,,,,,,,0,68,68,61,,,,,,,,,,,,,,,,,,,,,,,1704.0332793002017,None,1705.5330771552399,None,1706.9167108591646,None,fence,1706.9167108591646,None,return,4.462208705954254,1707.0001391768456,None,,,,,,,,,,,,,,,,,,,,,,,,,,,,,,,,,73,001,2023_Apr_14_1532,SpeechDraft1Carolyn_lessNoise_PlusLocalization,2021.2.3,59.919610958800206,
eel.wav,eel.mpg,eel,6,AV,Pink_Noise_6_1.wav,Pink_Noise_6_2.wav,,,,,,,,,,,,,,,0,69,69,84,,,,,,,,,,,,,,,,,,,,,,,1711.4833512171172,None,1712.9830524241552,None,1714.366645310074,None,heal,1714.366645310074,None,return,3.892333146650344,1714.4500359669328,None,,,,,,,,,,,,,,,,,,,,,,,,,,,,,,,,,73,001,2023_Apr_14_1532,SpeechDraft1Carolyn_lessNoise_PlusLocalization,2021.2.3,59.919610958800206,
clean.wav,clean.mpg,clean,1,AV,Pink_Noise_1_1.wav,Pink_Noise_1_2.wav,,,,,,,,,,,,,,,0,70,70,70,,,,,,,,,,,,,,,,,,,,,,,1718.3666881211102,None,1719.8665586272255,None,1721.2499386682175,None,clean,1721.2499386682175,None,return,5.280970731750131,1721.3333786400035,None,,,,,,,,,,,,,,,,,,,,,,,,,,,,,,,,,73,001,2023_Apr_14_1532,SpeechDraft1Carolyn_lessNoise_PlusLocalization,2021.2.3,59.919610958800206,
bathe.wav,bathe.mpg,bathe,5,AV,Pink_Noise_5_1.wav,Pink_Noise_5_2.wav,,,,,,,,,,,,,,,0,71,71,85,,,,,,,,,,,,,,,,,,,,,,,1726.633365939837,None,1728.149550610222,None,1729.5332479239441,None,bathe,1729.5332479239441,None,return,2.397712742909789,1729.6166744651273,None,,,,,,,,,,,,,,,,,,,,,,,,,,,,,,,,,73,001,2023_Apr_14_1532,SpeechDraft1Carolyn_lessNoise_PlusLocalization,2021.2.3,59.919610958800206,
flair.wav,flair.mpg,flair,6,AV,Pink_Noise_6_1.wav,Pink_Noise_6_2.wav,,,,,,,,,,,,,,,0,72,72,116,,,,,,,,,,,,,,,,,,,,,,,1732.0333267170936,None,1733.5330508449115,None,1734.9167532362044,None,flame,1734.9167532362044,None,return,4.238332711160183,1735.000101486221,None,,,,,,,,,,,,,,,,,,,,,,,,,,,,,,,,,73,001,2023_Apr_14_1532,SpeechDraft1Carolyn_lessNoise_PlusLocalization,2021.2.3,59.919610958800206,
cross.wav,cross.mpg,cross,2,A,Pink_Noise_2_1.wav,Pink_Noise_2_2.wav,,,,,,,,,,,,,,,0,73,73,53,,,,,,,,,,,,,,,,,,,,,,,1739.2667742418125,None,1740.7665135310963,None,1742.1500848680735,None,cross,1742.1500848680735,None,return,5.324924720451236,1742.2334231189452,None,,,,,,,,,,,,,,,,,,,,,,,,,,,,,,,,,73,001,2023_Apr_14_1532,SpeechDraft1Carolyn_lessNoise_PlusLocalization,2021.2.3,59.919610958800206,
cane.wav,cane.mpg,cane,3,A,Pink_Noise_3_1.wav,Pink_Noise_3_2.wav,,,,,,,,,,,,,,,0,74,74,59,,,,,,,,,,,,,,,,,,,,,,,1747.583366629202,None,1749.0830658259802,None,1750.4667080030777,None,cane,1750.4667080030777,None,return,3.24835465522483,1750.5501307519153,None,,,,,,,,,,,,,,,,,,,,,,,,,,,,,,,,,73,001,2023_Apr_14_1532,SpeechDraft1Carolyn_lessNoise_PlusLocalization,2021.2.3,59.919610958800206,
bald.wav,bald.mpg,bald,5,AV,Pink_Noise_5_1.wav,Pink_Noise_5_2.wav,,,,,,,,,,,,,,,0,75,75,99,,,,,,,,,,,,,,,,,,,,,,,1753.8167231781408,None,1755.3331400621682,None,1756.7167016710155,None,ball,1756.7167016710155,None,return,2.4783287649042904,1756.8000262379646,None,,,,,,,,,,,,,,,,,,,,,,,,,,,,,,,,,73,001,2023_Apr_14_1532,SpeechDraft1Carolyn_lessNoise_PlusLocalization,2021.2.3,59.919610958800206,
crank.wav,crank.mpg,crank,3,A,Pink_Noise_3_1.wav,Pink_Noise_3_2.wav,,,,,,,,,,,,,,,0,76,76,43,,,,,,,,,,,,,,,,,,,,,,,1759.3000474860892,None,1760.7997693270445,None,1762.18342595594,None,"crick
",1762.18342595594,None,return,2.8515668557956815,1762.2667900440283,None,,,,,,,,,,,,,,,,,,,,,,,,,,,,,,,,,73,001,2023_Apr_14_1532,SpeechDraft1Carolyn_lessNoise_PlusLocalization,2021.2.3,59.919610958800206,
grave.wav,grave.mpg,grave,5,A,Pink_Noise_5_1.wav,Pink_Noise_5_2.wav,,,,,,,,,,,,,,,0,77,77,12,,,,,,,,,,,,,,,,,,,,,,,1765.150158746168,None,1766.6498867501505,None,1768.033505457919,None,fringe,1768.033505457919,None,return,2.9614436691626906,1768.1169157708064,None,,,,,,,,,,,,,,,,,,,,,,,,,,,,,,,,,73,001,2023_Apr_14_1532,SpeechDraft1Carolyn_lessNoise_PlusLocalization,2021.2.3,59.919610958800206,
ball.wav,ball.mpg,ball,4,A,Pink_Noise_4_1.wav,Pink_Noise_4_2.wav,,,,,,,,,,,,,,,0,78,78,4,,,,,,,,,,,,,,,,,,,,,,,1771.1001308169216,None,1772.59973576013,None,1773.9834158821031,None,"ball
",1773.9834158821031,None,return,2.8035300537012517,1774.0668274709024,None,,,,,,,,,,,,,,,,,,,,,,,,,,,,,,,,,73,001,2023_Apr_14_1532,SpeechDraft1Carolyn_lessNoise_PlusLocalization,2021.2.3,59.919610958800206,
fame.wav,fame.mpg,fame,6,AV,Pink_Noise_6_1.wav,Pink_Noise_6_2.wav,,,,,,,,,,,,,,,0,79,79,73,,,,,,,,,,,,,,,,,,,,,,,1776.900161198806,None,1778.3999047852121,None,1779.7834167620167,None,fin,1779.7834167620167,None,return,7.515703957993537,1779.8667637570761,None,,,,,,,,,,,,,,,,,,,,,,,,,,,,,,,,,73,001,2023_Apr_14_1532,SpeechDraft1Carolyn_lessNoise_PlusLocalization,2021.2.3,59.919610958800206,
book.wav,book.mpg,book,4,A,Pink_Noise_4_1.wav,Pink_Noise_4_2.wav,,,,,,,,,,,,,,,0,80,80,41,,,,,,,,,,,,,,,,,,,,,,,1787.4001168180257,None,1788.8998531228863,None,1790.2834258391522,None,book,1790.2834258391522,None,return,1.663646537810564,1790.3668272891082,None,,,,,,,,,,,,,,,,,,,,,,,,,,,,,,,,,73,001,2023_Apr_14_1532,SpeechDraft1Carolyn_lessNoise_PlusLocalization,2021.2.3,59.919610958800206,
awe.wav,awe.mpg,awe,5,A,Pink_Noise_5_1.wav,Pink_Noise_5_2.wav,,,,,,,,,,,,,,,0,81,81,10,,,,,,,,,,,,,,,,,,,,,,,1792.0502079729922,None,1793.5498542180285,None,1794.9334443118423,None,all,1794.9334443118423,None,return,2.0455901119858027,1795.0168005912565,None,,,,,,,,,,,,,,,,,,,,,,,,,,,,,,,,,73,001,2023_Apr_14_1532,SpeechDraft1Carolyn_lessNoise_PlusLocalization,2021.2.3,59.919610958800206,
bunch.wav,bunch.mpg,bunch,2,AV,Pink_Noise_2_1.wav,Pink_Noise_2_2.wav,,,,,,,,,,,,,,,0,82,82,100,,,,,,,,,,,,,,,,,,,,,,,1797.0835000351071,None,1798.599977698177,None,1799.9833754762076,None,bunch,1799.9833754762076,None,return,9.379633156117052,1800.0667601521127,None,,,,,,,,,,,,,,,,,,,,,,,,,,,,,,,,,73,001,2023_Apr_14_1532,SpeechDraft1Carolyn_lessNoise_PlusLocalization,2021.2.3,59.919610958800206,
pop.wav,pop.mpg,pop,5,A,Pink_Noise_5_1.wav,Pink_Noise_5_2.wav,,,,,,,,,,,,,,,0,83,83,32,,,,,,,,,,,,,,,,,,,,,,,1809.4675708208233,None,1810.983263969887,None,1812.3669109372422,None,tot,1812.3669109372422,None,return,6.396255285013467,1812.4501345348544,None,,,,,,,,,,,,,,,,,,,,,,,,,,,,,,,,,73,001,2023_Apr_14_1532,SpeechDraft1Carolyn_lessNoise_PlusLocalization,2021.2.3,59.919610958800206,
craft.wav,craft.mpg,craft,2,A,Pink_Noise_2_1.wav,Pink_Noise_2_2.wav,,,,,,,,,,,,,,,0,84,84,45,,,,,,,,,,,,,,,,,,,,,,,1818.8668449088,None,1820.3833758309484,None,1821.7669185278937,None,craft,1821.7669185278937,None,return,5.6282261847518384,1821.850143971853,None,,,,,,,,,,,,,,,,,,,,,,,,,,,,,,,,,73,001,2023_Apr_14_1532,SpeechDraft1Carolyn_lessNoise_PlusLocalization,2021.2.3,59.919610958800206,
bribe.wav,bribe.mpg,bribe,3,AV,Pink_Noise_3_1.wav,Pink_Noise_3_2.wav,,,,,,,,,,,,,,,0,85,85,112,,,,,,,,,,,,,,,,,,,,,,,1827.5001058750786,None,1829.0332265151665,None,1830.4166638902389,None,bribe,1830.4166638902389,None,return,3.058026823680848,1830.5003140689805,None,,,,,,,,,,,,,,,,,,,,,,,,,,,,,,,,,73,001,2023_Apr_14_1532,SpeechDraft1Carolyn_lessNoise_PlusLocalization,2021.2.3,59.919610958800206,
flex.wav,flex.mpg,flex,3,AV,Pink_Noise_3_1.wav,Pink_Noise_3_2.wav,,,,,,,,,,,,,,,0,86,86,74,,,,,,,,,,,,,,,,,,,,,,,1833.5835185842589,None,1835.0835409611464,None,1836.466649994254,None,flex,1836.466649994254,None,return,4.072286645881832,1836.550195903983,None,,,,,,,,,,,,,,,,,,,,,,,,,,,,,,,,,73,001,2023_Apr_14_1532,SpeechDraft1Carolyn_lessNoise_PlusLocalization,2021.2.3,59.919610958800206,
fit.wav,fit.mpg,fit,5,A,Pink_Noise_5_1.wav,Pink_Noise_5_2.wav,,,,,,,,,,,,,,,0,87,87,1,,,,,,,,,,,,,,,,,,,,,,,1840.6502689700574,None,1842.149894216098,None,1843.533618526999,None,"fit
",1843.533618526999,None,return,6.885494016110897,1843.6168531281874,None,,,,,,,,,,,,,,,,,,,,,,,,,,,,,,,,,73,001,2023_Apr_14_1532,SpeechDraft1Carolyn_lessNoise_PlusLocalization,2021.2.3,59.919610958800206,
coil.wav,coil.mpg,coil,5,AV,Pink_Noise_5_1.wav,Pink_Noise_5_2.wav,,,,,,,,,,,,,,,0,88,88,91,,,,,,,,,,,,,,,,,,,,,,,1850.533705724869,None,1852.049913609866,None,1853.4334287270904,None,coil,1853.4334287270904,None,return,4.06541238585487,1853.5170061192475,None,,,,,,,,,,,,,,,,,,,,,,,,,,,,,,,,,73,001,2023_Apr_14_1532,SpeechDraft1Carolyn_lessNoise_PlusLocalization,2021.2.3,59.919610958800206,
blink.wav,blink.mpg,blink,6,AV,Pink_Noise_6_1.wav,Pink_Noise_6_2.wav,,,,,,,,,,,,,,,0,89,89,90,,,,,,,,,,,,,,,,,,,,,,,1857.6003224509768,None,1859.0998237081803,None,1860.4836008390412,None,blink,1860.4836008390412,None,return,6.1114241243340075,1860.56693945406,None,,,,,,,,,,,,,,,,,,,,,,,,,,,,,,,,,73,001,2023_Apr_14_1532,SpeechDraft1Carolyn_lessNoise_PlusLocalization,2021.2.3,59.919610958800206,
strike.wav,strike.mpg,strike,6,AV,Pink_Noise_6_1.wav,Pink_Noise_6_2.wav,,,,,,,,,,,,,,,0,90,90,103,,,,,,,,,,,,,,,,,,,,,,,1866.7002415210009,None,1868.1999873169698,None,1869.5834417282604,None,strike,1869.5834417282604,None,return,4.147394803818315,1869.6669783340767,None,,,,,,,,,,,,,,,,,,,,,,,,,,,,,,,,,73,001,2023_Apr_14_1532,SpeechDraft1Carolyn_lessNoise_PlusLocalization,2021.2.3,59.919610958800206,
chase.wav,chase.mpg,chase,1,A,Pink_Noise_1_1.wav,Pink_Noise_1_2.wav,,,,,,,,,,,,,,,0,91,91,38,,,,,,,,,,,,,,,,,,,,,,,1873.8336086282507,None,1875.3332643308677,None,1876.7169514899142,None,chase,1876.7169514899142,None,return,2.7740955469198525,1876.80029196525,None,,,,,,,,,,,,,,,,,,,,,,,,,,,,,,,,,73,001,2023_Apr_14_1532,SpeechDraft1Carolyn_lessNoise_PlusLocalization,2021.2.3,59.919610958800206,
gym.wav,gym.mpg,gym,5,AV,Pink_Noise_5_1.wav,Pink_Noise_5_2.wav,,,,,,,,,,,,,,,0,92,92,117,,,,,,,,,,,,,,,,,,,,,,,1879.6002664440311,None,1881.100057985168,None,1882.483524500858,None,gym,1882.483524500858,None,return,2.871443072799593,1882.566904110834,None,,,,,,,,,,,,,,,,,,,,,,,,,,,,,,,,,73,001,2023_Apr_14_1532,SpeechDraft1Carolyn_lessNoise_PlusLocalization,2021.2.3,59.919610958800206,
grain.wav,grain.mpg,grain,3,A,Pink_Noise_3_1.wav,Pink_Noise_3_2.wav,,,,,,,,,,,,,,,0,93,93,7,,,,,,,,,,,,,,,,,,,,,,,1885.4670208999887,None,1886.9666809211485,None,1888.3504236731678,None,grand,1888.3504236731678,None,return,2.164715618826449,1888.4336402239278,None,,,,,,,,,,,,,,,,,,,,,,,,,,,,,,,,,73,001,2023_Apr_14_1532,SpeechDraft1Carolyn_lessNoise_PlusLocalization,2021.2.3,59.919610958800206,
creep.wav,creep.mpg,creep,4,AV,Pink_Noise_4_1.wav,Pink_Noise_4_2.wav,,,,,,,,,,,,,,,0,94,94,115,,,,,,,,,,,,,,,,,,,,,,,1890.6170101561584,None,1892.1166731300764,None,1893.5002128630877,None,creep,1893.5002128630877,None,return,2.3748018108308315,1893.5835407460108,None,,,,,,,,,,,,,,,,,,,,,,,,,,,,,,,,,73,001,2023_Apr_14_1532,SpeechDraft1Carolyn_lessNoise_PlusLocalization,2021.2.3,59.919610958800206,
fun.wav,fun.mpg,fun,3,AV,Pink_Noise_3_1.wav,Pink_Noise_3_2.wav,,,,,,,,,,,,,,,0,95,95,107,,,,,,,,,,,,,,,,,,,,,,,1895.9836233779788,None,1897.4833398112096,None,1898.866896728985,None,fun,1898.866896728985,None,return,6.992109004873782,1898.9502623700537,None,,,,,,,,,,,,,,,,,,,,,,,,,,,,,,,,,73,001,2023_Apr_14_1532,SpeechDraft1Carolyn_lessNoise_PlusLocalization,2021.2.3,59.919610958800206,
crypt.wav,crypt.mpg,crypt,4,AV,Pink_Noise_4_1.wav,Pink_Noise_4_2.wav,,,,,,,,,,,,,,,0,96,96,66,,,,,,,,,,,,,,,,,,,,,,,1905.9670198308304,None,1907.4835187518038,None,1908.866903317161,None,crypt,1908.866903317161,None,return,6.872240134049207,1908.9502738062292,None,,,,,,,,,,,,,,,,,,,,,,,,,,,,,,,,,73,001,2023_Apr_14_1532,SpeechDraft1Carolyn_lessNoise_PlusLocalization,2021.2.3,59.919610958800206,
fall.wav,fall.mpg,fall,3,A,Pink_Noise_3_1.wav,Pink_Noise_3_2.wav,,,,,,,,,,,,,,,0,97,97,25,,,,,,,,,,,,,,,,,,,,,,,1915.8503136909567,None,1917.3666321309283,None,1918.750245696865,None,ball,1918.750245696865,None,return,2.5728946728631854,1918.833566477988,None,,,,,,,,,,,,,,,,,,,,,,,,,,,,,,,,,73,001,2023_Apr_14_1532,SpeechDraft1Carolyn_lessNoise_PlusLocalization,2021.2.3,59.919610958800206,
cube.wav,cube.mpg,cube,5,AV,Pink_Noise_5_1.wav,Pink_Noise_5_2.wav,,,,,,,,,,,,,,,0,98,98,78,,,,,,,,,,,,,,,,,,,,,,,1921.433559175115,None,1922.9338072650135,None,1924.3169913850725,None,cube,1924.3169913850725,None,return,5.0140598034486175,1924.4003834878094,None,,,,,,,,,,,,,,,,,,,,,,,,,,,,,,,,,73,001,2023_Apr_14_1532,SpeechDraft1Carolyn_lessNoise_PlusLocalization,2021.2.3,59.919610958800206,
bench.wav,bench.mpg,bench,2,AV,Pink_Noise_2_1.wav,Pink_Noise_2_2.wav,,,,,,,,,,,,,,,0,99,99,60,,,,,,,,,,,,,,,,,,,,,,,1929.4347473909147,None,1931.0000387532637,None,1932.3836361840367,None,"bench
",1932.3836361840367,None,return,1.8033281504176557,1932.467045392841,None,,,,,,,,,,,,,,,,,,,,,,,,,,,,,,,,,73,001,2023_Apr_14_1532,SpeechDraft1Carolyn_lessNoise_PlusLocalization,2021.2.3,59.919610958800206,
fold.wav,fold.mpg,fold,2,A,Pink_Noise_2_1.wav,Pink_Noise_2_2.wav,,,,,,,,,,,,,,,0,100,100,46,,,,,,,,,,,,,,,,,,,,,,,1934.3002796121873,None,1935.8167765401304,None,1937.2006586422212,None,"fold
",1937.2006586422212,None,return,1.6187145477160811,1937.2836400098167,None,,,,,,,,,,,,,,,,,,,,,,,,,,,,,,,,,73,001,2023_Apr_14_1532,SpeechDraft1Carolyn_lessNoise_PlusLocalization,2021.2.3,59.919610958800206,
nine.wav,nine.mpg,nine,6,AV,Pink_Noise_6_1.wav,Pink_Noise_6_2.wav,,,,,,,,,,,,,,,0,101,101,63,,,,,,,,,,,,,,,,,,,,,,,1938.933634692803,None,1940.4499255041592,None,1941.8338102540001,None,nine,1941.8338102540001,None,return,1.8253625691868365,1941.9169778269716,None,,,,,,,,,,,,,,,,,,,,,,,,,,,,,,,,,73,001,2023_Apr_14_1532,SpeechDraft1Carolyn_lessNoise_PlusLocalization,2021.2.3,59.919610958800206,
foot.wav,foot.mpg,foot,3,AV,Pink_Noise_3_1.wav,Pink_Noise_3_2.wav,,,,,,,,,,,,,,,0,102,102,77,,,,,,,,,,,,,,,,,,,,,,,1943.7671360252425,None,1945.2833947981708,None,1946.6669321889058,None,"foot
",1946.6669321889058,None,return,1.9359457083046436,1946.750400543213,None,,,,,,,,,,,,,,,,,,,,,,,,,,,,,,,,,73,001,2023_Apr_14_1532,SpeechDraft1Carolyn_lessNoise_PlusLocalization,2021.2.3,59.919610958800206,
cloth.wav,cloth.mpg,cloth,2,AV,Pink_Noise_2_1.wav,Pink_Noise_2_2.wav,,,,,,,,,,,,,,,0,103,103,88,,,,,,,,,,,,,,,,,,,,,,,1948.717025551945,None,1950.2333650290966,None,1951.6169468099251,None,cloth,1951.6169468099251,None,return,5.609917875379324,1951.7004606430419,None,,,,,,,,,,,,,,,,,,,,,,,,,,,,,,,,,73,001,2023_Apr_14_1532,SpeechDraft1Carolyn_lessNoise_PlusLocalization,2021.2.3,59.919610958800206,
bill.wav,bill.mpg,bill,3,AV,Pink_Noise_3_1.wav,Pink_Noise_3_2.wav,,,,,,,,,,,,,,,0,104,104,72,,,,,,,,,,,,,,,,,,,,,,,1957.3337070830166,None,1958.8339032088406,None,1960.2170337252319,None,bill,1960.2170337252319,None,return,1.6821109750308096,1960.3003488881513,None,,,,,,,,,,,,,,,,,,,,,,,,,,,,,,,,,73,001,2023_Apr_14_1532,SpeechDraft1Carolyn_lessNoise_PlusLocalization,2021.2.3,59.919610958800206,
claw.wav,claw.mpg,claw,6,A,Pink_Noise_6_1.wav,Pink_Noise_6_2.wav,,,,,,,,,,,,,,,0,105,105,58,,,,,,,,,,,,,,,,,,,,,,,1962.000314031262,None,1963.5167335481383,None,1964.900354143232,None,ball,1964.900354143232,None,return,2.4626148673705757,1964.9837237610482,None,,,,,,,,,,,,,,,,,,,,,,,,,,,,,,,,,73,001,2023_Apr_14_1532,SpeechDraft1Carolyn_lessNoise_PlusLocalization,2021.2.3,59.919610958800206,
snake.wav,snake.mpg,snake,2,AV,Pink_Noise_2_1.wav,Pink_Noise_2_2.wav,,,,,,,,,,,,,,,0,106,106,79,,,,,,,,,,,,,,,,,,,,,,,1967.466999458149,None,1968.9833919778466,None,1970.367192065809,None,sbake,1970.367192065809,None,return,2.1160693340934813,1970.4503501569852,None,,,,,,,,,,,,,,,,,,,,,,,,,,,,,,,,,73,001,2023_Apr_14_1532,SpeechDraft1Carolyn_lessNoise_PlusLocalization,2021.2.3,59.919610958800206,
chin.wav,chin.mpg,chin,4,A,Pink_Noise_4_1.wav,Pink_Noise_4_2.wav,,,,,,,,,,,,,,,0,107,107,23,,,,,,,,,,,,,,,,,,,,,,,1972.5837057959288,None,1974.084705487825,None,1975.4671727879904,None,chin,1975.4671727879904,None,return,1.7759373118169606,1975.550406794995,None,,,,,,,,,,,,,,,,,,,,,,,,,,,,,,,,,73,001,2023_Apr_14_1532,SpeechDraft1Carolyn_lessNoise_PlusLocalization,2021.2.3,59.919610958800206,
swan.wav,swan.mpg,swan,5,AV,Pink_Noise_5_1.wav,Pink_Noise_5_2.wav,,,,,,,,,,,,,,,0,108,108,119,,,,,,,,,,,,,,,,,,,,,,,1977.3504033852369,None,1978.8668229398318,None,1980.2503629620187,None,"swine
",1980.2503629620187,None,return,4.152578512672335,1980.3337763040327,None,,,,,,,,,,,,,,,,,,,,,,,,,,,,,,,,,73,001,2023_Apr_14_1532,SpeechDraft1Carolyn_lessNoise_PlusLocalization,2021.2.3,59.919610958800206,
fox.wav,fox.mpg,fox,3,A,Pink_Noise_3_1.wav,Pink_Noise_3_2.wav,,,,,,,,,,,,,,,0,109,109,30,,,,,,,,,,,,,,,,,,,,,,,1984.5170956072398,None,1986.03344256524,None,1987.4170557940379,None,fox,1987.4170557940379,None,return,1.9620100129395723,1987.5003441139124,None,,,,,,,,,,,,,,,,,,,,,,,,,,,,,,,,,73,001,2023_Apr_14_1532,SpeechDraft1Carolyn_lessNoise_PlusLocalization,2021.2.3,59.919610958800206,
crawl.wav,crawl.mpg,crawl,1,AV,Pink_Noise_1_1.wav,Pink_Noise_1_2.wav,,,,,,,,,,,,,,,0,110,110,82,,,,,,,,,,,,,,,,,,,,,,,1989.4841237510554,None,1991.0168687650003,None,1992.4002664829604,None,crawl,1992.4002664829604,None,return,1.9786067632958293,1992.4837484159507,None,,,,,,,,,,,,,,,,,,,,,,,,,,,,,,,,,73,001,2023_Apr_14_1532,SpeechDraft1Carolyn_lessNoise_PlusLocalization,2021.2.3,59.919610958800206,
feed.wav,feed.mpg,feed,2,AV,Pink_Noise_2_1.wav,Pink_Noise_2_2.wav,,,,,,,,,,,,,,,0,111,111,105,,,,,,,,,,,,,,,,,,,,,,,1994.4838208518922,None,1996.000045674853,None,1997.3837791890837,None,feed,1997.3837791890837,None,return,2.9232984688133,1997.4671337390319,None,,,,,,,,,,,,,,,,,,,,,,,,,,,,,,,,,73,001,2023_Apr_14_1532,SpeechDraft1Carolyn_lessNoise_PlusLocalization,2021.2.3,59.919610958800206,
crew.wav,crew.mpg,crew,5,A,Pink_Noise_5_1.wav,Pink_Noise_5_2.wav,,,,,,,,,,,,,,,0,112,112,15,,,,,,,,,,,,,,,,,,,,,,,2000.417275520973,None,2001.9335227138363,None,2003.317069428973,None,groom,2003.317069428973,None,return,2.3259238391183317,2003.4004102991894,None,,,,,,,,,,,,,,,,,,,,,,,,,,,,,,,,,73,001,2023_Apr_14_1532,SpeechDraft1Carolyn_lessNoise_PlusLocalization,2021.2.3,59.919610958800206,
gun.wav,gun.mpg,gun,1,AV,Pink_Noise_1_1.wav,Pink_Noise_1_2.wav,,,,,,,,,,,,,,,0,113,113,67,,,,,,,,,,,,,,,,,,,,,,,2005.7504173000343,None,2007.28346916195,None,2008.6670384048484,None,gun,2008.6670384048484,None,return,2.7118611806072295,2008.7504950682633,None,,,,,,,,,,,,,,,,,,,,,,,,,,,,,,,,,73,001,2023_Apr_14_1532,SpeechDraft1Carolyn_lessNoise_PlusLocalization,2021.2.3,59.919610958800206,
clad.wav,clad.mpg,clad,1,A,Pink_Noise_1_1.wav,Pink_Noise_1_2.wav,,,,,,,,,,,,,,,0,114,114,44,,,,,,,,,,,,,,,,,,,,,,,2011.4838716471568,None,2013.0337542421184,None,2014.418439431116,None,clad,2014.418439431116,None,return,2.5538611919619143,2014.5004709782079,None,,,,,,,,,,,,,,,,,,,,,,,,,,,,,,,,,73,001,2023_Apr_14_1532,SpeechDraft1Carolyn_lessNoise_PlusLocalization,2021.2.3,59.919610958800206,
cop.wav,cop.mpg,cop,6,A,Pink_Noise_6_1.wav,Pink_Noise_6_2.wav,,,,,,,,,,,,,,,0,115,115,57,,,,,,,,,,,,,,,,,,,,,,,2017.0837366320193,None,2018.6001424770802,None,2019.983757021837,None,top,2019.983757021837,None,return,3.7872664309106767,2020.0670891329646,None,,,,,,,,,,,,,,,,,,,,,,,,,,,,,,,,,73,001,2023_Apr_14_1532,SpeechDraft1Carolyn_lessNoise_PlusLocalization,2021.2.3,59.919610958800206,
dawn.wav,dawn.mpg,dawn,4,A,Pink_Noise_4_1.wav,Pink_Noise_4_2.wav,,,,,,,,,,,,,,,0,116,116,22,,,,,,,,,,,,,,,,,,,,,,,2023.8837974038906,None,2025.4002178269438,None,2026.7837712629698,None,dawn,2026.7837712629698,None,return,1.2751324851997197,2026.867208849173,None,,,,,,,,,,,,,,,,,,,,,,,,,,,,,,,,,73,001,2023_Apr_14_1532,SpeechDraft1Carolyn_lessNoise_PlusLocalization,2021.2.3,59.919610958800206,
glove.wav,glove.mpg,glove,2,AV,Pink_Noise_2_1.wav,Pink_Noise_2_2.wav,,,,,,,,,,,,,,,0,117,117,98,,,,,,,,,,,,,,,,,,,,,,,2028.167132882867,None,2029.700289154891,None,2031.0837106481194,None,"glove
",2031.0837106481194,None,return,1.9511887859553099,2031.1671645799652,None,,,,,,,,,,,,,,,,,,,,,,,,,,,,,,,,,73,001,2023_Apr_14_1532,SpeechDraft1Carolyn_lessNoise_PlusLocalization,2021.2.3,59.919610958800206,
fish.wav,fish.mpg,fish,2,AV,Pink_Noise_2_1.wav,Pink_Noise_2_2.wav,,,,,,,,,,,,,,,0,118,118,64,,,,,,,,,,,,,,,,,,,,,,,2033.1504530492239,None,2034.6667542778887,None,2036.0503244372085,None,"fish
",2036.0503244372085,None,return,4.15251859696582,2036.1338359918445,None,,,,,,,,,,,,,,,,,,,,,,,,,,,,,,,,,73,001,2023_Apr_14_1532,SpeechDraft1Carolyn_lessNoise_PlusLocalization,2021.2.3,59.919610958800206,
blunt.wav,blunt.mpg,blunt,6,AV,Pink_Noise_6_1.wav,Pink_Noise_6_2.wav,,,,,,,,,,,,,,,0,119,119,62,,,,,,,,,,,,,,,,,,,,,,,2040.3172275419347,None,2041.850273699034,None,2043.2337539098226,None,"blunt
",2043.2337539098226,None,return,4.585171739105135,2043.3171484940685,None,,,,,,,,,,,,,,,,,,,,,,,,,,,,,,,,,73,001,2023_Apr_14_1532,SpeechDraft1Carolyn_lessNoise_PlusLocalization,2021.2.3,59.919610958800206,
,,,,,,,,,,,,,,,,,,,,,,,,,,,,,,,,,,,,,,,,,,,,,,,,,,,,,,,,,,,,,,,,,,space,15.652582050301135,2048.0337677658536,None,,,,,,,,,,,,,,,,,,,,,,,73,001,2023_Apr_14_1532,SpeechDraft1Carolyn_lessNoise_PlusLocalization,2021.2.3,59.919610958800206,
,,,,,,,,midRight,13.0,3,ch1Sound_localizationTask.wav,13.0,"(1142, 878)","(182, -202)",190,-338,,,,,,,,,0,0,0,5,,,,,,,,,,,,,,,,,,,,,,,,,,,,,,,,,,,,,,,,,,2048.0337677658536,None,2063.733576915227,None,2064.8335456941277,None,2065.767084601801,None,1.4984126984126984,1.9688420589081943,2065.767084601801,None,,,,,,,,,,,73,001,2023_Apr_14_1532,SpeechDraft1Carolyn_lessNoise_PlusLocalization,2021.2.3,59.919610958800206,
,,,,,,,,farRight,19.1,4,ch1Sound_localizationTask.wav,19.1,"(1237, 878)","(277,-202)",285,-338,,,,,,,,,0,1,1,6,,,,,,,,,,,,,,,,,,,,,,,,,,,,,,,,,,,,,,,,,,,,2067.7347238268703,None,2068.833682596218,None,2069.766906343866,None,1.82010582010582,1.5341789280064404,2069.766906343866,None,,,,,,,,,,,73,001,2023_Apr_14_1532,SpeechDraft1Carolyn_lessNoise_PlusLocalization,2021.2.3,59.919610958800206,
,,,,,,,,midLeft,-13.0,2,ch1Sound_localizationTask.wav,-13.0,"(762, 878)","(-198,-202)",-190,-338,,,,,,,,,0,2,2,1,,,,,,,,,,,,,,,,,,,,,,,,,,,,,,,,,,,,,,,,,,,,2071.3171746758744,None,2072.4169994541444,None,2073.35017001722,None,1.2417989417989417,2.0331280697137117,2073.35017001722,None,,,,,,,,,,,73,001,2023_Apr_14_1532,SpeechDraft1Carolyn_lessNoise_PlusLocalization,2021.2.3,59.919610958800206,
,,,,,,,,midLeft,-13.0,2,ch1Sound_localizationTask.wav,-13.0,"(762, 878)","(-198,-202)",-190,-338,,,,,,,,,0,3,3,1,,,,,,,,,,,,,,,,,,,,,,,,,,,,,,,,,,,,,,,,,,,,2075.400623491034,None,2076.5002299682237,None,2077.433690226171,None,1.2994708994708994,0.5494697690010071,2077.433690226171,None,,,,,,,,,,,73,001,2023_Apr_14_1532,SpeechDraft1Carolyn_lessNoise_PlusLocalization,2021.2.3,59.919610958800206,
,,,,,,,,center,0.0,6,ch1Sound_localizationTask.wav,0.0,"(952, 878)","(-8,-202)",0,-338,,,,,,,,,0,4,4,3,,,,,,,,,,,,,,,,,,,,,,,,,,,,,,,,,,,,,,,,,,,,2077.98466813704,None,2079.0835938560776,None,2080.016997553874,None,1.4592592592592593,1.1662745838984847,2080.016997553874,None,,,,,,,,,,,73,001,2023_Apr_14_1532,SpeechDraft1Carolyn_lessNoise_PlusLocalization,2021.2.3,59.919610958800206,
,,,,,,,,center,0.0,6,ch1Sound_localizationTask.wav,0.0,"(952, 878)","(-8,-202)",0,-338,,,,,,,,,0,5,5,3,,,,,,,,,,,,,,,,,,,,,,,,,,,,,,,,,,,,,,,,,,,,2081.185296496842,None,2082.300101622939,None,2083.2171307848766,None,1.502116402116402,1.2662507849745452,2083.2171307848766,None,,,,,,,,,,,73,001,2023_Apr_14_1532,SpeechDraft1Carolyn_lessNoise_PlusLocalization,2021.2.3,59.919610958800206,
,,,,,,,,center,0.0,6,ch1Sound_localizationTask.wav,0.0,"(952, 878)","(-8,-202)",0,-338,,,,,,,,,0,6,6,3,,,,,,,,,,,,,,,,,,,,,,,,,,,,,,,,,,,,,,,,,,,,2084.4842926021665,None,2085.5836422368884,None,2086.5168101061136,None,1.4682539682539684,0.8158806459978223,2086.5168101061136,None,,,,,,,,,,,73,001,2023_Apr_14_1532,SpeechDraft1Carolyn_lessNoise_PlusLocalization,2021.2.3,59.919610958800206,
,,,,,,,,midLeft,-13.0,2,ch1Sound_localizationTask.wav,-13.0,"(762, 878)","(-198,-202)",-190,-338,,,,,,,,,1,0,7,1,,,,,,,,,,,,,,,,,,,,,,,,,,,,,,,,,,,,,,,,,,,,2087.3350387159735,None,2088.450248895213,None,2089.3667744649574,None,1.3455026455026455,0.8331262296997011,2089.3667744649574,None,,,,,,,,,,,73,001,2023_Apr_14_1532,SpeechDraft1Carolyn_lessNoise_PlusLocalization,2021.2.3,59.919610958800206,
,,,,,,,,farRight,19.1,4,ch1Sound_localizationTask.wav,19.1,"(1237, 878)","(277,-202)",285,-338,,,,,,,,,1,1,8,6,,,,,,,,,,,,,,,,,,,,,,,,,,,,,,,,,,,,,,,,,,,,2090.2009344608523,None,2091.300325814169,None,2092.233612478245,None,1.9132275132275132,1.098778038751334,2092.233612478245,None,,,,,,,,,,,73,001,2023_Apr_14_1532,SpeechDraft1Carolyn_lessNoise_PlusLocalization,2021.2.3,59.919610958800206,
,,,,,,,,farLeft,-19.1,5,ch1Sound_localizationTask.wav,-19.1,"(667, 878)","(-293,-202)",-285,-338,,,,,,,,,1,2,9,0,,,,,,,,,,,,,,,,,,,,,,,,,,,,,,,,,,,,,,,,,,,,2093.3340290128253,None,2094.4335369411856,None,2095.3668798268773,None,1.344973544973545,0.9487605458125472,2095.3668798268773,None,,,,,,,,,,,73,001,2023_Apr_14_1532,SpeechDraft1Carolyn_lessNoise_PlusLocalization,2021.2.3,59.919610958800206,
,,,,,,,,nearRight,6.5,0,ch1Sound_localizationTask.wav,6.5,"(1047, 878)","(87, -202)",95,-338,,,,,,,,,1,3,10,4,,,,,,,,,,,,,,,,,,,,,,,,,,,,,,,,,,,,,,,,,,,,2096.3173208180815,None,2097.4169534849934,None,2098.3502697609365,None,1.5915343915343916,0.9021153869107366,2098.3502697609365,None,,,,,,,,,,,73,001,2023_Apr_14_1532,SpeechDraft1Carolyn_lessNoise_PlusLocalization,2021.2.3,59.919610958800206,
,,,,,,,,midLeft,-13.0,2,ch1Sound_localizationTask.wav,-13.0,"(762, 878)","(-198,-202)",-190,-338,,,,,,,,,1,4,11,1,,,,,,,,,,,,,,,,,,,,,,,,,,,,,,,,,,,,,,,,,,,,2099.267250576988,None,2100.367014192976,None,2101.3002046812326,None,1.2645502645502646,1.5165889291092753,2101.3002046812326,None,,,,,,,,,,,73,001,2023_Apr_14_1532,SpeechDraft1Carolyn_lessNoise_PlusLocalization,2021.2.3,59.919610958800206,
,,,,,,,,midLeft,-13.0,2,ch1Sound_localizationTask.wav,-13.0,"(762, 878)","(-198,-202)",-190,-338,,,,,,,,,1,5,12,1,,,,,,,,,,,,,,,,,,,,,,,,,,,,,,,,,,,,,,,,,,,,2102.8180595450103,None,2103.9169636531733,None,2104.8504041181877,None,1.4185185185185185,0.715795342810452,2104.8504041181877,None,,,,,,,,,,,73,001,2023_Apr_14_1532,SpeechDraft1Carolyn_lessNoise_PlusLocalization,2021.2.3,59.919610958800206,
,,,,,,,,midRight,13.0,3,ch1Sound_localizationTask.wav,13.0,"(1142, 878)","(182, -202)",190,-338,,,,,,,,,1,6,13,5,,,,,,,,,,,,,,,,,,,,,,,,,,,,,,,,,,,,,,,,,,,,2105.567838355899,None,2106.666988622863,None,2107.600232975092,None,1.6216931216931219,1.1672962568700314,2107.600232975092,None,,,,,,,,,,,73,001,2023_Apr_14_1532,SpeechDraft1Carolyn_lessNoise_PlusLocalization,2021.2.3,59.919610958800206,
,,,,,,,,midRight,13.0,3,ch1Sound_localizationTask.wav,13.0,"(1142, 878)","(182, -202)",190,-338,,,,,,,,,2,0,14,5,,,,,,,,,,,,,,,,,,,,,,,,,,,,,,,,,,,,,,,,,,,,2108.7839680588804,None,2109.883658534847,None,2110.8172331680544,None,1.6031746031746033,0.46646323380991817,2110.8172331680544,None,,,,,,,,,,,73,001,2023_Apr_14_1532,SpeechDraft1Carolyn_lessNoise_PlusLocalization,2021.2.3,59.919610958800206,
,,,,,,,,farRight,19.1,4,ch1Sound_localizationTask.wav,19.1,"(1237, 878)","(277,-202)",285,-338,,,,,,,,,2,1,15,6,,,,,,,,,,,,,,,,,,,,,,,,,,,,,,,,,,,,,,,,,,,,2111.2847620481625,None,2112.3836281909607,None,2113.3171071759425,None,1.7894179894179896,0.8171697766520083,2113.3171071759425,None,,,,,,,,,,,73,001,2023_Apr_14_1532,SpeechDraft1Carolyn_lessNoise_PlusLocalization,2021.2.3,59.919610958800206,
,,,,,,,,farRight,19.1,4,ch1Sound_localizationTask.wav,19.1,"(1237, 878)","(277,-202)",285,-338,,,,,,,,,2,2,16,6,,,,,,,,,,,,,,,,,,,,,,,,,,,,,,,,,,,,,,,,,,,,2114.150591813959,None,2115.250374821946,None,2116.183647136204,None,1.651851851851852,0.7478610733523965,2116.183647136204,None,,,,,,,,,,,73,001,2023_Apr_14_1532,SpeechDraft1Carolyn_lessNoise_PlusLocalization,2021.2.3,59.919610958800206,
,,,,,,,,center,0.0,6,ch1Sound_localizationTask.wav,0.0,"(952, 878)","(-8,-202)",0,-338,,,,,,,,,2,3,17,3,,,,,,,,,,,,,,,,,,,,,,,,,,,,,,,,,,,,,,,,,,,,2116.9341885731556,None,2118.033535060007,None,2118.9669416360557,None,1.4264550264550264,1.0671076108701527,2118.9669416360557,None,,,,,,,,,,,73,001,2023_Apr_14_1532,SpeechDraft1Carolyn_lessNoise_PlusLocalization,2021.2.3,59.919610958800206,
,,,,,,,,center,0.0,6,ch1Sound_localizationTask.wav,0.0,"(952, 878)","(-8,-202)",0,-338,,,,,,,,,2,4,18,3,,,,,,,,,,,,,,,,,,,,,,,,,,,,,,,,,,,,,,,,,,,,2120.0345818288624,None,2121.133659964893,None,2122.0669327429496,None,1.4873015873015873,0.6499672634527087,2122.0669327429496,None,,,,,,,,,,,73,001,2023_Apr_14_1532,SpeechDraft1Carolyn_lessNoise_PlusLocalization,2021.2.3,59.919610958800206,
,,,,,,,,nearLeft,-6.5,1,ch1Sound_localizationTask.wav,-6.5,"(857, 878)","(-103,-202)",-95,-338,,,,,,,,,2,5,19,2,,,,,,,,,,,,,,,,,,,,,,,,,,,,,,,,,,,,,,,,,,,,2122.7339362618513,None,2123.8336359360255,None,2124.7671049810015,None,1.3682539682539683,0.7497767340391874,2124.7671049810015,None,,,,,,,,,,,73,001,2023_Apr_14_1532,SpeechDraft1Carolyn_lessNoise_PlusLocalization,2021.2.3,59.919610958800206,
,,,,,,,,farRight,19.1,4,ch1Sound_localizationTask.wav,19.1,"(1237, 878)","(277,-202)",285,-338,,,,,,,,,2,6,20,6,,,,,,,,,,,,,,,,,,,,,,,,,,,,,,,,,,,,,,,,,,,,2125.5176965449937,None,2126.6170141720213,None,2127.550273105968,None,1.6804232804232804,0.7485484629869461,2127.550273105968,None,,,,,,,,,,,73,001,2023_Apr_14_1532,SpeechDraft1Carolyn_lessNoise_PlusLocalization,2021.2.3,59.919610958800206,
,,,,,,,,farLeft,-19.1,5,ch1Sound_localizationTask.wav,-19.1,"(667, 878)","(-293,-202)",-285,-338,,,,,,,,,3,0,21,0,,,,,,,,,,,,,,,,,,,,,,,,,,,,,,,,,,,,,,,,,,,,2128.3009976339526,None,2129.4002483040094,None,2130.3336237510666,None,1.326984126984127,0.8164358790963888,2130.3336237510666,None,,,,,,,,,,,73,001,2023_Apr_14_1532,SpeechDraft1Carolyn_lessNoise_PlusLocalization,2021.2.3,59.919610958800206,
,,,,,,,,farLeft,-19.1,5,ch1Sound_localizationTask.wav,-19.1,"(667, 878)","(-293,-202)",-285,-338,,,,,,,,,3,1,22,0,,,,,,,,,,,,,,,,,,,,,,,,,,,,,,,,,,,,,,,,,,,,2131.151933623012,None,2132.2670452571474,None,2133.1837855498306,None,1.2195767195767195,1.0331807476468384,2133.1837855498306,None,,,,,,,,,,,73,001,2023_Apr_14_1532,SpeechDraft1Carolyn_lessNoise_PlusLocalization,2021.2.3,59.919610958800206,
,,,,,,,,midLeft,-13.0,2,ch1Sound_localizationTask.wav,-13.0,"(762, 878)","(-198,-202)",-190,-338,,,,,,,,,3,2,23,1,,,,,,,,,,,,,,,,,,,,,,,,,,,,,,,,,,,,,,,,,,,,2134.218768842984,None,2135.333661761135,None,2136.2502952232026,None,1.3148148148148149,0.7011797344312072,2136.2502952232026,None,,,,,,,,,,,73,001,2023_Apr_14_1532,SpeechDraft1Carolyn_lessNoise_PlusLocalization,2021.2.3,59.919610958800206,
,,,,,,,,nearLeft,-6.5,1,ch1Sound_localizationTask.wav,-6.5,"(857, 878)","(-103,-202)",-95,-338,,,,,,,,,3,3,24,2,,,,,,,,,,,,,,,,,,,,,,,,,,,,,,,,,,,,,,,,,,,,2136.9674698002636,None,2138.0669213738292,None,2139.000425545033,None,1.4052910052910053,0.949894430115819,2139.000425545033,None,,,,,,,,,,,73,001,2023_Apr_14_1532,SpeechDraft1Carolyn_lessNoise_PlusLocalization,2021.2.3,59.919610958800206,
,,,,,,,,center,0.0,6,ch1Sound_localizationTask.wav,0.0,"(952, 878)","(-8,-202)",0,-338,,,,,,,,,3,4,25,3,,,,,,,,,,,,,,,,,,,,,,,,,,,,,,,,,,,,,,,,,,,,2139.9674369920976,None,2141.067034434993,None,2142.0003599459305,None,1.4957671957671956,0.7660150718875229,2142.0003599459305,None,,,,,,,,,,,73,001,2023_Apr_14_1532,SpeechDraft1Carolyn_lessNoise_PlusLocalization,2021.2.3,59.919610958800206,
,,,,,,,,midLeft,-13.0,2,ch1Sound_localizationTask.wav,-13.0,"(762, 878)","(-198,-202)",-190,-338,,,,,,,,,3,5,26,1,,,,,,,,,,,,,,,,,,,,,,,,,,,,,,,,,,,,,,,,,,,,2142.767819377128,None,2143.866927566938,None,2144.8004862950183,None,1.3534391534391534,1.0164563129656017,2144.8004862950183,None,,,,,,,,,,,73,001,2023_Apr_14_1532,SpeechDraft1Carolyn_lessNoise_PlusLocalization,2021.2.3,59.919610958800206,
,,,,,,,,midRight,13.0,3,ch1Sound_localizationTask.wav,13.0,"(1142, 878)","(182, -202)",190,-338,,,,,,,,,3,6,27,5,,,,,,,,,,,,,,,,,,,,,,,,,,,,,,,,,,,,,,,,,,,,2145.818501711823,None,2146.9337213882245,None,2147.850340189878,None,1.6333333333333333,0.9003161038272083,2147.850340189878,None,,,,,,,,,,,73,001,2023_Apr_14_1532,SpeechDraft1Carolyn_lessNoise_PlusLocalization,2021.2.3,59.919610958800206,
,,,,,,,,farLeft,-19.1,5,ch1Sound_localizationTask.wav,-19.1,"(667, 878)","(-293,-202)",-285,-338,,,,,,,,,4,0,28,0,,,,,,,,,,,,,,,,,,,,,,,,,,,,,,,,,,,,,,,,,,,,2148.7517842990346,None,2149.8670111801475,None,2150.783768711146,None,1.4010582010582011,0.969334555324167,2150.783768711146,None,,,,,,,,,,,73,001,2023_Apr_14_1532,SpeechDraft1Carolyn_lessNoise_PlusLocalization,2021.2.3,59.919610958800206,
,,,,,,,,midRight,13.0,3,ch1Sound_localizationTask.wav,13.0,"(1142, 878)","(182, -202)",190,-338,,,,,,,,,4,1,29,5,,,,,,,,,,,,,,,,,,,,,,,,,,,,,,,,,,,,,,,,,,,,2151.767523346003,None,2152.8672015718184,None,2153.8003477072343,None,1.5931216931216932,1.2999272723682225,2153.8003477072343,None,,,,,,,,,,,73,001,2023_Apr_14_1532,SpeechDraft1Carolyn_lessNoise_PlusLocalization,2021.2.3,59.919610958800206,
,,,,,,,,midRight,13.0,3,ch1Sound_localizationTask.wav,13.0,"(1142, 878)","(182, -202)",190,-338,,,,,,,,,4,2,30,5,,,,,,,,,,,,,,,,,,,,,,,,,,,,,,,,,,,,,,,,,,,,2155.1009914581664,None,2156.2005796050653,None,2157.133604342118,None,1.5423280423280423,0.4847139660269022,2157.133604342118,None,,,,,,,,,,,73,001,2023_Apr_14_1532,SpeechDraft1Carolyn_lessNoise_PlusLocalization,2021.2.3,59.919610958800206,
,,,,,,,,nearLeft,-6.5,1,ch1Sound_localizationTask.wav,-6.5,"(857, 878)","(-103,-202)",-95,-338,,,,,,,,,4,3,31,2,,,,,,,,,,,,,,,,,,,,,,,,,,,,,,,,,,,,,,,,,,,,2157.6341379508376,None,2158.7337531121448,None,2159.6670556119643,None,1.444973544973545,0.6498595890589058,2159.6670556119643,None,,,,,,,,,,,73,001,2023_Apr_14_1532,SpeechDraft1Carolyn_lessNoise_PlusLocalization,2021.2.3,59.919610958800206,
,,,,,,,,nearRight,6.5,0,ch1Sound_localizationTask.wav,6.5,"(1047, 878)","(87, -202)",95,-338,,,,,,,,,4,4,32,4,,,,,,,,,,,,,,,,,,,,,,,,,,,,,,,,,,,,,,,,,,,,2160.3177830548957,None,2161.4172156462446,None,2162.350289788097,None,1.5322751322751322,0.717594635207206,2162.350289788097,None,,,,,,,,,,,73,001,2023_Apr_14_1532,SpeechDraft1Carolyn_lessNoise_PlusLocalization,2021.2.3,59.919610958800206,
,,,,,,,,nearLeft,-6.5,1,ch1Sound_localizationTask.wav,-6.5,"(857, 878)","(-103,-202)",-95,-338,,,,,,,,,4,5,33,2,,,,,,,,,,,,,,,,,,,,,,,,,,,,,,,,,,,,,,,,,,,,2163.083954066038,None,2164.1837089341134,None,2165.1169459419325,None,1.435978835978836,0.5495478208176792,2165.1169459419325,None,,,,,,,,,,,73,001,2023_Apr_14_1532,SpeechDraft1Carolyn_lessNoise_PlusLocalization,2021.2.3,59.919610958800206,
,,,,,,,,nearLeft,-6.5,1,ch1Sound_localizationTask.wav,-6.5,"(857, 878)","(-103,-202)",-95,-338,,,,,,,,,4,6,34,2,,,,,,,,,,,,,,,,,,,,,,,,,,,,,,,,,,,,,,,,,,,,2165.6680891881697,None,2166.766996589955,None,2167.7003646329977,None,1.4603174603174602,0.4344100710004568,2167.7003646329977,None,,,,,,,,,,,73,001,2023_Apr_14_1532,SpeechDraft1Carolyn_lessNoise_PlusLocalization,2021.2.3,59.919610958800206,
,,,,,,,,farLeft,-19.1,5,ch1Sound_localizationTask.wav,-19.1,"(667, 878)","(-293,-202)",-285,-338,,,,,,,,,5,0,35,0,,,,,,,,,,,,,,,,,,,,,,,,,,,,,,,,,,,,,,,,,,,,2168.1506646419875,None,2169.2504675099626,None,2170.183766948059,None,1.2873015873015872,1.332589618396014,2170.183766948059,None,,,,,,,,,,,73,001,2023_Apr_14_1532,SpeechDraft1Carolyn_lessNoise_PlusLocalization,2021.2.3,59.919610958800206,
,,,,,,,,midRight,13.0,3,ch1Sound_localizationTask.wav,13.0,"(1142, 878)","(182, -202)",190,-338,,,,,,,,,5,1,36,5,,,,,,,,,,,,,,,,,,,,,,,,,,,,,,,,,,,,,,,,,,,,2171.5179735720158,None,2172.6169845699333,None,2173.550334034022,None,1.6169312169312169,0.9991554166190326,2173.550334034022,None,,,,,,,,,,,73,001,2023_Apr_14_1532,SpeechDraft1Carolyn_lessNoise_PlusLocalization,2021.2.3,59.919610958800206,
,,,,,,,,center,0.0,6,ch1Sound_localizationTask.wav,0.0,"(952, 878)","(-8,-202)",0,-338,,,,,,,,,5,2,37,3,,,,,,,,,,,,,,,,,,,,,,,,,,,,,,,,,,,,,,,,,,,,2174.5508451950736,None,2175.650277800858,None,2176.583682427183,None,1.5047619047619047,1.0330059840343893,2176.583682427183,None,,,,,,,,,,,73,001,2023_Apr_14_1532,SpeechDraft1Carolyn_lessNoise_PlusLocalization,2021.2.3,59.919610958800206,
,,,,,,,,nearRight,6.5,0,ch1Sound_localizationTask.wav,6.5,"(1047, 878)","(87, -202)",95,-338,,,,,,,,,5,3,38,4,,,,,,,,,,,,,,,,,,,,,,,,,,,,,,,,,,,,,,,,,,,,2177.618487779051,None,2178.7338558021,None,2179.650365041103,None,1.5507936507936508,0.7163324160501361,2179.650365041103,None,,,,,,,,,,,73,001,2023_Apr_14_1532,SpeechDraft1Carolyn_lessNoise_PlusLocalization,2021.2.3,59.919610958800206,
,,,,,,,,nearLeft,-6.5,1,ch1Sound_localizationTask.wav,-6.5,"(857, 878)","(-103,-202)",-95,-338,,,,,,,,,5,4,39,2,,,,,,,,,,,,,,,,,,,,,,,,,,,,,,,,,,,,,,,,,,,,2180.367721201852,None,2181.4670861782506,None,2182.4005124960095,None,1.41005291005291,0.5327572128735483,2182.4005124960095,None,,,,,,,,,,,73,001,2023_Apr_14_1532,SpeechDraft1Carolyn_lessNoise_PlusLocalization,2021.2.3,59.919610958800206,
,,,,,,,,farRight,19.1,4,ch1Sound_localizationTask.wav,19.1,"(1237, 878)","(277,-202)",285,-338,,,,,,,,,5,5,40,6,,,,,,,,,,,,,,,,,,,,,,,,,,,,,,,,,,,,,,,,,,,,2182.9349646680057,None,2184.0337442858145,None,2184.9670141460374,None,1.7296296296296296,0.966147992759943,2184.9670141460374,None,,,,,,,,,,,73,001,2023_Apr_14_1532,SpeechDraft1Carolyn_lessNoise_PlusLocalization,2021.2.3,59.919610958800206,
,,,,,,,,farRight,19.1,4,ch1Sound_localizationTask.wav,19.1,"(1237, 878)","(277,-202)",285,-338,,,,,,,,,5,6,41,6,,,,,,,,,,,,,,,,,,,,,,,,,,,,,,,,,,,,,,,,,,,,2185.9341349862516,None,2187.033714558929,None,2187.9671276998706,None,1.7,0.48286901973187923,2187.9671276998706,None,,,,,,,,,,,73,001,2023_Apr_14_1532,SpeechDraft1Carolyn_lessNoise_PlusLocalization,2021.2.3,59.919610958800206,
,,,,,,,,farLeft,-19.1,5,ch1Sound_localizationTask.wav,-19.1,"(667, 878)","(-293,-202)",-285,-338,,,,,,,,,6,0,42,0,,,,,,,,,,,,,,,,,,,,,,,,,,,,,,,,,,,,,,,,,,,,2188.450688343961,None,2189.550404306967,None,2190.4837700831704,None,1.2857142857142856,2.5329911122098565,2190.4837700831704,None,,,,,,,,,,,73,001,2023_Apr_14_1532,SpeechDraft1Carolyn_lessNoise_PlusLocalization,2021.2.3,59.919610958800206,
,,,,,,,,nearLeft,-6.5,1,ch1Sound_localizationTask.wav,-6.5,"(857, 878)","(-103,-202)",-95,-338,,,,,,,,,6,1,43,2,,,,,,,,,,,,,,,,,,,,,,,,,,,,,,,,,,,,,,,,,,,,2193.018078882247,None,2194.1171602262184,None,2195.0505142612383,None,1.4396825396825397,1.0827916748821735,2195.0505142612383,None,,,,,,,,,,,73,001,2023_Apr_14_1532,SpeechDraft1Carolyn_lessNoise_PlusLocalization,2021.2.3,59.919610958800206,
,,,,,,,,midLeft,-13.0,2,ch1Sound_localizationTask.wav,-13.0,"(762, 878)","(-198,-202)",-190,-338,,,,,,,,,6,2,44,1,,,,,,,,,,,,,,,,,,,,,,,,,,,,,,,,,,,,,,,,,,,,2196.134713975247,None,2197.2337140012532,None,2198.1670300611295,None,1.361904761904762,0.5159512409009039,2198.1670300611295,None,,,,,,,,,,,73,001,2023_Apr_14_1532,SpeechDraft1Carolyn_lessNoise_PlusLocalization,2021.2.3,59.919610958800206,
,,,,,,,,nearLeft,-6.5,1,ch1Sound_localizationTask.wav,-6.5,"(857, 878)","(-103,-202)",-95,-338,,,,,,,,,6,3,45,2,,,,,,,,,,,,,,,,,,,,,,,,,,,,,,,,,,,,,,,,,,,,2198.684152576141,None,2199.7837284961715,None,2200.7169909048826,None,1.447089947089947,0.7661907551810145,2200.7169909048826,None,,,,,,,,,,,73,001,2023_Apr_14_1532,SpeechDraft1Carolyn_lessNoise_PlusLocalization,2021.2.3,59.919610958800206,
,,,,,,,,nearRight,6.5,0,ch1Sound_localizationTask.wav,6.5,"(1047, 878)","(87, -202)",95,-338,,,,,,,,,6,4,46,4,,,,,,,,,,,,,,,,,,,,,,,,,,,,,,,,,,,,,,,,,,,,2201.5006563849747,None,2202.600477919914,None,2203.533619976137,None,1.5703703703703704,0.6994990543462336,2203.533619976137,None,,,,,,,,,,,73,001,2023_Apr_14_1532,SpeechDraft1Carolyn_lessNoise_PlusLocalization,2021.2.3,59.919610958800206,
,,,,,,,,nearRight,6.5,0,ch1Sound_localizationTask.wav,6.5,"(1047, 878)","(87, -202)",95,-338,,,,,,,,,6,5,47,4,,,,,,,,,,,,,,,,,,,,,,,,,,,,,,,,,,,,,,,,,,,,2204.2349621439353,None,2205.333852033131,None,2206.2670161789283,None,1.5084656084656085,0.5498078926466405,2206.2670161789283,None,,,,,,,,,,,73,001,2023_Apr_14_1532,SpeechDraft1Carolyn_lessNoise_PlusLocalization,2021.2.3,59.919610958800206,
,,,,,,,,farRight,19.1,4,ch1Sound_localizationTask.wav,19.1,"(1237, 878)","(277,-202)",285,-338,,,,,,,,,6,6,48,6,,,,,,,,,,,,,,,,,,,,,,,,,,,,,,,,,,,,,,,,,,,,2206.817832183093,None,2207.9171627429314,None,2208.8504084502347,None,1.7343915343915344,1.0489447112195194,2208.8504084502347,None,,,,,,,,,,,73,001,2023_Apr_14_1532,SpeechDraft1Carolyn_lessNoise_PlusLocalization,2021.2.3,59.919610958800206,
,,,,,,,,farLeft,-19.1,5,ch1Sound_localizationTask.wav,-19.1,"(667, 878)","(-293,-202)",-285,-338,,,,,,,,,7,0,49,0,,,,,,,,,,,,,,,,,,,,,,,,,,,,,,,,,,,,,,,,,,,,2209.901686426252,None,2211.01710219495,None,2211.9336857730523,None,1.3703703703703702,1.2183076292276382,2211.9336857730523,None,,,,,,,,,,,73,001,2023_Apr_14_1532,SpeechDraft1Carolyn_lessNoise_PlusLocalization,2021.2.3,59.919610958800206,
,,,,,,,,nearRight,6.5,0,ch1Sound_localizationTask.wav,6.5,"(1047, 878)","(87, -202)",95,-338,,,,,,,,,7,1,50,4,,,,,,,,,,,,,,,,,,,,,,,,,,,,,,,,,,,,,,,,,,,,2213.167546270881,None,2214.267136852257,None,2215.2005076669157,None,1.4952380952380953,1.1159733580425382,2215.2005076669157,None,,,,,,,,,,,73,001,2023_Apr_14_1532,SpeechDraft1Carolyn_lessNoise_PlusLocalization,2021.2.3,59.919610958800206,
,,,,,,,,center,0.0,6,ch1Sound_localizationTask.wav,0.0,"(952, 878)","(-8,-202)",0,-338,,,,,,,,,7,2,51,3,,,,,,,,,,,,,,,,,,,,,,,,,,,,,,,,,,,,,,,,,,,,2216.3183558699675,None,2217.4337994051166,None,2218.3503680592403,None,1.4423280423280422,0.8992349398322403,2218.3503680592403,None,,,,,,,,,,,73,001,2023_Apr_14_1532,SpeechDraft1Carolyn_lessNoise_PlusLocalization,2021.2.3,59.919610958800206,
,,,,,,,,midRight,13.0,3,ch1Sound_localizationTask.wav,13.0,"(1142, 878)","(182, -202)",190,-338,,,,,,,,,7,3,52,5,,,,,,,,,,,,,,,,,,,,,,,,,,,,,,,,,,,,,,,,,,,,2219.25138181122,None,2220.350412398111,None,2221.2838591090403,None,1.6682539682539683,0.56532779103145,2221.2838591090403,None,,,,,,,,,,,73,001,2023_Apr_14_1532,SpeechDraft1Carolyn_lessNoise_PlusLocalization,2021.2.3,59.919610958800206,
,,,,,,,,nearRight,6.5,0,ch1Sound_localizationTask.wav,6.5,"(1047, 878)","(87, -202)",95,-338,,,,,,,,,7,4,53,4,,,,,,,,,,,,,,,,,,,,,,,,,,,,,,,,,,,,,,,,,,,,2221.8506617392413,None,2222.950461307075,None,2223.8837601412088,None,1.5322751322751322,0.7334550758823752,2223.8837601412088,None,,,,,,,,,,,73,001,2023_Apr_14_1532,SpeechDraft1Carolyn_lessNoise_PlusLocalization,2021.2.3,59.919610958800206,
,,,,,,,,farLeft,-19.1,5,ch1Sound_localizationTask.wav,-19.1,"(667, 878)","(-293,-202)",-285,-338,,,,,,,,,7,5,54,0,,,,,,,,,,,,,,,,,,,,,,,,,,,,,,,,,,,,,,,,,,,,2224.6340696881525,None,2225.733749147039,None,2226.667096731253,None,1.33015873015873,0.7840452170930803,2226.667096731253,None,,,,,,,,,,,73,001,2023_Apr_14_1532,SpeechDraft1Carolyn_lessNoise_PlusLocalization,2021.2.3,59.919610958800206,
,,,,,,,,nearRight,6.5,0,ch1Sound_localizationTask.wav,6.5,"(1047, 878)","(87, -202)",95,-338,,,,,,,,,7,6,55,4,,,,,,,,,,,,,,,,,,,,,,,,,,,,,,,,,,,,,,,,,,,,2227.4675683132373,None,2228.5671816738322,None,2229.500699796248,None,1.5433862433862435,0.7296410617418587,2229.500699796248,None,,,,,,,,,,,73,001,2023_Apr_14_1532,SpeechDraft1Carolyn_lessNoise_PlusLocalization,2021.2.3,59.919610958800206,
,,,,,,,,,,,,,,,,,,,,,,,,,,,,,,,,,,,,,,,,,,,,,,,,,,,,,,,,,,,,,,,,,,,,,,,,,,,,,,,,,,space,11.344974868930876,2230.3173855710775,None,,,,,,,73,001,2023_Apr_14_1532,SpeechDraft1Carolyn_lessNoise_PlusLocalization,2021.2.3,59.919610958800206,
,,,,,,,,nearLeft,-6.5,1,ch1Sound_localizationTask.wav,-6.5,"(857, 878)","(-103,-202)",-95,-338,,,,,,,,,,,,,0,0,0,2,,,,,,,,,,,,,,,,,,,,,,,,,,,,,,,,,,,,,,,,2241.7005149880424,None,,,2244.7338488120586,None,1.4423280423280422,1.1039321650750935,2244.7338488120586,None,,,,,2230.3173855710775,None,2242.700835584197,None,2242.88420706708,2242.9007223448716,73,001,2023_Apr_14_1532,SpeechDraft1Carolyn_lessNoise_PlusLocalization,2021.2.3,59.919610958800206,
,,,,,,,,nearLeft,-6.5,1,ch1Sound_localizationTask.wav,-6.5,"(857, 878)","(-103,-202)",-95,-338,,,,,,,,,,,,,0,1,1,2,,,,,,,,,,,,,,,,,,,,,,,,,,,,,,,,,,,,,,,,2245.850794870872,None,,,2248.8672047802247,None,1.4523809523809523,0.8487847340293229,2248.8672047802247,None,,,,,,,2246.8507654438727,None,2247.0341150318272,2247.0507606682368,73,001,2023_Apr_14_1532,SpeechDraft1Carolyn_lessNoise_PlusLocalization,2021.2.3,59.919610958800206,
,,,,,,,,center,0.0,6,ch1Sound_localizationTask.wav,0.0,"(952, 878)","(-8,-202)",0,-338,,,,,,,,,,,,,0,2,2,3,,,,,,,,,,,,,,,,,,,,,,,,,,,,,,,,,,,,,,,,2249.717474888079,None,,,2252.7338446178474,None,1.5042328042328044,0.8681115242652595,2252.7338446178474,None,,,,,,,2250.7174337301403,None,2250.9008447900414,2250.9174019042403,73,001,2023_Apr_14_1532,SpeechDraft1Carolyn_lessNoise_PlusLocalization,2021.2.3,59.919610958800206,
,,,,,,,,center,0.0,6,ch1Sound_localizationTask.wav,0.0,"(952, 878)","(-8,-202)",0,-338,,,,,,,,,,,,,0,3,3,3,,,,,,,,,,,,,,,,,,,,,,,,,,,,,,,,,,,,,,,,2253.617459990084,None,,,2256.6339252879843,None,1.5037037037037035,0.7333712056279182,2256.6339252879843,None,,,,,,,2254.617410852108,None,2254.8007537340745,2254.8174725901335,73,001,2023_Apr_14_1532,SpeechDraft1Carolyn_lessNoise_PlusLocalization,2021.2.3,59.919610958800206,
,,,,,,,,nearRight,6.5,0,ch1Sound_localizationTask.wav,6.5,"(1047, 878)","(87, -202)",95,-338,,,,,,,,,,,,,0,4,4,4,,,,,,,,,,,,,,,,,,,,,,,,,,,,,,,,,,,,,,,,2257.3682777490467,None,,,2260.3839165782556,None,1.583068783068783,0.5996448886580765,2260.3839165782556,None,,,,,,,2258.3674962110817,None,2258.550727441907,2258.567540063057,73,001,2023_Apr_14_1532,SpeechDraft1Carolyn_lessNoise_PlusLocalization,2021.2.3,59.919610958800206,
,,,,,,,,midLeft,-13.0,2,ch1Sound_localizationTask.wav,-13.0,"(762, 878)","(-198,-202)",-190,-338,,,,,,,,,,,,,0,5,5,1,,,,,,,,,,,,,,,,,,,,,,,,,,,,,,,,,,,,,,,,2260.9851839561015,None,,,2264.0171806621365,None,1.3984126984126983,1.0168986129574478,2264.0171806621365,None,,,,,,,2262.0008596652187,None,2262.184124061838,2262.2008490148,73,001,2023_Apr_14_1532,SpeechDraft1Carolyn_lessNoise_PlusLocalization,2021.2.3,59.919610958800206,
,,,,,,,,nearRight,6.5,0,ch1Sound_localizationTask.wav,6.5,"(1047, 878)","(87, -202)",95,-338,,,,,,,,,,,,,0,6,6,4,,,,,,,,,,,,,,,,,,,,,,,,,,,,,,,,,,,,,,,,2265.034790236037,None,,,2268.0505406819284,None,1.5666666666666667,0.8654556320980191,2268.0505406819284,None,,,,,,,2266.034099427983,None,2266.217436924111,2266.234088037163,73,001,2023_Apr_14_1532,SpeechDraft1Carolyn_lessNoise_PlusLocalization,2021.2.3,59.919610958800206,
,,,,,,,,midRight,13.0,3,ch1Sound_localizationTask.wav,13.0,"(1142, 878)","(182, -202)",190,-338,,,,,,,,,,,,,1,0,7,5,,,,,,,,,,,,,,,,,,,,,,,,,,,,,,,,,,,,,,,,2268.9178073438816,None,,,2271.9338165060617,None,1.6195767195767194,0.7503120959736407,2271.9338165060617,None,,,,,,,2269.917508039158,None,2270.1007730881684,2270.117580045946,73,001,2023_Apr_14_1532,SpeechDraft1Carolyn_lessNoise_PlusLocalization,2021.2.3,59.919610958800206,
,,,,,,,,nearLeft,-6.5,1,ch1Sound_localizationTask.wav,-6.5,"(857, 878)","(-103,-202)",-95,-338,,,,,,,,,,,,,1,1,8,2,,,,,,,,,,,,,,,,,,,,,,,,,,,,,,,,,,,,,,,,2272.7008312051184,None,,,2275.7170819621533,None,1.4370370370370371,1.0150029500946403,2275.7170819621533,None,,,,,,,2273.7007779208943,None,2273.884195242077,2273.9008038071916,73,001,2023_Apr_14_1532,SpeechDraft1Carolyn_lessNoise_PlusLocalization,2021.2.3,59.919610958800206,
,,,,,,,,midRight,13.0,3,ch1Sound_localizationTask.wav,13.0,"(1142, 878)","(182, -202)",190,-338,,,,,,,,,,,,,1,2,9,5,,,,,,,,,,,,,,,,,,,,,,,,,,,,,,,,,,,,,,,,2276.734274934046,None,,,2279.7505683130585,None,1.5989417989417989,1.351843714248389,2279.7505683130585,None,,,,,,,2277.734229738824,None,2277.917478728108,2277.934278314002,73,001,2023_Apr_14_1532,SpeechDraft1Carolyn_lessNoise_PlusLocalization,2021.2.3,59.919610958800206,
,,,,,,,,nearLeft,-6.5,1,ch1Sound_localizationTask.wav,-6.5,"(857, 878)","(-103,-202)",-95,-338,,,,,,,,,,,,,1,3,10,2,,,,,,,,,,,,,,,,,,,,,,,,,,,,,,,,,,,,,,,,2281.117535621859,None,,,2284.1339678899385,None,1.4507936507936507,0.7849068297073245,2284.1339678899385,None,,,,,,,2282.1174054020084,None,2282.300743930042,2282.3174886479974,73,001,2023_Apr_14_1532,SpeechDraft1Carolyn_lessNoise_PlusLocalization,2021.2.3,59.919610958800206,
,,,,,,,,midLeft,-13.0,2,ch1Sound_localizationTask.wav,-13.0,"(762, 878)","(-198,-202)",-190,-338,,,,,,,,,,,,,1,4,11,1,,,,,,,,,,,,,,,,,,,,,,,,,,,,,,,,,,,,,,,,2284.934226631187,None,,,2287.950527429115,None,1.3957671957671958,0.7682538446970284,2287.950527429115,None,,,,,,,2285.9341321391985,None,2286.1175556741655,2286.134169152938,73,001,2023_Apr_14_1532,SpeechDraft1Carolyn_lessNoise_PlusLocalization,2021.2.3,59.919610958800206,
,,,,,,,,center,0.0,6,ch1Sound_localizationTask.wav,0.0,"(952, 878)","(-8,-202)",0,-338,,,,,,,,,,,,,1,5,12,3,,,,,,,,,,,,,,,,,,,,,,,,,,,,,,,,,,,,,,,,2288.7342450120486,None,,,2291.750411398243,None,1.517989417989418,0.817761282902211,2291.750411398243,None,,,,,,,2289.7342196730897,None,2289.917518054135,2289.9341103858314,73,001,2023_Apr_14_1532,SpeechDraft1Carolyn_lessNoise_PlusLocalization,2021.2.3,59.919610958800206,
,,,,,,,,farLeft,-19.1,5,ch1Sound_localizationTask.wav,-19.1,"(667, 878)","(-293,-202)",-285,-338,,,,,,,,,,,,,1,6,13,0,,,,,,,,,,,,,,,,,,,,,,,,,,,,,,,,,,,,,,,,2292.584369646851,None,,,2295.600644119084,None,1.3444444444444446,0.8173019280657172,2295.600644119084,None,,,,,,,2293.5841530729085,None,2293.767519703135,2293.7841388718225,73,001,2023_Apr_14_1532,SpeechDraft1Carolyn_lessNoise_PlusLocalization,2021.2.3,59.919610958800206,
,,,,,,,,nearRight,6.5,0,ch1Sound_localizationTask.wav,6.5,"(1047, 878)","(87, -202)",95,-338,,,,,,,,,,,,,2,0,14,4,,,,,,,,,,,,,,,,,,,,,,,,,,,,,,,,,,,,,,,,2296.4342399179004,None,,,2299.4505744781345,None,1.5513227513227514,0.982715823687613,2299.4505744781345,None,,,,,,,2297.4341952041723,None,2297.6175513449125,2297.6341002071276,73,001,2023_Apr_14_1532,SpeechDraft1Carolyn_lessNoise_PlusLocalization,2021.2.3,59.919610958800206,
,,,,,,,,nearLeft,-6.5,1,ch1Sound_localizationTask.wav,-6.5,"(857, 878)","(-103,-202)",-95,-338,,,,,,,,,,,,,2,1,15,2,,,,,,,,,,,,,,,,,,,,,,,,,,,,,,,,,,,,,,,,2300.434829023201,None,,,2303.4506142302416,None,1.4555555555555555,0.8993507758714259,2303.4506142302416,None,,,,,,,2301.434141627047,None,2301.617553607095,2301.634203273803,73,001,2023_Apr_14_1532,SpeechDraft1Carolyn_lessNoise_PlusLocalization,2021.2.3,59.919610958800206,
,,,,,,,,midLeft,-13.0,2,ch1Sound_localizationTask.wav,-13.0,"(762, 878)","(-198,-202)",-190,-338,,,,,,,,,,,,,2,2,16,1,,,,,,,,,,,,,,,,,,,,,,,,,,,,,,,,,,,,,,,,2304.3511290862225,None,,,2307.367148171179,None,1.3894179894179894,0.7999214786104858,2307.367148171179,None,,,,,,,2305.3508979459293,None,2305.5342983221635,2305.550866926089,73,001,2023_Apr_14_1532,SpeechDraft1Carolyn_lessNoise_PlusLocalization,2021.2.3,59.919610958800206,
,,,,,,,,midLeft,-13.0,2,ch1Sound_localizationTask.wav,-13.0,"(762, 878)","(-198,-202)",-190,-338,,,,,,,,,,,,,2,3,17,1,,,,,,,,,,,,,,,,,,,,,,,,,,,,,,,,,,,,,,,,2308.1842762539163,None,,,2311.2005949169397,None,1.364021164021164,0.7337337890639901,2311.2005949169397,None,,,,,,,2309.1842408762313,None,2309.3675511181355,2309.3842833908275,73,001,2023_Apr_14_1532,SpeechDraft1Carolyn_lessNoise_PlusLocalization,2021.2.3,59.919610958800206,
,,,,,,,,farRight,19.1,4,ch1Sound_localizationTask.wav,19.1,"(1237, 878)","(277,-202)",285,-338,,,,,,,,,,,,,2,4,18,6,,,,,,,,,,,,,,,,,,,,,,,,,,,,,,,,,,,,,,,,2311.9508521058597,None,,,2314.96729850024,None,1.624867724867725,1.1831253627315164,2314.96729850024,None,,,,,,,2312.950832846109,None,2313.134247888811,2313.15090339398,73,001,2023_Apr_14_1532,SpeechDraft1Carolyn_lessNoise_PlusLocalization,2021.2.3,59.919610958800206,
,,,,,,,,farRight,19.1,4,ch1Sound_localizationTask.wav,19.1,"(1237, 878)","(277,-202)",285,-338,,,,,,,,,,,,,2,5,19,6,,,,,,,,,,,,,,,,,,,,,,,,,,,,,,,,,,,,,,,,2316.151361754164,None,,,2319.167166741099,None,1.6677248677248677,1.2996477270498872,2319.167166741099,None,,,,,,,2317.1509422799572,None,2317.334187357221,2317.350882260129,73,001,2023_Apr_14_1532,SpeechDraft1Carolyn_lessNoise_PlusLocalization,2021.2.3,59.919610958800206,
,,,,,,,,farRight,19.1,4,ch1Sound_localizationTask.wav,19.1,"(1237, 878)","(277,-202)",285,-338,,,,,,,,,,,,,2,6,20,6,,,,,,,,,,,,,,,,,,,,,,,,,,,,,,,,,,,,,,,,2320.4681880138814,None,,,2323.4839157592505,None,1.7354497354497354,1.3160443240776658,2323.4839157592505,None,,,,,,,2321.467547030188,None,2321.6508492059074,2321.667603140231,73,001,2023_Apr_14_1532,SpeechDraft1Carolyn_lessNoise_PlusLocalization,2021.2.3,59.919610958800206,
,,,,,,,,midLeft,-13.0,2,ch1Sound_localizationTask.wav,-13.0,"(762, 878)","(-198,-202)",-190,-338,,,,,,,,,,,,,3,0,21,1,,,,,,,,,,,,,,,,,,,,,,,,,,,,,,,,,,,,,,,,2324.801634442061,None,,,2327.817171077244,None,1.3968253968253967,0.6824316941201687,2327.817171077244,None,,,,,,,2325.8008584482595,None,2325.9842364760116,2326.0008127489127,73,001,2023_Apr_14_1532,SpeechDraft1Carolyn_lessNoise_PlusLocalization,2021.2.3,59.919610958800206,
,,,,,,,,nearLeft,-6.5,1,ch1Sound_localizationTask.wav,-6.5,"(857, 878)","(-103,-202)",-95,-338,,,,,,,,,,,,,3,1,22,2,,,,,,,,,,,,,,,,,,,,,,,,,,,,,,,,,,,,,,,,2328.502355061006,None,,,2331.533840803895,None,1.4703703703703703,0.9325644061900675,2331.533840803895,None,,,,,,,2329.5175631758757,None,2329.7009060052224,2329.7175634228624,73,001,2023_Apr_14_1532,SpeechDraft1Carolyn_lessNoise_PlusLocalization,2021.2.3,59.919610958800206,
,,,,,,,,farLeft,-19.1,5,ch1Sound_localizationTask.wav,-19.1,"(667, 878)","(-293,-202)",-285,-338,,,,,,,,,,,,,3,2,23,0,,,,,,,,,,,,,,,,,,,,,,,,,,,,,,,,,,,,,,,,2332.4678771598265,None,,,2335.4839740009047,None,1.3650793650793651,1.1993343317881227,2335.4839740009047,None,,,,,,,2333.467628167942,None,2333.65103382105,2333.6676521939225,73,001,2023_Apr_14_1532,SpeechDraft1Carolyn_lessNoise_PlusLocalization,2021.2.3,59.919610958800206,
,,,,,,,,nearRight,6.5,0,ch1Sound_localizationTask.wav,6.5,"(1047, 878)","(87, -202)",95,-338,,,,,,,,,,,,,3,3,24,4,,,,,,,,,,,,,,,,,,,,,,,,,,,,,,,,,,,,,,,,2336.6848390931264,None,,,2339.7005916098133,None,1.5571428571428572,0.8329465221613646,2339.7005916098133,None,,,,,,,2337.6842790530063,None,2337.867816416081,2337.8842397201806,73,001,2023_Apr_14_1532,SpeechDraft1Carolyn_lessNoise_PlusLocalization,2021.2.3,59.919610958800206,
,,,,,,,,nearLeft,-6.5,1,ch1Sound_localizationTask.wav,-6.5,"(857, 878)","(-103,-202)",-95,-338,,,,,,,,,,,,,3,4,25,2,,,,,,,,,,,,,,,,,,,,,,,,,,,,,,,,,,,,,,,,2340.5350508452393,None,,,2343.550580641255,None,1.4597883597883599,0.8170655467547476,2343.550580641255,None,,,,,,,2341.5341788479127,None,2341.7175828171894,2341.7342492449097,73,001,2023_Apr_14_1532,SpeechDraft1Carolyn_lessNoise_PlusLocalization,2021.2.3,59.919610958800206,
,,,,,,,,farLeft,-19.1,5,ch1Sound_localizationTask.wav,-19.1,"(667, 878)","(-293,-202)",-285,-338,,,,,,,,,,,,,3,5,26,0,,,,,,,,,,,,,,,,,,,,,,,,,,,,,,,,,,,,,,,,2344.384223654866,None,,,2347.4006035048515,None,1.3603174603174604,0.8163559357635677,2347.4006035048515,None,,,,,,,2345.384186937008,None,2345.567516163923,2345.5844670571387,73,001,2023_Apr_14_1532,SpeechDraft1Carolyn_lessNoise_PlusLocalization,2021.2.3,59.919610958800206,
,,,,,,,,center,0.0,6,ch1Sound_localizationTask.wav,0.0,"(952, 878)","(-8,-202)",0,-338,,,,,,,,,,,,,3,6,27,3,,,,,,,,,,,,,,,,,,,,,,,,,,,,,,,,,,,,,,,,2348.2181954928674,None,,,2351.2340291128494,None,1.5037037037037035,1.3328257286921144,2351.2340291128494,None,,,,,,,2349.2177379122004,None,2349.4009200502187,2349.4176112329587,73,001,2023_Apr_14_1532,SpeechDraft1Carolyn_lessNoise_PlusLocalization,2021.2.3,59.919610958800206,
,,,,,,,,farRight,19.1,4,ch1Sound_localizationTask.wav,19.1,"(1237, 878)","(277,-202)",285,-338,,,,,,,,,,,,,4,0,28,6,,,,,,,,,,,,,,,,,,,,,,,,,,,,,,,,,,,,,,,,2352.5684170732275,None,,,2355.5839972798713,None,1.6703703703703705,0.6660241610370576,2355.5839972798713,None,,,,,,,2353.567593728192,None,2353.7508956519887,2353.7676710509695,73,001,2023_Apr_14_1532,SpeechDraft1Carolyn_lessNoise_PlusLocalization,2021.2.3,59.919610958800206,
,,,,,,,,farLeft,-19.1,5,ch1Sound_localizationTask.wav,-19.1,"(667, 878)","(-293,-202)",-285,-338,,,,,,,,,,,,,4,1,29,0,,,,,,,,,,,,,,,,,,,,,,,,,,,,,,,,,,,,,,,,2356.251806159038,None,,,2359.2674298621714,None,1.3523809523809525,1.4825011710636318,2359.2674298621714,None,,,,,,,2357.250893500168,None,2357.4342190371826,2357.4509353470057,73,001,2023_Apr_14_1532,SpeechDraft1Carolyn_lessNoise_PlusLocalization,2021.2.3,59.919610958800206,
,,,,,,,,midLeft,-13.0,2,ch1Sound_localizationTask.wav,-13.0,"(762, 878)","(-198,-202)",-190,-338,,,,,,,,,,,,,4,2,30,1,,,,,,,,,,,,,,,,,,,,,,,,,,,,,,,,,,,,,,,,2360.75155272102,None,,,2363.7672403668985,None,1.3962962962962964,1.000062569975853,2363.7672403668985,None,,,,,,,2361.7509787860326,None,2361.9342770581134,2361.950937102083,73,001,2023_Apr_14_1532,SpeechDraft1Carolyn_lessNoise_PlusLocalization,2021.2.3,59.919610958800206,
,,,,,,,,farLeft,-19.1,5,ch1Sound_localizationTask.wav,-19.1,"(667, 878)","(-293,-202)",-285,-338,,,,,,,,,,,,,4,3,31,0,,,,,,,,,,,,,,,,,,,,,,,,,,,,,,,,,,,,,,,,2364.7683608322404,None,,,2367.7840751428157,None,1.2846560846560846,1.116394388023764,2367.7840751428157,None,,,,,,,2365.767513852101,None,2365.9510164521635,2365.9676159648225,73,001,2023_Apr_14_1532,SpeechDraft1Carolyn_lessNoise_PlusLocalization,2021.2.3,59.919610958800206,
,,,,,,,,midLeft,-13.0,2,ch1Sound_localizationTask.wav,-13.0,"(762, 878)","(-198,-202)",-190,-338,,,,,,,,,,,,,4,4,32,1,,,,,,,,,,,,,,,,,,,,,,,,,,,,,,,,,,,,,,,,2368.917361279018,None,,,2371.9340084032156,None,1.3931216931216932,1.4007398230023682,2371.9340084032156,None,,,,,,,2369.9175755670294,None,2370.1009652651846,2370.117584111169,73,001,2023_Apr_14_1532,SpeechDraft1Carolyn_lessNoise_PlusLocalization,2021.2.3,59.919610958800206,
,,,,,,,,midRight,13.0,3,ch1Sound_localizationTask.wav,13.0,"(1142, 878)","(182, -202)",190,-338,,,,,,,,,,,,,4,5,33,5,,,,,,,,,,,,,,,,,,,,,,,,,,,,,,,,,,,,,,,,2373.3510722052306,None,,,2376.367283983156,None,1.6015873015873017,1.2323528160341084,2376.367283983156,None,,,,,,,2374.3509472650476,None,2374.5342729710974,2374.5509447650984,73,001,2023_Apr_14_1532,SpeechDraft1Carolyn_lessNoise_PlusLocalization,2021.2.3,59.919610958800206,
,,,,,,,,midRight,13.0,3,ch1Sound_localizationTask.wav,13.0,"(1142, 878)","(182, -202)",190,-338,,,,,,,,,,,,,4,6,34,5,,,,,,,,,,,,,,,,,,,,,,,,,,,,,,,,,,,,,,,,2377.6015321151353,None,,,2380.6172894597985,None,1.6253968253968254,1.0010770549997687,2380.6172894597985,None,,,,,,,2378.600959922187,None,2378.7842968208715,2378.8009117888287,73,001,2023_Apr_14_1532,SpeechDraft1Carolyn_lessNoise_PlusLocalization,2021.2.3,59.919610958800206,
,,,,,,,,nearRight,6.5,0,ch1Sound_localizationTask.wav,6.5,"(1047, 878)","(87, -202)",95,-338,,,,,,,,,,,,,5,0,35,4,,,,,,,,,,,,,,,,,,,,,,,,,,,,,,,,,,,,,,,,2381.6343429251574,None,,,2384.650713466108,None,1.5682539682539682,0.7658065012656152,2384.650713466108,None,,,,,,,2382.634208110161,None,2382.817813526839,2382.8343653241172,73,001,2023_Apr_14_1532,SpeechDraft1Carolyn_lessNoise_PlusLocalization,2021.2.3,59.919610958800206,
,,,,,,,,midLeft,-13.0,2,ch1Sound_localizationTask.wav,-13.0,"(762, 878)","(-198,-202)",-190,-338,,,,,,,,,,,,,5,1,36,1,,,,,,,,,,,,,,,,,,,,,,,,,,,,,,,,,,,,,,,,2385.418521129992,None,,,2388.434226701036,None,1.4179894179894181,1.0986769180744886,2388.434226701036,None,,,,,,,2386.4176045740023,None,2386.601037689019,2386.617593185976,73,001,2023_Apr_14_1532,SpeechDraft1Carolyn_lessNoise_PlusLocalization,2021.2.3,59.919610958800206,
,,,,,,,,center,0.0,6,ch1Sound_localizationTask.wav,0.0,"(952, 878)","(-8,-202)",0,-338,,,,,,,,,,,,,5,2,37,3,,,,,,,,,,,,,,,,,,,,,,,,,,,,,,,,,,,,,,,,2389.534340543207,None,,,2392.5506655671634,None,1.51005291005291,1.1161533710546792,2392.5506655671634,None,,,,,,,2390.5343274911866,None,2390.717754181009,2390.7343496838585,73,001,2023_Apr_14_1532,SpeechDraft1Carolyn_lessNoise_PlusLocalization,2021.2.3,59.919610958800206,
,,,,,,,,farLeft,-19.1,5,ch1Sound_localizationTask.wav,-19.1,"(667, 878)","(-293,-202)",-285,-338,,,,,,,,,,,,,5,3,38,0,,,,,,,,,,,,,,,,,,,,,,,,,,,,,,,,,,,,,,,,2393.66822381597,None,,,2396.6839727358893,None,1.3433862433862434,0.832417415920645,2396.6839727358893,None,,,,,,,2394.667746837251,None,2394.850953910034,2394.8675998020917,73,001,2023_Apr_14_1532,SpeechDraft1Carolyn_lessNoise_PlusLocalization,2021.2.3,59.919610958800206,
,,,,,,,,midRight,13.0,3,ch1Sound_localizationTask.wav,13.0,"(1142, 878)","(182, -202)",190,-338,,,,,,,,,,,,,5,4,39,5,,,,,,,,,,,,,,,,,,,,,,,,,,,,,,,,,,,,,,,,2397.5182031858712,None,,,2400.533989190124,None,1.5846560846560847,1.0326745850034058,2400.533989190124,None,,,,,,,2398.517756837886,None,2398.701125177089,2398.7177172540687,73,001,2023_Apr_14_1532,SpeechDraft1Carolyn_lessNoise_PlusLocalization,2021.2.3,59.919610958800206,
,,,,,,,,farRight,19.1,4,ch1Sound_localizationTask.wav,19.1,"(1237, 878)","(277,-202)",285,-338,,,,,,,,,,,,,5,5,40,6,,,,,,,,,,,,,,,,,,,,,,,,,,,,,,,,,,,,,,,,2401.568412471097,None,,,2404.5841279360466,None,1.680952380952381,0.9655971042811871,2404.5841279360466,None,,,,,,,2402.5676537551917,None,2402.750972688198,2402.7676390879788,73,001,2023_Apr_14_1532,SpeechDraft1Carolyn_lessNoise_PlusLocalization,2021.2.3,59.919610958800206,
,,,,,,,,center,0.0,6,ch1Sound_localizationTask.wav,0.0,"(952, 878)","(-8,-202)",0,-338,,,,,,,,,,,,,5,6,41,3,,,,,,,,,,,,,,,,,,,,,,,,,,,,,,,,,,,,,,,,2405.551407811232,None,,,2408.567475359887,None,1.4968253968253968,0.582451909314841,2408.567475359887,None,,,,,,,2406.55105062481,None,2406.734295348171,2406.750953666866,73,001,2023_Apr_14_1532,SpeechDraft1Carolyn_lessNoise_PlusLocalization,2021.2.3,59.919610958800206,
,,,,,,,,farRight,19.1,4,ch1Sound_localizationTask.wav,19.1,"(1237, 878)","(277,-202)",285,-338,,,,,,,,,,,,,6,0,42,6,,,,,,,,,,,,,,,,,,,,,,,,,,,,,,,,,,,,,,,,2409.1516782501712,None,,,2412.167279531248,None,1.6894179894179895,1.0163042126223445,2412.167279531248,None,,,,,,,2410.1510422672145,None,2410.3342639021575,2410.3510637460276,73,001,2023_Apr_14_1532,SpeechDraft1Carolyn_lessNoise_PlusLocalization,2021.2.3,59.919610958800206,
,,,,,,,,nearRight,6.5,0,ch1Sound_localizationTask.wav,6.5,"(1047, 878)","(87, -202)",95,-338,,,,,,,,,,,,,6,1,43,4,,,,,,,,,,,,,,,,,,,,,,,,,,,,,,,,,,,,,,,,2413.1856894460507,None,,,2416.2174701248296,None,1.5671957671957673,0.9308918667957187,2416.2174701248296,None,,,,,,,2414.2010293351486,None,2414.384500687942,2414.4009615238756,73,001,2023_Apr_14_1532,SpeechDraft1Carolyn_lessNoise_PlusLocalization,2021.2.3,59.919610958800206,
,,,,,,,,nearRight,6.5,0,ch1Sound_localizationTask.wav,6.5,"(1047, 878)","(87, -202)",95,-338,,,,,,,,,,,,,6,2,44,4,,,,,,,,,,,,,,,,,,,,,,,,,,,,,,,,,,,,,,,,2417.152389745228,None,,,2420.1840972979553,None,1.547089947089947,0.9494882519356906,2420.1840972979553,None,,,,,,,2418.1676960568875,None,2418.350934578106,2418.3677239520475,73,001,2023_Apr_14_1532,SpeechDraft1Carolyn_lessNoise_PlusLocalization,2021.2.3,59.919610958800206,
,,,,,,,,farLeft,-19.1,5,ch1Sound_localizationTask.wav,-19.1,"(667, 878)","(-293,-202)",-285,-338,,,,,,,,,,,,,6,3,45,0,,,,,,,,,,,,,,,,,,,,,,,,,,,,,,,,,,,,,,,,2421.1356154950336,None,,,2424.167455852963,None,1.342857142857143,1.049424008000642,2424.167455852963,None,,,,,,,2422.15095117921,None,2422.334357751999,2422.3509867042303,73,001,2023_Apr_14_1532,SpeechDraft1Carolyn_lessNoise_PlusLocalization,2021.2.3,59.919610958800206,
,,,,,,,,farRight,19.1,4,ch1Sound_localizationTask.wav,19.1,"(1237, 878)","(277,-202)",285,-338,,,,,,,,,,,,,6,4,46,6,,,,,,,,,,,,,,,,,,,,,,,,,,,,,,,,,,,,,,,,2425.2186986161396,None,,,2428.2341128299013,None,1.6481481481481481,1.3163315481506288,2428.2341128299013,None,,,,,,,2426.2177016092464,None,2426.4011552990414,2426.4176899991,73,001,2023_Apr_14_1532,SpeechDraft1Carolyn_lessNoise_PlusLocalization,2021.2.3,59.919610958800206,
,,,,,,,,nearRight,6.5,0,ch1Sound_localizationTask.wav,6.5,"(1047, 878)","(87, -202)",95,-338,,,,,,,,,,,,,6,5,47,4,,,,,,,,,,,,,,,,,,,,,,,,,,,,,,,,,,,,,,,,2429.5676349098794,None,,,2432.5840606288984,None,1.5476190476190477,0.8329632082022727,2432.5840606288984,None,,,,,,,2430.567653568927,None,2430.75105581386,2430.767719116062,73,001,2023_Apr_14_1532,SpeechDraft1Carolyn_lessNoise_PlusLocalization,2021.2.3,59.919610958800206,
,,,,,,,,center,0.0,6,ch1Sound_localizationTask.wav,0.0,"(952, 878)","(-8,-202)",0,-338,,,,,,,,,,,,,6,6,48,3,,,,,,,,,,,,,,,,,,,,,,,,,,,,,,,,,,,,,,,,2433.418456613086,None,,,2436.4340463439003,None,1.5116402116402117,1.198356679175049,2436.4340463439003,None,,,,,,,2434.4177133408375,None,2434.60099629499,2434.617793662008,73,001,2023_Apr_14_1532,SpeechDraft1Carolyn_lessNoise_PlusLocalization,2021.2.3,59.919610958800206,
,,,,,,,,nearLeft,-6.5,1,ch1Sound_localizationTask.wav,-6.5,"(857, 878)","(-103,-202)",-95,-338,,,,,,,,,,,,,7,0,49,2,,,,,,,,,,,,,,,,,,,,,,,,,,,,,,,,,,,,,,,,2437.634346959181,None,,,2440.6506700091995,None,1.4492063492063492,0.8663812470622361,2440.6506700091995,None,,,,,,,2438.6343512739986,None,2438.8178788810037,2438.83431988582,73,001,2023_Apr_14_1532,SpeechDraft1Carolyn_lessNoise_PlusLocalization,2021.2.3,59.919610958800206,
,,,,,,,,midRight,13.0,3,ch1Sound_localizationTask.wav,13.0,"(1142, 878)","(182, -202)",190,-338,,,,,,,,,,,,,7,1,50,5,,,,,,,,,,,,,,,,,,,,,,,,,,,,,,,,,,,,,,,,2441.5181305138394,None,,,2444.534095609095,None,1.5878306878306878,0.9996379879303277,2444.534095609095,None,,,,,,,2442.517652544193,None,2442.700942438096,2442.717658129055,73,001,2023_Apr_14_1532,SpeechDraft1Carolyn_lessNoise_PlusLocalization,2021.2.3,59.919610958800206,
,,,,,,,,farRight,19.1,4,ch1Sound_localizationTask.wav,19.1,"(1237, 878)","(277,-202)",285,-338,,,,,,,,,,,,,7,2,51,6,,,,,,,,,,,,,,,,,,,,,,,,,,,,,,,,,,,,,,,,2445.5348510211334,None,,,2448.5508199031465,None,1.6455026455026456,1.032624697778374,2448.5508199031465,None,,,,,,,2446.5343852248043,None,2446.7176719880663,2446.7344016088173,73,001,2023_Apr_14_1532,SpeechDraft1Carolyn_lessNoise_PlusLocalization,2021.2.3,59.919610958800206,
,,,,,,,,midRight,13.0,3,ch1Sound_localizationTask.wav,13.0,"(1142, 878)","(182, -202)",190,-338,,,,,,,,,,,,,7,3,52,5,,,,,,,,,,,,,,,,,,,,,,,,,,,,,,,,,,,,,,,,2449.584677170962,None,,,2452.6007433068007,None,1.615873015873016,0.916748717892915,2452.6007433068007,None,,,,,,,2450.584413331002,None,2450.767666553147,2450.784396430943,73,001,2023_Apr_14_1532,SpeechDraft1Carolyn_lessNoise_PlusLocalization,2021.2.3,59.919610958800206,
,,,,,,,,farLeft,-19.1,5,ch1Sound_localizationTask.wav,-19.1,"(667, 878)","(-293,-202)",-285,-338,,,,,,,,,,,,,7,4,53,0,,,,,,,,,,,,,,,,,,,,,,,,,,,,,,,,,,,,,,,,2453.534328761045,None,,,2456.550632670056,None,1.3603174603174604,1.3003098256886005,2456.550632670056,None,,,,,,,2454.534472614061,None,2454.7177331279963,2454.734390305821,73,001,2023_Apr_14_1532,SpeechDraft1Carolyn_lessNoise_PlusLocalization,2021.2.3,59.919610958800206,
,,,,,,,,midRight,13.0,3,ch1Sound_localizationTask.wav,13.0,"(1142, 878)","(182, -202)",190,-338,,,,,,,,,,,,,7,5,54,5,,,,,,,,,,,,,,,,,,,,,,,,,,,,,,,,,,,,,,,,2457.8678010920994,None,,,2460.8841284238733,None,1.3984126984126983,0.9325482114218175,2460.8841284238733,None,,,,,,,2458.867874344811,None,2459.051103432197,2459.0680015478283,73,001,2023_Apr_14_1532,SpeechDraft1Carolyn_lessNoise_PlusLocalization,2021.2.3,59.919610958800206,
,,,,,,,,center,0.0,6,ch1Sound_localizationTask.wav,0.0,"(952, 878)","(-8,-202)",0,-338,,,,,,,,,,,,,7,6,55,3,,,,,,,,,,,,,,,,,,,,,,,,,,,,,,,,,,,,,,,,2461.818557392806,None,,,2464.8341408348642,None,1.505820105820106,0.7318784152157605,2464.8341408348642,None,,,,,,,2462.818084430881,None,2463.0014883000404,2463.0180376130156,73,001,2023_Apr_14_1532,SpeechDraft1Carolyn_lessNoise_PlusLocalization,2021.2.3,59.919610958800206,
