{"meta_data":{"additional_headers":{},"game_name":"Recollect","version":"2.53.01","user_name":"75","organization":"braingamecenter","study":"mpl2_2022_11","session_number":0,"device_id":"74342D95-EE82-45E3-8ADF-48FB3203C5DD"},"data":[{"stage":"Practice","trial":0,"sequence":"6F","letter_input":"F","number_input":"6","is_correct":true,"presentation_start_time":1681761895978.5,"presentation_end_time":1681761898979.67,"response_time":1681761905528.41},{"stage":"Practice","trial":1,"sequence":"G4","letter_input":"G","number_input":"4","is_correct":true,"presentation_start_time":1681761907057.96,"presentation_end_time":1681761910058.94,"response_time":1681761914688.74},{"stage":"Practice","trial":2,"sequence":"3W5","letter_input":"W","number_input":"35","is_correct":true,"presentation_start_time":1681761916221.42,"presentation_end_time":1681761920722.02,"response_time":1681761926501.3},{"stage":"Practice","trial":3,"sequence":"T7L","letter_input":"LT","number_input":"7","is_correct":true,"presentation_start_time":1681761928033.97,"presentation_end_time":1681761932534.57,"response_time":1681761939613.32},{"stage":"Practice","trial":4,"sequence":"9J1","letter_input":"J","number_input":"19","is_correct":true,"presentation_start_time":1681761941146.08,"presentation_end_time":1681761945646.66,"response_time":1681761949826.52},{"stage":"Calibration","trial":0,"sequence":"Q9","letter_input":"Q","number_input":"9","is_correct":true,"presentation_start_time":1681761964521.16,"presentation_end_time":1681761967522.37,"response_time":1681761973734.76},{"stage":"Calibration","trial":1,"sequence":"5S","letter_input":"S","number_input":"5","is_correct":true,"presentation_start_time":1681761975267.41,"presentation_end_time":1681761978268.51,"response_time":1681761982198.49},{"stage":"Calibration","trial":2,"sequence":"Q8D","letter_input":"DQ","number_input":"8","is_correct":true,"presentation_start_time":1681761983731.2,"presentation_end_time":1681761988231.7,"response_time":1681761993594.53},{"stage":"Calibration","trial":3,"sequence":"9M1","letter_input":"M","number_input":"19","is_correct":true,"presentation_start_time":1681761995127.19,"presentation_end_time":1681761999627.66,"response_time":1681762003457.74},{"stage":"Calibration","trial":4,"sequence":"N8C2","letter_input":"CN","number_input":"28","is_correct":true,"presentation_start_time":1681762004990.47,"presentation_end_time":1681762010990.5,"response_time":1681762018819.02},{"stage":"Calibration","trial":5,"sequence":"3Z1L","letter_input":"LZ","number_input":"13","is_correct":true,"presentation_start_time":1681762020351.73,"presentation_end_time":1681762026351.73,"response_time":1681762032580.83},{"stage":"Calibration","trial":6,"sequence":"Y8E5A","letter_input":"AEY","number_input":"58","is_correct":true,"presentation_start_time":1681762034113.57,"presentation_end_time":1681762041613.09,"response_time":1681762052790.51},{"stage":"Calibration","trial":7,"sequence":"4Z1R9","letter_input":"RZ","number_input":"149","is_correct":true,"presentation_start_time":1681762054323.16,"presentation_end_time":1681762061822.68,"response_time":1681762070300.98},{"stage":"Calibration","trial":8,"sequence":"K7Y5V2","letter_input":"KVY","number_input":"257","is_correct":true,"presentation_start_time":1681762071833.7,"presentation_end_time":1681762080832.73,"response_time":1681762100590.36},{"stage":"Calibration","trial":9,"sequence":"6C3W8L","letter_input":"CLW","number_input":"368","is_correct":true,"presentation_start_time":1681762102123.1,"presentation_end_time":1681762111122.46,"response_time":1681762130979.78},{"stage":"Calibration","trial":10,"sequence":"S4H2Z9J","letter_input":"CJZ","number_input":"249","is_correct":false,"presentation_start_time":1681762132512.47,"presentation_end_time":1681762143011.02,"response_time":1681762170116.08},{"stage":"Calibration","trial":11,"sequence":"6N3G8Q1","letter_input":"GNQ","number_input":"1368","is_correct":true,"presentation_start_time":1681762171648.8,"presentation_end_time":1681762182147.22,"response_time":1681762207802.96},{"stage":"Calibration","trial":12,"sequence":"S4E9V7A2","letter_input":"AESV","number_input":"2479","is_correct":true,"presentation_start_time":1681762209335.56,"presentation_end_time":1681762221333.65,"response_time":1681762259668.18},{"stage":"Calibration","trial":13,"sequence":"1H5C3T8P","letter_input":"CHLT","number_input":"1358","is_correct":false,"presentation_start_time":1681762261200.86,"presentation_end_time":1681762273198.61,"response_time":1681762295472.28},{"stage":"Calibration","trial":14,"sequence":"Z7S2E9A4G","letter_input":"G","number_input":"79","is_correct":false,"presentation_start_time":1681762297004.87,"presentation_end_time":1681762310502.43,"response_time":1681762365664.35},{"stage":"Calibration","trial":15,"sequence":"6W1N8Y3K7","letter_input":"WY","number_input":"136","is_correct":false,"presentation_start_time":1681762367197,"presentation_end_time":1681762380694.61,"response_time":1681762424510.49}]}