{"meta_data":{"additional_headers":{},"game_name":"Recollect","version":"2.53.01","user_name":"76","organization":"braingamecenter","study":"mpl2_2022_11","session_number":0,"device_id":"74342D95-EE82-45E3-8ADF-48FB3203C5DD"},"data":[{"trial":0,"action":1,"button_pressed":2,"time_out":false,"dwell_time":81.00390625,"response_time":1681775222511.37},{"trial":0,"action":1,"button_pressed":9,"time_out":false,"dwell_time":63.9521484375,"response_time":1681775222861.96},{"trial":0,"action":9,"button_pressed":-1,"time_out":false,"dwell_time":26.583984375,"response_time":1681775223587.61},{"trial":1,"action":1,"button_pressed":1,"time_out":false,"dwell_time":81.02099609375,"response_time":1681775233207.96},{"trial":1,"action":1,"button_pressed":6,"time_out":false,"dwell_time":64.43310546875,"response_time":1681775233558.34},{"trial":1,"action":1,"button_pressed":8,"time_out":false,"dwell_time":81.5498046875,"response_time":1681775234041.6},{"trial":1,"action":9,"button_pressed":-1,"time_out":false,"dwell_time":98.912109375,"response_time":1681775234758.58},{"trial":2,"action":1,"button_pressed":10,"time_out":false,"dwell_time":98.1201171875,"response_time":1681775246754.29},{"trial":2,"action":1,"button_pressed":3,"time_out":false,"dwell_time":97.717041015625,"response_time":1681775247436.58},{"trial":2,"action":1,"button_pressed":6,"time_out":false,"dwell_time":80.744873046875,"response_time":1681775247903.08},{"trial":2,"action":1,"button_pressed":8,"time_out":false,"dwell_time":63.531005859375,"response_time":1681775248319.72},{"trial":2,"action":9,"button_pressed":-1,"time_out":false,"dwell_time":114.708984375,"response_time":1681775249169.92},{"trial":3,"action":1,"button_pressed":11,"time_out":false,"dwell_time":131.31396484375,"response_time":1681775263948.26},{"trial":3,"action":1,"button_pressed":1,"time_out":false,"dwell_time":48.857177734375,"response_time":1681775264932.08},{"trial":3,"action":1,"button_pressed":9,"time_out":false,"dwell_time":113.093994140625,"response_time":1681775265497.45},{"trial":3,"action":1,"button_pressed":7,"time_out":false,"dwell_time":147.2880859375,"response_time":1681775265947.9},{"trial":3,"action":1,"button_pressed":4,"time_out":false,"dwell_time":97.43994140625,"response_time":1681775266597.76},{"trial":3,"action":9,"button_pressed":-1,"time_out":false,"dwell_time":114.34814453125,"response_time":1681775267380.63},{"trial":4,"action":1,"button_pressed":10,"time_out":false,"dwell_time":97.0810546875,"response_time":1681775284808.1},{"trial":4,"action":1,"button_pressed":5,"time_out":false,"dwell_time":114.236083984375,"response_time":1681775285258.44},{"trial":4,"action":1,"button_pressed":7,"time_out":false,"dwell_time":180.48193359375,"response_time":1681775285924.81},{"trial":4,"action":1,"button_pressed":4,"time_out":false,"dwell_time":81.553955078125,"response_time":1681775286224.72},{"trial":4,"action":1,"button_pressed":3,"time_out":false,"dwell_time":80.2548828125,"response_time":1681775287107.13},{"trial":4,"action":1,"button_pressed":8,"time_out":false,"dwell_time":98.176025390625,"response_time":1681775287407.77},{"trial":4,"action":9,"button_pressed":-1,"time_out":false,"dwell_time":131.44189453125,"response_time":1681775288723.68},{"trial":5,"action":1,"button_pressed":11,"time_out":false,"dwell_time":114.211181640625,"response_time":1681775306185.04},{"trial":5,"action":1,"button_pressed":4,"time_out":false,"dwell_time":98.1728515625,"response_time":1681775306801.42},{"trial":5,"action":1,"button_pressed":3,"time_out":false,"dwell_time":97.452880859375,"response_time":1681775307184.71},{"trial":5,"action":1,"button_pressed":2,"time_out":false,"dwell_time":80.98388671875,"response_time":1681775307584.71},{"trial":5,"action":1,"button_pressed":10,"time_out":false,"dwell_time":81.704833984375,"response_time":1681775308067.71},{"trial":5,"action":1,"button_pressed":6,"time_out":false,"dwell_time":97.326904296875,"response_time":1681775308300.16},{"trial":5,"action":9,"button_pressed":-1,"time_out":false,"dwell_time":164.818115234375,"response_time":1681775309068},{"trial":6,"action":1,"button_pressed":11,"time_out":false,"dwell_time":114.48681640625,"response_time":1681775321279.81},{"trial":6,"action":1,"button_pressed":11,"time_out":false,"dwell_time":47.97314453125,"response_time":1681775322196.89},{"trial":6,"action":1,"button_pressed":9,"time_out":false,"dwell_time":80.89892578125,"response_time":1681775323412.27},{"trial":6,"action":1,"button_pressed":9,"time_out":false,"dwell_time":80.947021484375,"response_time":1681775324178.6},{"trial":6,"action":1,"button_pressed":11,"time_out":false,"dwell_time":64.458984375,"response_time":1681775324745.12},{"trial":6,"action":1,"button_pressed":11,"time_out":false,"dwell_time":64.135009765625,"response_time":1681775325211.5},{"trial":6,"action":1,"button_pressed":9,"time_out":false,"dwell_time":64.095947265625,"response_time":1681775325895.26},{"trial":6,"action":1,"button_pressed":9,"time_out":false,"dwell_time":64.85693359375,"response_time":1681775326311.76},{"trial":6,"action":1,"button_pressed":9,"time_out":false,"dwell_time":47.9912109375,"response_time":1681775326561.54},{"trial":6,"action":0,"button_pressed":-1,"time_out":false,"dwell_time":96.912841796875,"response_time":1681775327860.62},{"trial":6,"action":1,"button_pressed":9,"time_out":false,"dwell_time":46.9638671875,"response_time":1681775328510.77},{"trial":6,"action":1,"button_pressed":11,"time_out":false,"dwell_time":64.254150390625,"response_time":1681775328860.37},{"trial":6,"action":1,"button_pressed":8,"time_out":false,"dwell_time":64.260009765625,"response_time":1681775329460.16},{"trial":6,"action":1,"button_pressed":0,"time_out":false,"dwell_time":47.98193359375,"response_time":1681775330093.72},{"trial":6,"action":9,"button_pressed":-1,"time_out":false,"dwell_time":64.6669921875,"response_time":1681775330610.19},{"trial":7,"action":1,"button_pressed":0,"time_out":false,"dwell_time":63.54296875,"response_time":1681775345205.22},{"trial":7,"action":1,"button_pressed":10,"time_out":false,"dwell_time":47.111083984375,"response_time":1681775345905.3},{"trial":7,"action":0,"button_pressed":-1,"time_out":false,"dwell_time":31.005126953125,"response_time":1681775347155.06},{"trial":7,"action":1,"button_pressed":0,"time_out":false,"dwell_time":47.157958984375,"response_time":1681775347688.07},{"trial":7,"action":1,"button_pressed":7,"time_out":false,"dwell_time":48.48291015625,"response_time":1681775348805.12},{"trial":7,"action":1,"button_pressed":10,"time_out":false,"dwell_time":63.89599609375,"response_time":1681775349220.41},{"trial":7,"action":1,"button_pressed":4,"time_out":false,"dwell_time":81.817138671875,"response_time":1681775349554.6},{"trial":7,"action":1,"button_pressed":1,"time_out":false,"dwell_time":48.60205078125,"response_time":1681775350071.33},{"trial":7,"action":9,"button_pressed":-1,"time_out":false,"dwell_time":82.094970703125,"response_time":1681775350737.82},{"trial":8,"action":1,"button_pressed":9,"time_out":false,"dwell_time":65.277099609375,"response_time":1681775367532.39},{"trial":8,"action":1,"button_pressed":1,"time_out":false,"dwell_time":63.4189453125,"response_time":1681775367831.09},{"trial":8,"action":1,"button_pressed":2,"time_out":false,"dwell_time":98.07177734375,"response_time":1681775368748.19},{"trial":8,"action":1,"button_pressed":8,"time_out":false,"dwell_time":64.032958984375,"response_time":1681775369081.45},{"trial":8,"action":1,"button_pressed":6,"time_out":false,"dwell_time":48.4169921875,"response_time":1681775369464.92},{"trial":8,"action":1,"button_pressed":11,"time_out":false,"dwell_time":30.678955078125,"response_time":1681775369747.85},{"trial":8,"action":9,"button_pressed":-1,"time_out":false,"dwell_time":81.248046875,"response_time":1681775370547.32},{"trial":9,"action":1,"button_pressed":0,"time_out":false,"dwell_time":65.06201171875,"response_time":1681775390207.86},{"trial":9,"action":1,"button_pressed":8,"time_out":false,"dwell_time":47.031982421875,"response_time":1681775390674.09},{"trial":9,"action":1,"button_pressed":5,"time_out":false,"dwell_time":47.419921875,"response_time":1681775391024.06},{"trial":9,"action":1,"button_pressed":6,"time_out":false,"dwell_time":64.698974609375,"response_time":1681775391524.09},{"trial":9,"action":1,"button_pressed":10,"time_out":false,"dwell_time":64.81787109375,"response_time":1681775392223.81},{"trial":9,"action":1,"button_pressed":2,"time_out":false,"dwell_time":31.342041015625,"response_time":1681775392706.75},{"trial":9,"action":1,"button_pressed":9,"time_out":false,"dwell_time":30.4140625,"response_time":1681775393306.51},{"trial":9,"action":9,"button_pressed":-1,"time_out":false,"dwell_time":114.0390625,"response_time":1681775394406.31},{"trial":10,"action":1,"button_pressed":7,"time_out":false,"dwell_time":48.0390625,"response_time":1681775417365.61},{"trial":10,"action":1,"button_pressed":5,"time_out":false,"dwell_time":48.10888671875,"response_time":1681775417948.68},{"trial":10,"action":1,"button_pressed":3,"time_out":false,"dwell_time":63.683837890625,"response_time":1681775418731.41},{"trial":10,"action":1,"button_pressed":4,"time_out":false,"dwell_time":98.18505859375,"response_time":1681775422514.05},{"trial":10,"action":1,"button_pressed":1,"time_out":false,"dwell_time":64.90185546875,"response_time":1681775423213.75},{"trial":10,"action":1,"button_pressed":9,"time_out":false,"dwell_time":64.826171875,"response_time":1681775423763.7},{"trial":10,"action":1,"button_pressed":2,"time_out":false,"dwell_time":47.951171875,"response_time":1681775424329.83},{"trial":10,"action":1,"button_pressed":8,"time_out":false,"dwell_time":48.616943359375,"response_time":1681775424730.45},{"trial":10,"action":9,"button_pressed":-1,"time_out":false,"dwell_time":114.756103515625,"response_time":1681775425846.4},{"trial":11,"action":1,"button_pressed":11,"time_out":false,"dwell_time":64.10205078125,"response_time":1681775448021.91},{"trial":11,"action":1,"button_pressed":6,"time_out":false,"dwell_time":81.16796875,"response_time":1681775448372.21},{"trial":11,"action":1,"button_pressed":9,"time_out":false,"dwell_time":64.452880859375,"response_time":1681775448639.3},{"trial":11,"action":1,"button_pressed":7,"time_out":false,"dwell_time":63.868896484375,"response_time":1681775449004.8},{"trial":11,"action":1,"button_pressed":4,"time_out":false,"dwell_time":147.22900390625,"response_time":1681775450321.68},{"trial":11,"action":1,"button_pressed":2,"time_out":false,"dwell_time":64.0068359375,"response_time":1681775450888.03},{"trial":11,"action":1,"button_pressed":8,"time_out":false,"dwell_time":80.81005859375,"response_time":1681775451354.08},{"trial":11,"action":1,"button_pressed":10,"time_out":false,"dwell_time":64.89404296875,"response_time":1681775451671.24},{"trial":11,"action":1,"button_pressed":1,"time_out":false,"dwell_time":14.330078125,"response_time":1681775452154.01},{"trial":11,"action":9,"button_pressed":-1,"time_out":false,"dwell_time":97.197021484375,"response_time":1681775453020.61}]}