{"meta_data":{"additional_headers":{},"game_name":"Recollect","version":"2.53.01","user_name":"76","organization":"braingamecenter","study":"mpl2_2022_11","session_number":0,"device_id":"74342D95-EE82-45E3-8ADF-48FB3203C5DD"},"data":[{"stage":"Practice","trial":0,"sequence":"6F","letter_input":"","number_input":"","is_correct":false,"presentation_start_time":1681775481409.98,"presentation_end_time":1681775484411.11,"response_time":1681775493126.48},{"stage":"Practice","trial":1,"sequence":"G4","letter_input":"G","number_input":"4","is_correct":true,"presentation_start_time":1681775496155.12,"presentation_end_time":1681775499156.38,"response_time":1681775509667.6},{"stage":"Practice","trial":2,"sequence":"3W5","letter_input":"W","number_input":"35","is_correct":true,"presentation_start_time":1681775511200.29,"presentation_end_time":1681775515701.07,"response_time":1681775521630.35},{"stage":"Practice","trial":3,"sequence":"T7L","letter_input":"L","number_input":"47","is_correct":false,"presentation_start_time":1681775523163.11,"presentation_end_time":1681775527663.77,"response_time":1681775533176.62},{"stage":"Practice","trial":4,"sequence":"9J1","letter_input":"J","number_input":"19","is_correct":true,"presentation_start_time":1681775536208.89,"presentation_end_time":1681775540709.61,"response_time":1681775544239.76},{"stage":"Calibration","trial":0,"sequence":"D5","letter_input":"D","number_input":"5","is_correct":true,"presentation_start_time":1681775555286.07,"presentation_end_time":1681775558287.17,"response_time":1681775562617.15},{"stage":"Calibration","trial":1,"sequence":"1S","letter_input":"S","number_input":"1","is_correct":true,"presentation_start_time":1681775564149.85,"presentation_end_time":1681775567150.95,"response_time":1681775570681.21},{"stage":"Calibration","trial":2,"sequence":"R4C","letter_input":"CR","number_input":"4","is_correct":true,"presentation_start_time":1681775572213.97,"presentation_end_time":1681775576714.66,"response_time":1681775584726.61},{"stage":"Calibration","trial":3,"sequence":"7J1","letter_input":"J","number_input":"17","is_correct":true,"presentation_start_time":1681775586259.39,"presentation_end_time":1681775590760,"response_time":1681775597289.33},{"stage":"Calibration","trial":4,"sequence":"K8F5","letter_input":"FK","number_input":"58","is_correct":true,"presentation_start_time":1681775598821.97,"presentation_end_time":1681775604822.15,"response_time":1681775611617.88},{"stage":"Calibration","trial":5,"sequence":"4Y1T","letter_input":"TY","number_input":"14","is_correct":true,"presentation_start_time":1681775613150.64,"presentation_end_time":1681775619150.94,"response_time":1681775624847.09},{"stage":"Calibration","trial":6,"sequence":"V9J2F","letter_input":"FJV","number_input":"17","is_correct":false,"presentation_start_time":1681775626379.73,"presentation_end_time":1681775633879.47,"response_time":1681775641941.43},{"stage":"Calibration","trial":7,"sequence":"6M1A8","letter_input":"JLF","number_input":"18","is_correct":false,"presentation_start_time":1681775643474.16,"presentation_end_time":1681775650973.93,"response_time":1681775658669.35}]}