{"meta_data":{"additional_headers":{},"game_name":"Recollect","version":"2.53.01","user_name":"77","organization":"braingamecenter","study":"mpl2_2022_11","session_number":0,"device_id":"74342D95-EE82-45E3-8ADF-48FB3203C5DD"},"data":[{"stage":"Practice","trial":0,"sequence":"6F","letter_input":"F","number_input":"6","is_correct":true,"presentation_start_time":1681843936980.84,"presentation_end_time":1681843939982.02,"response_time":1681843949646.67},{"stage":"Practice","trial":1,"sequence":"G4","letter_input":"G","number_input":"4","is_correct":true,"presentation_start_time":1681843951176.21,"presentation_end_time":1681843954177.48,"response_time":1681843967171.05},{"stage":"Practice","trial":2,"sequence":"3W5","letter_input":"W","number_input":"35","is_correct":true,"presentation_start_time":1681843968703.7,"presentation_end_time":1681843973204.39,"response_time":1681843981866.3},{"stage":"Practice","trial":3,"sequence":"T7L","letter_input":"LT","number_input":"7","is_correct":true,"presentation_start_time":1681843983398.88,"presentation_end_time":1681843987899.52,"response_time":1681844023352.44},{"stage":"Practice","trial":4,"sequence":"9J1","letter_input":"J","number_input":"19","is_correct":true,"presentation_start_time":1681844024885.27,"presentation_end_time":1681844029385.95,"response_time":1681844036681.45},{"stage":"Calibration","trial":0,"sequence":"Y8","letter_input":"Y","number_input":"8","is_correct":true,"presentation_start_time":1681844052009.65,"presentation_end_time":1681844055010.82,"response_time":1681844060007.04},{"stage":"Calibration","trial":1,"sequence":"4P","letter_input":"P","number_input":"4","is_correct":true,"presentation_start_time":1681844061539.84,"presentation_end_time":1681844064541.06,"response_time":1681844068804.24},{"stage":"Calibration","trial":2,"sequence":"K8F","letter_input":"FK","number_input":"8","is_correct":true,"presentation_start_time":1681844070336.91,"presentation_end_time":1681844074837.65,"response_time":1681844096578.41},{"stage":"Calibration","trial":3,"sequence":"5L1","letter_input":"L","number_input":"15","is_correct":true,"presentation_start_time":1681844098111.08,"presentation_end_time":1681844102611.79,"response_time":1681844110423.79},{"stage":"Calibration","trial":4,"sequence":"K9F4","letter_input":"FK","number_input":"45","is_correct":false,"presentation_start_time":1681844111956.52,"presentation_end_time":1681844117956.69,"response_time":1681844132616.49},{"stage":"Calibration","trial":5,"sequence":"8N1E","letter_input":"EN","number_input":"18","is_correct":true,"presentation_start_time":1681844134149.16,"presentation_end_time":1681844140149.29,"response_time":1681844150693.83},{"stage":"Calibration","trial":6,"sequence":"L7F4P","letter_input":"LN","number_input":"47","is_correct":false,"presentation_start_time":1681844152226.58,"presentation_end_time":1681844159726.31,"response_time":1681844184032.76},{"stage":"Calibration","trial":7,"sequence":"3T9E6","letter_input":"ET","number_input":"369","is_correct":true,"presentation_start_time":1681844185565.55,"presentation_end_time":1681844193065.21,"response_time":1681844206958.57},{"stage":"Calibration","trial":8,"sequence":"W7Q4F1","letter_input":"QWZ","number_input":"17","is_correct":false,"presentation_start_time":1681844208491.42,"presentation_end_time":1681844217490.61,"response_time":1681844244896.1},{"stage":"Calibration","trial":9,"sequence":"9D6B3P","letter_input":"BDP","number_input":"39","is_correct":false,"presentation_start_time":1681844246428.75,"presentation_end_time":1681844255428.04,"response_time":1681844271887.13}]}