Audio_Only_Files,Video_Files,Original_Word_List,noiseLevelCode,conditionCodes,noiseLevelFile1,noiseLevelFile2,InstrTextVar,targetSpeakerName,targetSpeakerEccen,targetSpkrChannel,targetSpkrSound,targetVisualDegrees,visStimLoc,visStimLoc2,visStimW,visStimH,practiceTrials.thisRepN,practiceTrials.thisTrialN,practiceTrials.thisN,practiceTrials.thisIndex,trials.thisRepN,trials.thisTrialN,trials.thisN,trials.thisIndex,audLocalLoop.thisRepN,audLocalLoop.thisTrialN,audLocalLoop.thisN,audLocalLoop.thisIndex,visualLocalLoop.thisRepN,visualLocalLoop.thisTrialN,visualLocalLoop.thisN,visualLocalLoop.thisIndex,letsGoAlready.keys,letsGoAlready.rt,letsGoAlready.started,letsGoAlready.stopped,text_2.started,text_2.stopped,text_3.started,text_3.stopped,key_resp_2.keys,key_resp_2.rt,key_resp_2.started,key_resp_2.stopped,text_5.started,text_5.stopped,fixCross.started,fixCross.stopped,fixCross2.started,fixCross2.stopped,answerPrompt.started,answerPrompt.stopped,getAnswer.text,getAnswer.started,getAnswer.stopped,goToNext.keys,goToNext.rt,goToNext.started,goToNext.stopped,stretchBreakTxrt.started,stretchBreakTxrt.stopped,key_resp_3.keys,key_resp_3.rt,key_resp_3.started,key_resp_3.stopped,letsGoLocal.keys,letsGoLocal.rt,letsGoLocal.started,letsGoLocal.stopped,text_4.started,text_4.stopped,prepFixTxt.started,prepFixTxt.stopped,prepFixTxt_2.started,prepFixTxt_2.stopped,respPromptLocal.started,respPromptLocal.stopped,slider.response,slider.rt,slider.started,slider.stopped,letsGoLocal_2.keys,letsGoLocal_2.rt,letsGoLocal_2.started,letsGoLocal_2.stopped,text_7.started,text_7.stopped,prepFixTxt_3.started,prepFixTxt_3.stopped,grating.started,grating.stopped,exitTxt.started,exitTxt.stopped,key_resp.keys,key_resp.rt,key_resp.started,key_resp.stopped,participant,session,date,expName,psychopyVersion,frameRate,
,,,,,,,,,,,,,,,,,,,,,,,,,,,,,,,,,space,1.3418059470131993,10.097449442837387,None,,,,,,,,,,,,,,,,,,,,,,,,,,,,,,,,,,,,,,,,,,,,,,,,,,,,,,,,,,,,,,77,001,2023_Apr_18_1307,SpeechDraft1Carolyn_lessNoise_PlusLocalization,2021.2.3,59.96259433681751,
,,,,,,,,,,,,,,,,,,,,,,,,,,,,,,,,,,,,,10.097449442837387,None,11.561096209101379,None,space,0.4391935998573899,11.74408893007785,None,,,,,,,,,,,,,,,,,,,,,,,,,,,,,,,,,,,,,,,,,,,,,,,,,,,,,,77,001,2023_Apr_18_1307,SpeechDraft1Carolyn_lessNoise_PlusLocalization,2021.2.3,59.96259433681751,
ash.wav,ash.mpg,ash,1,A,Pink_Noise_1_1.wav,Pink_Noise_1_2.wav,"This is an example of an

AUDIO trial",,,,,,,,,,0,0,0,0,,,,,,,,,,,,,,,,,,,,,,,,,12.22815945604816,None,13.227257412858307,None,15.310367484111339,None,16.69546438381076,None,"ash
",16.69546438381076,None,return,4.933947104029357,16.77730270801112,None,,,,,,,,,,,,,,,,,,,,,,,,,,,,,,,,,,,,,,,77,001,2023_Apr_18_1307,SpeechDraft1Carolyn_lessNoise_PlusLocalization,2021.2.3,59.96259433681751,
ash.wav,ash.mpg,ash,1,AV,Pink_Noise_1_1.wav,Pink_Noise_1_2.wav,"This is an example of an

AUDIO + VIDEO  trial",,,,,,,,,,0,1,1,1,,,,,,,,,,,,,,,,,,,,,,,,,21.760435758158565,None,22.76065193582326,None,24.260303954128176,None,25.644124968908727,None,ash,25.644124968908727,None,return,2.8560340590775013,25.727354718837887,None,,,,,,,,,,,,,,,,,,,,,,,,,,,,,,,,,,,,,,,77,001,2023_Apr_18_1307,SpeechDraft1Carolyn_lessNoise_PlusLocalization,2021.2.3,59.96259433681751,
,,,,,,,,,,,,,,,,,,,,,,,,,,,,,,,,,,,,,,,,,,,,,,,,,,,,,,,,,,,,28.627170031890273,None,space,22.204588944092393,28.810760653112084,None,,,,,,,,,,,,,,,,,,,,,,,,,,,,,,,,,77,001,2023_Apr_18_1307,SpeechDraft1Carolyn_lessNoise_PlusLocalization,2021.2.3,59.96259433681751,
deck.wav,deck.mpg,deck,4,A,Pink_Noise_4_1.wav,Pink_Noise_4_2.wav,,,,,,,,,,,,,,,0,0,0,30,,,,,,,,,,,,,,,,,,,,,,,51.07716172514483,None,52.560350101906806,None,53.94402130693197,None,sex,53.94402130693197,None,return,24.92393291182816,54.027380087878555,None,,,,,,,,,,,,,,,,,,,,,,,,,,,,,,,,,,,,,,,77,001,2023_Apr_18_1307,SpeechDraft1Carolyn_lessNoise_PlusLocalization,2021.2.3,59.96259433681751,
eight.wav,eight.mpg,eight,2,AV,Pink_Noise_2_1.wav,Pink_Noise_2_2.wav,,,,,,,,,,,,,,,0,1,1,71,,,,,,,,,,,,,,,,,,,,,,,78.97737256577238,None,80.47708033910021,None,81.86064859805629,None,"h
",81.86064859805629,None,return,7.7189155369997025,81.94432702381164,None,,,,,,,,,,,,,,,,,,,,,,,,,,,,,,,,,,,,,,,77,001,2023_Apr_18_1307,SpeechDraft1Carolyn_lessNoise_PlusLocalization,2021.2.3,59.96259433681751,
coil.wav,coil.mpg,coil,2,A,Pink_Noise_2_1.wav,Pink_Noise_2_2.wav,,,,,,,,,,,,,,,0,2,2,28,,,,,,,,,,,,,,,,,,,,,,,89.69403479993343,None,91.19368294300511,None,92.57744762580842,None,coil,92.57744762580842,None,return,34.69056694721803,92.66084362613037,None,,,,,,,,,,,,,,,,,,,,,,,,,,,,,,,,,,,,,,,77,001,2023_Apr_18_1307,SpeechDraft1Carolyn_lessNoise_PlusLocalization,2021.2.3,59.96259433681751,
brawl.wav,brawl.mpg,brawl,1,A,Pink_Noise_1_1.wav,Pink_Noise_1_2.wav,,,,,,,,,,,,,,,0,3,3,32,,,,,,,,,,,,,,,,,,,,,,,127.37745233811438,None,128.86103894375265,None,130.24441837193444,None,brawl,130.24441837193444,None,return,39.575794770848006,130.32744661578909,None,,,,,,,,,,,,,,,,,,,,,,,,,,,,,,,,,,,,,,,77,001,2023_Apr_18_1307,SpeechDraft1Carolyn_lessNoise_PlusLocalization,2021.2.3,59.96259433681751,
fat.wav,fat.mpg,fat,3,AV,Pink_Noise_3_1.wav,Pink_Noise_3_2.wav,,,,,,,,,,,,,,,0,4,4,73,,,,,,,,,,,,,,,,,,,,,,,169.92757551698014,None,171.42733326600865,None,172.8108842521906,None,pet,172.8108842521906,None,return,11.713156232144684,172.89420812018216,None,,,,,,,,,,,,,,,,,,,,,,,,,,,,,,,,,,,,,,,77,001,2023_Apr_18_1307,SpeechDraft1Carolyn_lessNoise_PlusLocalization,2021.2.3,59.96259433681751,
roar.wav,roar.mpg,roar,2,A,Pink_Noise_2_1.wav,Pink_Noise_2_2.wav,,,,,,,,,,,,,,,0,5,5,40,,,,,,,,,,,,,,,,,,,,,,,184.62751149013638,None,186.12718882085755,None,187.51094939606264,None,"roar
",187.51094939606264,None,return,7.517086253035814,187.59415928600356,None,,,,,,,,,,,,,,,,,,,,,,,,,,,,,,,,,,,,,,,77,001,2023_Apr_18_1307,SpeechDraft1Carolyn_lessNoise_PlusLocalization,2021.2.3,59.96259433681751,
core.wav,core.mpg,core,5,A,Pink_Noise_5_1.wav,Pink_Noise_5_2.wav,,,,,,,,,,,,,,,0,6,6,15,,,,,,,,,,,,,,,,,,,,,,,195.14415588183329,None,196.64382560411468,None,198.02756939595565,None,pond,198.02756939595565,None,return,20.240579495206475,198.1107792709954,None,,,,,,,,,,,,,,,,,,,,,,,,,,,,,,,,,,,,,,,77,001,2023_Apr_18_1307,SpeechDraft1Carolyn_lessNoise_PlusLocalization,2021.2.3,59.96259433681751,
flirt.wav,flirt.mpg,flirt,6,A,Pink_Noise_6_1.wav,Pink_Noise_6_2.wav,,,,,,,,,,,,,,,0,7,7,14,,,,,,,,,,,,,,,,,,,,,,,218.37753739813343,None,219.87727672606707,None,221.26093847677112,None,fork,221.26093847677112,None,return,7.206940193194896,221.34440798684955,None,,,,,,,,,,,,,,,,,,,,,,,,,,,,,,,,,,,,,,,77,001,2023_Apr_18_1307,SpeechDraft1Carolyn_lessNoise_PlusLocalization,2021.2.3,59.96259433681751,
pride.wav,pride.mpg,pride,6,AV,Pink_Noise_6_1.wav,Pink_Noise_6_2.wav,,,,,,,,,,,,,,,0,8,8,101,,,,,,,,,,,,,,,,,,,,,,,228.57754487078637,None,230.07726486306638,None,231.46090372791514,None,brawl,231.46090372791514,None,return,11.447038356680423,231.54429181991145,None,,,,,,,,,,,,,,,,,,,,,,,,,,,,,,,,,,,,,,,77,001,2023_Apr_18_1307,SpeechDraft1Carolyn_lessNoise_PlusLocalization,2021.2.3,59.96259433681751,
bias.wav,bias.mpg,bias,4,AV,Pink_Noise_4_1.wav,Pink_Noise_4_2.wav,,,,,,,,,,,,,,,0,9,9,85,,,,,,,,,,,,,,,,,,,,,,,243.01101846573874,None,244.510678042192,None,245.8944211071357,None,biased,245.8944211071357,None,return,2.78168670181185,245.97763043595478,None,,,,,,,,,,,,,,,,,,,,,,,,,,,,,,,,,,,,,,,77,001,2023_Apr_18_1307,SpeechDraft1Carolyn_lessNoise_PlusLocalization,2021.2.3,59.96259433681751,
freak.wav,freak.mpg,freak,6,A,Pink_Noise_6_1.wav,Pink_Noise_6_2.wav,,,,,,,,,,,,,,,0,10,10,16,,,,,,,,,,,,,,,,,,,,,,,248.7776556168683,None,250.27727394690737,None,251.66104319598526,None,sec,251.66104319598526,None,return,5.942850861232728,251.744380753953,None,,,,,,,,,,,,,,,,,,,,,,,,,,,,,,,,,,,,,,,77,001,2023_Apr_18_1307,SpeechDraft1Carolyn_lessNoise_PlusLocalization,2021.2.3,59.96259433681751,
carve.wav,carve.mpg,carve,3,A,Pink_Noise_3_1.wav,Pink_Noise_3_2.wav,,,,,,,,,,,,,,,0,11,11,9,,,,,,,,,,,,,,,,,,,,,,,257.7111139059998,None,259.2105275099166,None,260.57763401279226,None,car,260.57763401279226,None,return,1.4102342338301241,260.6609974768944,None,,,,,,,,,,,,,,,,,,,,,,,,,,,,,,,,,,,,,,,77,001,2023_Apr_18_1307,SpeechDraft1Carolyn_lessNoise_PlusLocalization,2021.2.3,59.96259433681751,
slush.wav,slush.mpg,slush,4,AV,Pink_Noise_4_1.wav,Pink_Noise_4_2.wav,,,,,,,,,,,,,,,0,12,12,91,,,,,,,,,,,,,,,,,,,,,,,262.0943364677951,None,263.5939195458777,None,264.97767844609916,None,slush,264.97767844609916,None,return,2.0979797719046474,265.06131529575214,None,,,,,,,,,,,,,,,,,,,,,,,,,,,,,,,,,,,,,,,77,001,2023_Apr_18_1307,SpeechDraft1Carolyn_lessNoise_PlusLocalization,2021.2.3,59.96259433681751,
beat.wav,beat.mpg,beat,5,AV,Pink_Noise_5_1.wav,Pink_Noise_5_2.wav,,,,,,,,,,,,,,,0,13,13,88,,,,,,,,,,,,,,,,,,,,,,,267.1776502141729,None,268.67724777618423,None,270.06097725592554,None,ear,270.06097725592554,None,return,1.2071441416628659,270.14424323802814,None,,,,,,,,,,,,,,,,,,,,,,,,,,,,,,,,,,,,,,,77,001,2023_Apr_18_1307,SpeechDraft1Carolyn_lessNoise_PlusLocalization,2021.2.3,59.96259433681751,
grown.wav,grown.mpg,grown,1,A,Pink_Noise_1_1.wav,Pink_Noise_1_2.wav,,,,,,,,,,,,,,,0,14,14,39,,,,,,,,,,,,,,,,,,,,,,,271.3776019047946,None,272.87720138486475,None,274.2611158769578,None,grow,274.2611158769578,None,return,2.286919810809195,274.3443220271729,None,,,,,,,,,,,,,,,,,,,,,,,,,,,,,,,,,,,,,,,77,001,2023_Apr_18_1307,SpeechDraft1Carolyn_lessNoise_PlusLocalization,2021.2.3,59.96259433681751,
fame.wav,fame.mpg,fame,6,A,Pink_Noise_6_1.wav,Pink_Noise_6_2.wav,,,,,,,,,,,,,,,0,15,15,42,,,,,,,,,,,,,,,,,,,,,,,276.6610410870053,None,278.1609148280695,None,279.54431717284024,None,pen,279.54431717284024,None,return,3.9717012820765376,279.6276452750899,None,,,,,,,,,,,,,,,,,,,,,,,,,,,,,,,,,,,,,,,77,001,2023_Apr_18_1307,SpeechDraft1Carolyn_lessNoise_PlusLocalization,2021.2.3,59.96259433681751,
dish.wav,dish.mpg,dish,5,AV,Pink_Noise_5_1.wav,Pink_Noise_5_2.wav,,,,,,,,,,,,,,,0,16,16,97,,,,,,,,,,,,,,,,,,,,,,,283.6277420031838,None,285.1273005618714,None,286.51095921499655,None,dish,286.51095921499655,None,return,3.965056227054447,286.59438229817897,None,,,,,,,,,,,,,,,,,,,,,,,,,,,,,,,,,,,,,,,77,001,2023_Apr_18_1307,SpeechDraft1Carolyn_lessNoise_PlusLocalization,2021.2.3,59.96259433681751,
fate.wav,fate.mpg,fate,1,AV,Pink_Noise_1_1.wav,Pink_Noise_1_2.wav,,,,,,,,,,,,,,,0,17,17,100,,,,,,,,,,,,,,,,,,,,,,,290.5777138969861,None,292.077382797841,None,293.46104199113324,None,faint,293.46104199113324,None,return,7.606969594024122,293.5443970230408,None,,,,,,,,,,,,,,,,,,,,,,,,,,,,,,,,,,,,,,,77,001,2023_Apr_18_1307,SpeechDraft1Carolyn_lessNoise_PlusLocalization,2021.2.3,59.96259433681751,
blink.wav,blink.mpg,blink,6,A,Pink_Noise_6_1.wav,Pink_Noise_6_2.wav,,,,,,,,,,,,,,,0,18,18,52,,,,,,,,,,,,,,,,,,,,,,,301.1777500747703,None,302.6773918499239,None,304.0610652579926,None,"slush
",304.0610652579926,None,return,2.302839510142803,304.1443910030648,None,,,,,,,,,,,,,,,,,,,,,,,,,,,,,,,,,,,,,,,77,001,2023_Apr_18_1307,SpeechDraft1Carolyn_lessNoise_PlusLocalization,2021.2.3,59.96259433681751,
cake.wav,cake.mpg,cake,3,A,Pink_Noise_3_1.wav,Pink_Noise_3_2.wav,,,,,,,,,,,,,,,0,19,19,7,,,,,,,,,,,,,,,,,,,,,,,306.47772708395496,None,307.97736207582057,None,309.3611376131885,None,cake,309.3611376131885,None,return,1.9308547680266201,309.44441822590306,None,,,,,,,,,,,,,,,,,,,,,,,,,,,,,,,,,,,,,,,77,001,2023_Apr_18_1307,SpeechDraft1Carolyn_lessNoise_PlusLocalization,2021.2.3,59.96259433681751,
claim.wav,claim.mpg,claim,4,A,Pink_Noise_4_1.wav,Pink_Noise_4_2.wav,,,,,,,,,,,,,,,0,20,20,43,,,,,,,,,,,,,,,,,,,,,,,311.39443656476215,None,312.89417960494757,None,314.27769265091047,None,cake,314.27769265091047,None,return,11.374258398078382,314.3610262828879,None,,,,,,,,,,,,,,,,,,,,,,,,,,,,,,,,,,,,,,,77,001,2023_Apr_18_1307,SpeechDraft1Carolyn_lessNoise_PlusLocalization,2021.2.3,59.96259433681751,
game.wav,game.mpg,game,6,AV,Pink_Noise_6_1.wav,Pink_Noise_6_2.wav,,,,,,,,,,,,,,,0,21,21,86,,,,,,,,,,,,,,,,,,,,,,,325.76109034987167,None,327.2607258888893,None,328.6445062761195,None,game ,328.6445062761195,None,return,1.6395565387792885,328.7277961918153,None,,,,,,,,,,,,,,,,,,,,,,,,,,,,,,,,,,,,,,,77,001,2023_Apr_18_1307,SpeechDraft1Carolyn_lessNoise_PlusLocalization,2021.2.3,59.96259433681751,
nine.wav,nine.mpg,nine,3,A,Pink_Noise_3_1.wav,Pink_Noise_3_2.wav,,,,,,,,,,,,,,,0,22,22,55,,,,,,,,,,,,,,,,,,,,,,,330.39444579090923,None,331.8940223539248,None,333.2778204381466,None,"done
",333.2778204381466,None,return,2.102011727169156,333.3612092989497,None,,,,,,,,,,,,,,,,,,,,,,,,,,,,,,,,,,,,,,,77,001,2023_Apr_18_1307,SpeechDraft1Carolyn_lessNoise_PlusLocalization,2021.2.3,59.96259433681751,
bright.wav,bright.mpg,bright,2,AV,Pink_Noise_2_1.wav,Pink_Noise_2_2.wav,,,,,,,,,,,,,,,0,23,23,119,,,,,,,,,,,,,,,,,,,,,,,335.4943284750916,None,336.9942080909386,None,338.37776042800397,None,bright,338.37776042800397,None,return,3.122252109926194,338.46110860304907,None,,,,,,,,,,,,,,,,,,,,,,,,,,,,,,,,,,,,,,,77,001,2023_Apr_18_1307,SpeechDraft1Carolyn_lessNoise_PlusLocalization,2021.2.3,59.96259433681751,
broad.wav,broad.mpg,broad,2,AV,Pink_Noise_2_1.wav,Pink_Noise_2_2.wav,,,,,,,,,,,,,,,0,24,24,110,,,,,,,,,,,,,,,,,,,,,,,341.61114628985524,None,343.1107496768236,None,344.4942977228202,None,broad,344.4942977228202,None,return,2.8216634350828826,344.5778086418286,None,,,,,,,,,,,,,,,,,,,,,,,,,,,,,,,,,,,,,,,77,001,2023_Apr_18_1307,SpeechDraft1Carolyn_lessNoise_PlusLocalization,2021.2.3,59.96259433681751,
broom.wav,broom.mpg,broom,6,A,Pink_Noise_6_1.wav,Pink_Noise_6_2.wav,,,,,,,,,,,,,,,0,25,25,44,,,,,,,,,,,,,,,,,,,,,,,347.42780054779723,None,348.927484548185,None,350.3111418117769,None,dish,350.3111418117769,None,return,1.7088318248279393,350.3944250838831,None,,,,,,,,,,,,,,,,,,,,,,,,,,,,,,,,,,,,,,,77,001,2023_Apr_18_1307,SpeechDraft1Carolyn_lessNoise_PlusLocalization,2021.2.3,59.96259433681751,
crisp.wav,crisp.mpg,crisp,5,A,Pink_Noise_5_1.wav,Pink_Noise_5_2.wav,,,,,,,,,,,,,,,0,26,26,49,,,,,,,,,,,,,,,,,,,,,,,352.1277424711734,None,353.6274081240408,None,355.0110536618158,None,dish,355.0110536618158,None,return,5.4486291678622365,355.0946691217832,None,,,,,,,,,,,,,,,,,,,,,,,,,,,,,,,,,,,,,,,77,001,2023_Apr_18_1307,SpeechDraft1Carolyn_lessNoise_PlusLocalization,2021.2.3,59.96259433681751,
dune.wav,dune.mpg,dune,4,A,Pink_Noise_4_1.wav,Pink_Noise_4_2.wav,,,,,,,,,,,,,,,0,27,27,37,,,,,,,,,,,,,,,,,,,,,,,360.5610225889832,None,362.06089098379016,None,363.4444456198253,None,do,363.4444456198253,None,return,2.0074202241376042,363.52794360974804,None,,,,,,,,,,,,,,,,,,,,,,,,,,,,,,,,,,,,,,,77,001,2023_Apr_18_1307,SpeechDraft1Carolyn_lessNoise_PlusLocalization,2021.2.3,59.96259433681751,
steam.wav,steam.mpg,steam,5,A,Pink_Noise_5_1.wav,Pink_Noise_5_2.wav,,,,,,,,,,,,,,,0,28,28,20,,,,,,,,,,,,,,,,,,,,,,,365.5611500707455,None,367.061127781868,None,368.44462108192965,None,sleep,368.44462108192965,None,return,4.623549085576087,368.5277909557335,None,,,,,,,,,,,,,,,,,,,,,,,,,,,,,,,,,,,,,,,77,001,2023_Apr_18_1307,SpeechDraft1Carolyn_lessNoise_PlusLocalization,2021.2.3,59.96259433681751,
birth.wav,birth.mpg,birth,4,AV,Pink_Noise_4_1.wav,Pink_Noise_4_2.wav,,,,,,,,,,,,,,,0,29,29,74,,,,,,,,,,,,,,,,,,,,,,,373.1778340539895,None,374.6775112939067,None,376.0611498588696,None,both,376.0611498588696,None,return,19.638801959343255,376.14454886317253,None,,,,,,,,,,,,,,,,,,,,,,,,,,,,,,,,,,,,,,,77,001,2023_Apr_18_1307,SpeechDraft1Carolyn_lessNoise_PlusLocalization,2021.2.3,59.96259433681751,
droop.wav,droop.mpg,droop,1,AV,Pink_Noise_1_1.wav,Pink_Noise_1_2.wav,,,,,,,,,,,,,,,0,30,30,78,,,,,,,,,,,,,,,,,,,,,,,395.8111839471385,None,397.327498130966,None,398.71101523190737,None,droop,398.71101523190737,None,return,36.42868642322719,398.7945562158711,None,,,,,,,,,,,,,,,,,,,,,,,,,,,,,,,,,,,,,,,77,001,2023_Apr_18_1307,SpeechDraft1Carolyn_lessNoise_PlusLocalization,2021.2.3,59.96259433681751,
flesh.wav,flesh.mpg,flesh,1,A,Pink_Noise_1_1.wav,Pink_Noise_1_2.wav,,,,,,,,,,,,,,,0,31,31,24,,,,,,,,,,,,,,,,,,,,,,,435.24458575900644,None,436.74425430595875,None,438.1280084247701,None,"flush
",438.1280084247701,None,return,9.051790930796415,438.21145434491336,None,,,,,,,,,,,,,,,,,,,,,,,,,,,,,,,,,,,,,,,77,001,2023_Apr_18_1307,SpeechDraft1Carolyn_lessNoise_PlusLocalization,2021.2.3,59.96259433681751,
camp.wav,camp.mpg,camp,1,AV,Pink_Noise_1_1.wav,Pink_Noise_1_2.wav,,,,,,,,,,,,,,,0,32,32,66,,,,,,,,,,,,,,,,,,,,,,,447.2945029148832,None,448.7943751369603,None,450.1777949850075,None,camp,450.1777949850075,None,return,3.649983550887555,450.2612933367491,None,,,,,,,,,,,,,,,,,,,,,,,,,,,,,,,,,,,,,,,77,001,2023_Apr_18_1307,SpeechDraft1Carolyn_lessNoise_PlusLocalization,2021.2.3,59.96259433681751,
grail.wav,grail.mpg,grail,1,AV,Pink_Noise_1_1.wav,Pink_Noise_1_2.wav,,,,,,,,,,,,,,,0,33,33,61,,,,,,,,,,,,,,,,,,,,,,,453.9279991709627,None,455.4284531609155,None,456.81125414697453,None,"grail
",456.81125414697453,None,return,2.5846934872679412,456.89454125985503,None,,,,,,,,,,,,,,,,,,,,,,,,,,,,,,,,,,,,,,,77,001,2023_Apr_18_1307,SpeechDraft1Carolyn_lessNoise_PlusLocalization,2021.2.3,59.96259433681751,
blind.wav,blind.mpg,blind,3,AV,Pink_Noise_3_1.wav,Pink_Noise_3_2.wav,,,,,,,,,,,,,,,0,34,34,63,,,,,,,,,,,,,,,,,,,,,,,459.5113175790757,None,461.0110253910534,None,462.39449298009276,None,blood,462.39449298009276,None,return,14.657337397802621,462.47801125980914,None,,,,,,,,,,,,,,,,,,,,,,,,,,,,,,,,,,,,,,,77,001,2023_Apr_18_1307,SpeechDraft1Carolyn_lessNoise_PlusLocalization,2021.2.3,59.96259433681751,
cloud.wav,cloud.mpg,cloud,4,AV,Pink_Noise_4_1.wav,Pink_Noise_4_2.wav,,,,,,,,,,,,,,,0,35,35,108,,,,,,,,,,,,,,,,,,,,,,,477.16140395915136,None,478.66096875909716,None,480.0446095978841,None,cloud,480.0446095978841,None,return,12.895379669964314,480.1278725271113,None,,,,,,,,,,,,,,,,,,,,,,,,,,,,,,,,,,,,,,,77,001,2023_Apr_18_1307,SpeechDraft1Carolyn_lessNoise_PlusLocalization,2021.2.3,59.96259433681751,
fuss.wav,fuss.mpg,fuss,4,A,Pink_Noise_4_1.wav,Pink_Noise_4_2.wav,,,,,,,,,,,,,,,0,36,36,41,,,,,,,,,,,,,,,,,,,,,,,493.0446941750124,None,494.5442463029176,None,495.92811045004055,None,sus,495.92811045004055,None,return,2.5239554811269045,496.01147322403267,None,,,,,,,,,,,,,,,,,,,,,,,,,,,,,,,,,,,,,,,77,001,2023_Apr_18_1307,SpeechDraft1Carolyn_lessNoise_PlusLocalization,2021.2.3,59.96259433681751,
live.wav,live.mpg,live,6,A,Pink_Noise_6_1.wav,Pink_Noise_6_2.wav,,,,,,,,,,,,,,,0,37,37,18,,,,,,,,,,,,,,,,,,,,,,,498.5613688137382,None,500.06091763591394,None,501.4446551199071,None,"blood
",501.4446551199071,None,return,8.903262805193663,501.5280029498972,None,,,,,,,,,,,,,,,,,,,,,,,,,,,,,,,,,,,,,,,77,001,2023_Apr_18_1307,SpeechDraft1Carolyn_lessNoise_PlusLocalization,2021.2.3,59.96259433681751,
barge.wav,barge.mpg,barge,2,A,Pink_Noise_2_1.wav,Pink_Noise_2_2.wav,,,,,,,,,,,,,,,0,38,38,51,,,,,,,,,,,,,,,,,,,,,,,510.4613539748825,None,511.9609878277406,None,513.3447048240341,None,barge,513.3447048240341,None,return,2.163248121738434,513.4280989579856,None,,,,,,,,,,,,,,,,,,,,,,,,,,,,,,,,,,,,,,,77,001,2023_Apr_18_1307,SpeechDraft1Carolyn_lessNoise_PlusLocalization,2021.2.3,59.96259433681751,
choir.wav,choir.mpg,choir,1,A,Pink_Noise_1_1.wav,Pink_Noise_1_2.wav,,,,,,,,,,,,,,,0,39,39,12,,,,,,,,,,,,,,,,,,,,,,,515.6114074047655,None,517.1112201637588,None,518.4947934630327,None,quier,518.4947934630327,None,return,30.973299901001155,518.5780210797675,None,,,,,,,,,,,,,,,,,,,,,,,,,,,,,,,,,,,,,,,77,001,2023_Apr_18_1307,SpeechDraft1Carolyn_lessNoise_PlusLocalization,2021.2.3,59.96259433681751,
base.wav,base.mpg,base,4,A,Pink_Noise_4_1.wav,Pink_Noise_4_2.wav,,,,,,,,,,,,,,,0,40,40,10,,,,,,,,,,,,,,,,,,,,,,,549.578047174029,None,551.0777126760222,None,552.4613318038173,None,face,552.4613318038173,None,return,4.414642157964408,552.5446480070241,None,,,,,,,,,,,,,,,,,,,,,,,,,,,,,,,,,,,,,,,77,001,2023_Apr_18_1307,SpeechDraft1Carolyn_lessNoise_PlusLocalization,2021.2.3,59.96259433681751,
greed.wav,greed.mpg,greed,2,A,Pink_Noise_2_1.wav,Pink_Noise_2_2.wav,,,,,,,,,,,,,,,0,41,41,31,,,,,,,,,,,,,,,,,,,,,,,556.9782496890984,None,558.4943437920883,None,559.8781920140609,None,greeds,559.8781920140609,None,return,5.230000840034336,559.9613533457741,None,,,,,,,,,,,,,,,,,,,,,,,,,,,,,,,,,,,,,,,77,001,2023_Apr_18_1307,SpeechDraft1Carolyn_lessNoise_PlusLocalization,2021.2.3,59.96259433681751,
flask.wav,flask.mpg,flask,2,AV,Pink_Noise_2_1.wav,Pink_Noise_2_2.wav,,,,,,,,,,,,,,,0,42,42,93,,,,,,,,,,,,,,,,,,,,,,,565.2113886089064,None,566.7110874089412,None,568.0946901761927,None,flask,568.0946901761927,None,return,3.3811340029351413,568.1781165781431,None,,,,,,,,,,,,,,,,,,,,,,,,,,,,,,,,,,,,,,,77,001,2023_Apr_18_1307,SpeechDraft1Carolyn_lessNoise_PlusLocalization,2021.2.3,59.96259433681751,
bull.wav,bull.mpg,bull,2,AV,Pink_Noise_2_1.wav,Pink_Noise_2_2.wav,,,,,,,,,,,,,,,0,43,43,98,,,,,,,,,,,,,,,,,,,,,,,571.5780467940494,None,573.0777961639687,None,574.461363282986,None,bull,574.461363282986,None,return,16.806579395197332,574.5448048007675,None,,,,,,,,,,,,,,,,,,,,,,,,,,,,,,,,,,,,,,,77,001,2023_Apr_18_1307,SpeechDraft1Carolyn_lessNoise_PlusLocalization,2021.2.3,59.96259433681751,
shed.wav,shed.mpg,shed,3,A,Pink_Noise_3_1.wav,Pink_Noise_3_2.wav,,,,,,,,,,,,,,,0,44,44,25,,,,,,,,,,,,,,,,,,,,,,,591.3781135650352,None,592.8777748490684,None,594.2614500639029,None,shed,594.2614500639029,None,return,11.846573281101882,594.3447599709034,None,,,,,,,,,,,,,,,,,,,,,,,,,,,,,,,,,,,,,,,77,001,2023_Apr_18_1307,SpeechDraft1Carolyn_lessNoise_PlusLocalization,2021.2.3,59.96259433681751,
deal.wav,deal.mpg,deal,3,A,Pink_Noise_3_1.wav,Pink_Noise_3_2.wav,,,,,,,,,,,,,,,0,45,45,3,,,,,,,,,,,,,,,,,,,,,,,606.2113844989799,None,607.7111738948151,None,609.0948476148769,None,tail,609.0948476148769,None,return,11.81320072710514,609.1781136891805,None,,,,,,,,,,,,,,,,,,,,,,,,,,,,,,,,,,,,,,,77,001,2023_Apr_18_1307,SpeechDraft1Carolyn_lessNoise_PlusLocalization,2021.2.3,59.96259433681751,
drink.wav,drink.mpg,drink,2,AV,Pink_Noise_2_1.wav,Pink_Noise_2_2.wav,,,,,,,,,,,,,,,0,46,46,96,,,,,,,,,,,,,,,,,,,,,,,621.0115176979452,None,622.5111838197336,None,623.8947780998424,None,drink,623.8947780998424,None,return,5.997138998005539,623.9781812611036,None,,,,,,,,,,,,,,,,,,,,,,,,,,,,,,,,,,,,,,,77,001,2023_Apr_18_1307,SpeechDraft1Carolyn_lessNoise_PlusLocalization,2021.2.3,59.96259433681751,
buff.wav,buff.mpg,buff,2,AV,Pink_Noise_2_1.wav,Pink_Noise_2_2.wav,,,,,,,,,,,,,,,0,47,47,83,,,,,,,,,,,,,,,,,,,,,,,629.9948935359716,None,631.4959150548093,None,632.8781950059347,None,"both
",632.8781950059347,None,return,4.221640896983445,632.9615967278369,None,,,,,,,,,,,,,,,,,,,,,,,,,,,,,,,,,,,,,,,77,001,2023_Apr_18_1307,SpeechDraft1Carolyn_lessNoise_PlusLocalization,2021.2.3,59.96259433681751,
fist.wav,fist.mpg,fist,3,A,Pink_Noise_3_1.wav,Pink_Noise_3_2.wav,,,,,,,,,,,,,,,0,48,48,23,,,,,,,,,,,,,,,,,,,,,,,637.211867379956,None,638.7119252649136,None,640.0948336571455,None,fist,640.0948336571455,None,return,4.629063301719725,640.1781592108309,None,,,,,,,,,,,,,,,,,,,,,,,,,,,,,,,,,,,,,,,77,001,2023_Apr_18_1307,SpeechDraft1Carolyn_lessNoise_PlusLocalization,2021.2.3,59.96259433681751,
cook.wav,cook.mpg,cook,6,AV,Pink_Noise_6_1.wav,Pink_Noise_6_2.wav,,,,,,,,,,,,,,,0,49,49,111,,,,,,,,,,,,,,,,,,,,,,,644.8282456090674,None,646.3446122207679,None,647.7281708829105,None,green,647.7281708829105,None,return,8.675664358772337,647.811581871938,None,,,,,,,,,,,,,,,,,,,,,,,,,,,,,,,,,,,,,,,77,001,2023_Apr_18_1307,SpeechDraft1Carolyn_lessNoise_PlusLocalization,2021.2.3,59.96259433681751,
client.wav,client.mpg,client,3,AV,Pink_Noise_3_1.wav,Pink_Noise_3_2.wav,,,,,,,,,,,,,,,0,50,50,117,,,,,,,,,,,,,,,,,,,,,,,656.5114908707328,None,658.0114646391012,None,659.3949182890356,None,"client
",659.3949182890356,None,return,10.016984350048006,659.478256160859,None,,,,,,,,,,,,,,,,,,,,,,,,,,,,,,,,,,,,,,,77,001,2023_Apr_18_1307,SpeechDraft1Carolyn_lessNoise_PlusLocalization,2021.2.3,59.96259433681751,
faint.wav,faint.mpg,faint,1,AV,Pink_Noise_1_1.wav,Pink_Noise_1_2.wav,,,,,,,,,,,,,,,0,51,51,76,,,,,,,,,,,,,,,,,,,,,,,669.5282174930908,None,671.0289168739691,None,672.4116063937545,None,faint,672.4116063937545,None,return,5.45643321890384,672.4949210761115,None,,,,,,,,,,,,,,,,,,,,,,,,,,,,,,,,,,,,,,,77,001,2023_Apr_18_1307,SpeechDraft1Carolyn_lessNoise_PlusLocalization,2021.2.3,59.96259433681751,
foot.wav,foot.mpg,foot,2,AV,Pink_Noise_2_1.wav,Pink_Noise_2_2.wav,,,,,,,,,,,,,,,0,52,52,72,,,,,,,,,,,,,,,,,,,,,,,677.9782952107489,None,679.4779010680504,None,680.8615398788825,None,foot,680.8615398788825,None,return,3.7582618170417845,680.9449623278342,None,,,,,,,,,,,,,,,,,,,,,,,,,,,,,,,,,,,,,,,77,001,2023_Apr_18_1307,SpeechDraft1Carolyn_lessNoise_PlusLocalization,2021.2.3,59.96259433681751,
dial.wav,dial.mpg,dial,3,AV,Pink_Noise_3_1.wav,Pink_Noise_3_2.wav,,,,,,,,,,,,,,,0,53,53,102,,,,,,,,,,,,,,,,,,,,,,,684.7282306407578,None,686.2279424271546,None,687.6114649679512,None,dial,687.6114649679512,None,return,4.704339187126607,687.694891882129,None,,,,,,,,,,,,,,,,,,,,,,,,,,,,,,,,,,,,,,,77,001,2023_Apr_18_1307,SpeechDraft1Carolyn_lessNoise_PlusLocalization,2021.2.3,59.96259433681751,
booth.wav,booth.mpg,booth,6,A,Pink_Noise_6_1.wav,Pink_Noise_6_2.wav,,,,,,,,,,,,,,,0,54,54,38,,,,,,,,,,,,,,,,,,,,,,,692.4282475071959,None,693.9279061467387,None,695.3116640071385,None,fist,695.3116640071385,None,return,3.0921958782710135,695.3950512078591,None,,,,,,,,,,,,,,,,,,,,,,,,,,,,,,,,,,,,,,,77,001,2023_Apr_18_1307,SpeechDraft1Carolyn_lessNoise_PlusLocalization,2021.2.3,59.96259433681751,
your.wav,your.mpg,your,2,A,Pink_Noise_2_1.wav,Pink_Noise_2_2.wav,,,,,,,,,,,,,,,0,55,55,26,,,,,,,,,,,,,,,,,,,,,,,698.5115198460408,None,700.0113801858388,None,701.3948804107495,None,"your
",701.3948804107495,None,return,17.000964976847172,701.4782789940946,None,,,,,,,,,,,,,,,,,,,,,,,,,,,,,,,,,,,,,,,77,001,2023_Apr_18_1307,SpeechDraft1Carolyn_lessNoise_PlusLocalization,2021.2.3,59.96259433681751,
duct.wav,duct.mpg,duct,2,A,Pink_Noise_2_1.wav,Pink_Noise_2_2.wav,,,,,,,,,,,,,,,0,56,56,17,,,,,,,,,,,,,,,,,,,,,,,718.5116646168754,None,720.0112088681199,None,721.3951488058083,None,duct,721.3951488058083,None,return,13.432988551910967,721.4783338778652,None,,,,,,,,,,,,,,,,,,,,,,,,,,,,,,,,,,,,,,,77,001,2023_Apr_18_1307,SpeechDraft1Carolyn_lessNoise_PlusLocalization,2021.2.3,59.96259433681751,
pledge.wav,pledge.mpg,pledge,3,AV,Pink_Noise_3_1.wav,Pink_Noise_3_2.wav,,,,,,,,,,,,,,,0,57,57,113,,,,,,,,,,,,,,,,,,,,,,,734.9283641921356,None,736.4280164921656,None,737.8117534779012,None,pledge,737.8117534779012,None,return,9.840364845003933,737.8949435250834,None,,,,,,,,,,,,,,,,,,,,,,,,,,,,,,,,,,,,,,,77,001,2023_Apr_18_1307,SpeechDraft1Carolyn_lessNoise_PlusLocalization,2021.2.3,59.96259433681751,
care.wav,care.mpg,care,5,A,Pink_Noise_5_1.wav,Pink_Noise_5_2.wav,,,,,,,,,,,,,,,0,58,58,0,,,,,,,,,,,,,,,,,,,,,,,747.7616804470308,None,749.2617083191872,None,750.6451209648512,None,hair,750.6451209648512,None,return,12.015037577133626,750.7283022720367,None,,,,,,,,,,,,,,,,,,,,,,,,,,,,,,,,,,,,,,,77,001,2023_Apr_18_1307,SpeechDraft1Carolyn_lessNoise_PlusLocalization,2021.2.3,59.96259433681751,
cup.wav,cup.mpg,cup,5,AV,Pink_Noise_5_1.wav,Pink_Noise_5_2.wav,,,,,,,,,,,,,,,0,59,59,80,,,,,,,,,,,,,,,,,,,,,,,762.7615943509154,None,764.2613836331293,None,765.6449720668606,None,cup,765.6449720668606,None,return,6.086846794933081,765.7283969698474,None,,,,,,,,,,,,,,,,,,,,,,,,,,,,,,,,,,,,,,,77,001,2023_Apr_18_1307,SpeechDraft1Carolyn_lessNoise_PlusLocalization,2021.2.3,59.96259433681751,
fill.wav,fill.mpg,fill,6,AV,Pink_Noise_6_1.wav,Pink_Noise_6_2.wav,,,,,,,,,,,,,,,0,60,60,84,,,,,,,,,,,,,,,,,,,,,,,771.8450125767849,None,773.3463498018682,None,774.7281889817677,None,full,774.7281889817677,None,return,11.74754259409383,774.8117009229027,None,,,,,,,,,,,,,,,,,,,,,,,,,,,,,,,,,,,,,,,77,001,2023_Apr_18_1307,SpeechDraft1Carolyn_lessNoise_PlusLocalization,2021.2.3,59.96259433681751,
cone.wav,cone.mpg,cone,6,A,Pink_Noise_6_1.wav,Pink_Noise_6_2.wav,,,,,,,,,,,,,,,0,61,61,1,,,,,,,,,,,,,,,,,,,,,,,786.5784003110602,None,788.0782078858465,None,789.4617642387748,None,car,789.4617642387748,None,return,4.766072087921202,789.5452741468325,None,,,,,,,,,,,,,,,,,,,,,,,,,,,,,,,,,,,,,,,77,001,2023_Apr_18_1307,SpeechDraft1Carolyn_lessNoise_PlusLocalization,2021.2.3,59.96259433681751,
bird.wav,bird.mpg,bird,3,A,Pink_Noise_3_1.wav,Pink_Noise_3_2.wav,,,,,,,,,,,,,,,0,62,62,45,,,,,,,,,,,,,,,,,,,,,,,794.3284392999485,None,795.828017340973,None,797.2118284651078,None,"bird
",797.2118284651078,None,return,8.920128566212952,797.2951140259393,None,,,,,,,,,,,,,,,,,,,,,,,,,,,,,,,,,,,,,,,77,001,2023_Apr_18_1307,SpeechDraft1Carolyn_lessNoise_PlusLocalization,2021.2.3,59.96259433681751,
sue.wav,sue.mpg,sue,6,AV,Pink_Noise_6_1.wav,Pink_Noise_6_2.wav,,,,,,,,,,,,,,,0,63,63,112,,,,,,,,,,,,,,,,,,,,,,,806.2450639558956,None,807.745156255085,None,809.1285026371479,None,soup,809.1285026371479,None,return,5.707621455192566,809.2117569698021,None,,,,,,,,,,,,,,,,,,,,,,,,,,,,,,,,,,,,,,,77,001,2023_Apr_18_1307,SpeechDraft1Carolyn_lessNoise_PlusLocalization,2021.2.3,59.96259433681751,
clap.wav,clap.mpg,clap,4,AV,Pink_Noise_4_1.wav,Pink_Noise_4_2.wav,,,,,,,,,,,,,,,0,64,64,69,,,,,,,,,,,,,,,,,,,,,,,814.9450239138678,None,816.4447947419249,None,817.8282971568406,None,"clap
",817.8282971568406,None,return,3.735464062076062,817.9117859760299,None,,,,,,,,,,,,,,,,,,,,,,,,,,,,,,,,,,,,,,,77,001,2023_Apr_18_1307,SpeechDraft1Carolyn_lessNoise_PlusLocalization,2021.2.3,59.96259433681751,
curb.wav,curb.mpg,curb,5,AV,Pink_Noise_5_1.wav,Pink_Noise_5_2.wav,,,,,,,,,,,,,,,0,65,65,103,,,,,,,,,,,,,,,,,,,,,,,821.6785638248548,None,823.1949638938531,None,824.5785087570548,None,her,824.5785087570548,None,return,6.209414136130363,824.6618161629885,None,,,,,,,,,,,,,,,,,,,,,,,,,,,,,,,,,,,,,,,77,001,2023_Apr_18_1307,SpeechDraft1Carolyn_lessNoise_PlusLocalization,2021.2.3,59.96259433681751,
dare.wav,dare.mpg,dare,6,AV,Pink_Noise_6_1.wav,Pink_Noise_6_2.wav,,,,,,,,,,,,,,,0,66,66,75,,,,,,,,,,,,,,,,,,,,,,,830.8951367279515,None,832.396911998745,None,833.7783500030637,None,"jail
",833.7783500030637,None,return,15.417460481170565,833.861783660017,None,,,,,,,,,,,,,,,,,,,,,,,,,,,,,,,,,,,,,,,77,001,2023_Apr_18_1307,SpeechDraft1Carolyn_lessNoise_PlusLocalization,2021.2.3,59.96259433681751,
grace.wav,grace.mpg,grace,5,AV,Pink_Noise_5_1.wav,Pink_Noise_5_2.wav,,,,,,,,,,,,,,,0,67,67,114,,,,,,,,,,,,,,,,,,,,,,,849.3119958881289,None,850.8282815790735,None,852.211756114848,None,grit,852.211756114848,None,return,21.488110080827028,852.2951923259534,None,,,,,,,,,,,,,,,,,,,,,,,,,,,,,,,,,,,,,,,77,001,2023_Apr_18_1307,SpeechDraft1Carolyn_lessNoise_PlusLocalization,2021.2.3,59.96259433681751,
chant.wav,chant.mpg,chant,3,AV,Pink_Noise_3_1.wav,Pink_Noise_3_2.wav,,,,,,,,,,,,,,,0,68,68,89,,,,,,,,,,,,,,,,,,,,,,,873.8117504538968,None,875.3281338401139,None,876.711881455034,None,chant,876.711881455034,None,return,9.580118612851948,876.79520739289,None,,,,,,,,,,,,,,,,,,,,,,,,,,,,,,,,,,,,,,,77,001,2023_Apr_18_1307,SpeechDraft1Carolyn_lessNoise_PlusLocalization,2021.2.3,59.96259433681751,
gut.wav,gut.mpg,gut,4,A,Pink_Noise_4_1.wav,Pink_Noise_4_2.wav,,,,,,,,,,,,,,,0,69,69,47,,,,,,,,,,,,,,,,,,,,,,,886.3952205497772,None,887.9115236997604,None,889.2952212197706,None,gut,889.2952212197706,None,return,8.39670181600377,889.3786177327856,None,,,,,,,,,,,,,,,,,,,,,,,,,,,,,,,,,,,,,,,77,001,2023_Apr_18_1307,SpeechDraft1Carolyn_lessNoise_PlusLocalization,2021.2.3,59.96259433681751,
frog.wav,frog.mpg,frog,6,AV,Pink_Noise_6_1.wav,Pink_Noise_6_2.wav,,,,,,,,,,,,,,,0,70,70,105,,,,,,,,,,,,,,,,,,,,,,,897.7953202938661,None,899.3116414998658,None,900.695050091017,None,frog,900.695050091017,None,return,13.844733762089163,900.7785186939873,None,,,,,,,,,,,,,,,,,,,,,,,,,,,,,,,,,,,,,,,77,001,2023_Apr_18_1307,SpeechDraft1Carolyn_lessNoise_PlusLocalization,2021.2.3,59.96259433681751,
flood.wav,flood.mpg,flood,6,A,Pink_Noise_6_1.wav,Pink_Noise_6_2.wav,,,,,,,,,,,,,,,0,71,71,2,,,,,,,,,,,,,,,,,,,,,,,914.6453138538636,None,916.1614330089651,None,917.5453418139368,None,fish,917.5453418139368,None,return,10.31474622618407,917.628517948091,None,,,,,,,,,,,,,,,,,,,,,,,,,,,,,,,,,,,,,,,77,001,2023_Apr_18_1307,SpeechDraft1Carolyn_lessNoise_PlusLocalization,2021.2.3,59.96259433681751,
bass.wav,bass.mpg,bass,1,AV,Pink_Noise_1_1.wav,Pink_Noise_1_2.wav,,,,,,,,,,,,,,,0,72,72,64,,,,,,,,,,,,,,,,,,,,,,,927.9619759800844,None,929.4616044890136,None,930.8452031961642,None,base,930.8452031961642,None,return,1.342640717048198,930.9285982009023,None,,,,,,,,,,,,,,,,,,,,,,,,,,,,,,,,,,,,,,,77,001,2023_Apr_18_1307,SpeechDraft1Carolyn_lessNoise_PlusLocalization,2021.2.3,59.96259433681751,
sun.wav,sun.mpg,sun,4,AV,Pink_Noise_4_1.wav,Pink_Noise_4_2.wav,,,,,,,,,,,,,,,0,73,73,95,,,,,,,,,,,,,,,,,,,,,,,932.2951668668538,None,933.81167039508,None,935.1950692120008,None,self,935.1950692120008,None,return,5.392410164233297,935.2788009657525,None,,,,,,,,,,,,,,,,,,,,,,,,,,,,,,,,,,,,,,,77,001,2023_Apr_18_1307,SpeechDraft1Carolyn_lessNoise_PlusLocalization,2021.2.3,59.96259433681751,
box.wav,box.mpg,box,5,AV,Pink_Noise_5_1.wav,Pink_Noise_5_2.wav,,,,,,,,,,,,,,,0,74,74,116,,,,,,,,,,,,,,,,,,,,,,,940.6953225610778,None,942.2116563008167,None,943.5952387810685,None,"but
",943.5952387810685,None,return,10.800584441050887,943.6786638330668,None,,,,,,,,,,,,,,,,,,,,,,,,,,,,,,,,,,,,,,,77,001,2023_Apr_18_1307,SpeechDraft1Carolyn_lessNoise_PlusLocalization,2021.2.3,59.96259433681751,
creek.wav,creek.mpg,creek,1,AV,Pink_Noise_1_1.wav,Pink_Noise_1_2.wav,,,,,,,,,,,,,,,0,75,75,92,,,,,,,,,,,,,,,,,,,,,,,954.5119032757357,None,956.0282442839816,None,957.4120956677943,None,creek,957.4120956677943,None,return,8.424065775703639,957.4953492707573,None,,,,,,,,,,,,,,,,,,,,,,,,,,,,,,,,,,,,,,,77,001,2023_Apr_18_1307,SpeechDraft1Carolyn_lessNoise_PlusLocalization,2021.2.3,59.96259433681751,
claw.wav,claw.mpg,claw,6,AV,Pink_Noise_6_1.wav,Pink_Noise_6_2.wav,,,,,,,,,,,,,,,0,76,76,62,,,,,,,,,,,,,,,,,,,,,,,965.9454040201381,None,967.4616078147665,None,968.8454274660908,None,law,968.8454274660908,None,return,3.470405297819525,968.9288324271329,None,,,,,,,,,,,,,,,,,,,,,,,,,,,,,,,,,,,,,,,77,001,2023_Apr_18_1307,SpeechDraft1Carolyn_lessNoise_PlusLocalization,2021.2.3,59.96259433681751,
blast.wav,blast.mpg,blast,2,A,Pink_Noise_2_1.wav,Pink_Noise_2_2.wav,,,,,,,,,,,,,,,0,77,77,6,,,,,,,,,,,,,,,,,,,,,,,972.4286000989377,None,973.9449422168545,None,975.328740881756,None,last,975.328740881756,None,return,2.1792038627900183,975.4120468138717,None,,,,,,,,,,,,,,,,,,,,,,,,,,,,,,,,,,,,,,,77,001,2023_Apr_18_1307,SpeechDraft1Carolyn_lessNoise_PlusLocalization,2021.2.3,59.96259433681751,
coach.wav,coach.mpg,coach,3,A,Pink_Noise_3_1.wav,Pink_Noise_3_2.wav,,,,,,,,,,,,,,,0,78,78,50,,,,,,,,,,,,,,,,,,,,,,,977.6120650358498,None,979.1116341380402,None,980.495412977878,None,coach,980.495412977878,None,return,2.6285203089937568,980.5787296928465,None,,,,,,,,,,,,,,,,,,,,,,,,,,,,,,,,,,,,,,,77,001,2023_Apr_18_1307,SpeechDraft1Carolyn_lessNoise_PlusLocalization,2021.2.3,59.96259433681751,
green.wav,green.mpg,green,4,A,Pink_Noise_4_1.wav,Pink_Noise_4_2.wav,,,,,,,,,,,,,,,0,79,79,35,,,,,,,,,,,,,,,,,,,,,,,983.2286073449068,None,984.7282492858358,None,986.1119721950963,None,"grand,ma",986.1119721950963,None,return,4.30798300402239,986.1953696119599,None,,,,,,,,,,,,,,,,,,,,,,,,,,,,,,,,,,,,,,,77,001,2023_Apr_18_1307,SpeechDraft1Carolyn_lessNoise_PlusLocalization,2021.2.3,59.96259433681751,
beast.wav,beast.mpg,beast,6,AV,Pink_Noise_6_1.wav,Pink_Noise_6_2.wav,,,,,,,,,,,,,,,0,80,80,79,,,,,,,,,,,,,,,,,,,,,,,990.5286969938315,None,992.0450244168751,None,993.4288620431907,None,bit,993.4288620431907,None,return,6.223412855993956,993.5120053049177,None,,,,,,,,,,,,,,,,,,,,,,,,,,,,,,,,,,,,,,,77,001,2023_Apr_18_1307,SpeechDraft1Carolyn_lessNoise_PlusLocalization,2021.2.3,59.96259433681751,
crypt.wav,crypt.mpg,crypt,4,AV,Pink_Noise_4_1.wav,Pink_Noise_4_2.wav,,,,,,,,,,,,,,,0,81,81,70,,,,,,,,,,,,,,,,,,,,,,,999.761984908022,None,1001.2631514850073,None,1002.6453824318014,None,crept,1002.6453824318014,None,return,9.358595203142613,1002.7286412110552,None,,,,,,,,,,,,,,,,,,,,,,,,,,,,,,,,,,,,,,,77,001,2023_Apr_18_1307,SpeechDraft1Carolyn_lessNoise_PlusLocalization,2021.2.3,59.96259433681751,
fault.wav,fault.mpg,fault,3,AV,Pink_Noise_3_1.wav,Pink_Noise_3_2.wav,,,,,,,,,,,,,,,0,82,82,82,,,,,,,,,,,,,,,,,,,,,,,1012.1121310037561,None,1013.6283628060482,None,1015.0119166169316,None,"fault
",1015.0119166169316,None,return,5.151903233956546,1015.0953419390135,None,,,,,,,,,,,,,,,,,,,,,,,,,,,,,,,,,,,,,,,77,001,2023_Apr_18_1307,SpeechDraft1Carolyn_lessNoise_PlusLocalization,2021.2.3,59.96259433681751,
axe.wav,axe.mpg,axe,5,AV,Pink_Noise_5_1.wav,Pink_Noise_5_2.wav,,,,,,,,,,,,,,,0,83,83,99,,,,,,,,,,,,,,,,,,,,,,,1020.2786477869377,None,1021.7804926168174,None,1023.1619816431776,None,as,1023.1619816431776,None,return,2.425818098243326,1023.2453935467638,None,,,,,,,,,,,,,,,,,,,,,,,,,,,,,,,,,,,,,,,77,001,2023_Apr_18_1307,SpeechDraft1Carolyn_lessNoise_PlusLocalization,2021.2.3,59.96259433681751,
farm.wav,farm.mpg,farm,1,A,Pink_Noise_1_1.wav,Pink_Noise_1_2.wav,,,,,,,,,,,,,,,0,84,84,4,,,,,,,,,,,,,,,,,,,,,,,1025.6953182471916,None,1027.211684777867,None,1028.5953580080532,None,farm,1028.5953580080532,None,return,4.608523643109947,1028.6787398918532,None,,,,,,,,,,,,,,,,,,,,,,,,,,,,,,,,,,,,,,,77,001,2023_Apr_18_1307,SpeechDraft1Carolyn_lessNoise_PlusLocalization,2021.2.3,59.96259433681751,
bag.wav,bag.mpg,bag,6,A,Pink_Noise_6_1.wav,Pink_Noise_6_2.wav,,,,,,,,,,,,,,,0,85,85,27,,,,,,,,,,,,,,,,,,,,,,,1033.3121685190126,None,1034.8284291480668,None,1036.2120055989362,None,brawl,1036.2120055989362,None,return,5.775807567406446,1036.2954318830743,None,,,,,,,,,,,,,,,,,,,,,,,,,,,,,,,,,,,,,,,77,001,2023_Apr_18_1307,SpeechDraft1Carolyn_lessNoise_PlusLocalization,2021.2.3,59.96259433681751,
grand.wav,grand.mpg,grand,2,AV,Pink_Noise_2_1.wav,Pink_Noise_2_2.wav,,,,,,,,,,,,,,,0,86,86,90,,,,,,,,,,,,,,,,,,,,,,,1042.0953716370277,None,1043.595139640849,None,1044.978707415983,None,grand,1044.978707415983,None,return,3.513227014336735,1045.0621130149812,None,,,,,,,,,,,,,,,,,,,,,,,,,,,,,,,,,,,,,,,77,001,2023_Apr_18_1307,SpeechDraft1Carolyn_lessNoise_PlusLocalization,2021.2.3,59.96259433681751,
duke.wav,duke.mpg,duke,5,AV,Pink_Noise_5_1.wav,Pink_Noise_5_2.wav,,,,,,,,,,,,,,,0,87,87,106,,,,,,,,,,,,,,,,,,,,,,,1048.595458292868,None,1050.0951729849912,None,1051.4787998259999,None,shoe,1051.4787998259999,None,return,3.9971498330123723,1051.5621389229782,None,,,,,,,,,,,,,,,,,,,,,,,,,,,,,,,,,,,,,,,77,001,2023_Apr_18_1307,SpeechDraft1Carolyn_lessNoise_PlusLocalization,2021.2.3,59.96259433681751,
gum.wav,gum.mpg,gum,4,A,Pink_Noise_4_1.wav,Pink_Noise_4_2.wav,,,,,,,,,,,,,,,0,88,88,54,,,,,,,,,,,,,,,,,,,,,,,1055.5788364941254,None,1057.0954772969708,None,1058.4788268329576,None,girl,1058.4788268329576,None,return,4.325164677109569,1058.5621050279588,None,,,,,,,,,,,,,,,,,,,,,,,,,,,,,,,,,,,,,,,77,001,2023_Apr_18_1307,SpeechDraft1Carolyn_lessNoise_PlusLocalization,2021.2.3,59.96259433681751,
snake.wav,snake.mpg,snake,6,AV,Pink_Noise_6_1.wav,Pink_Noise_6_2.wav,,,,,,,,,,,,,,,0,89,89,107,,,,,,,,,,,,,,,,,,,,,,,1062.912043962162,None,1064.4284467957914,None,1065.8120342828333,None,send,1065.8120342828333,None,return,7.287709978874773,1065.895534066949,None,,,,,,,,,,,,,,,,,,,,,,,,,,,,,,,,,,,,,,,77,001,2023_Apr_18_1307,SpeechDraft1Carolyn_lessNoise_PlusLocalization,2021.2.3,59.96259433681751,
shock.wav,shock.mpg,shock,5,A,Pink_Noise_5_1.wav,Pink_Noise_5_2.wav,,,,,,,,,,,,,,,0,90,90,36,,,,,,,,,,,,,,,,,,,,,,,1073.2121688239276,None,1074.7616840251721,None,1076.1455922820605,None,shop,1076.1455922820605,None,return,5.2745155417360365,1076.2287161247805,None,,,,,,,,,,,,,,,,,,,,,,,,,,,,,,,,,,,,,,,77,001,2023_Apr_18_1307,SpeechDraft1Carolyn_lessNoise_PlusLocalization,2021.2.3,59.96259433681751,
round.wav,round.mpg,round,3,AV,Pink_Noise_3_1.wav,Pink_Noise_3_2.wav,,,,,,,,,,,,,,,0,91,91,77,,,,,,,,,,,,,,,,,,,,,,,1081.5287336059846,None,1083.0452259657905,None,1084.4287708788179,None,road,1084.4287708788179,None,return,4.063277830835432,1084.5120747201145,None,,,,,,,,,,,,,,,,,,,,,,,,,,,,,,,,,,,,,,,77,001,2023_Apr_18_1307,SpeechDraft1Carolyn_lessNoise_PlusLocalization,2021.2.3,59.96259433681751,
fear.wav,fear.mpg,fear,2,A,Pink_Noise_2_1.wav,Pink_Noise_2_2.wav,,,,,,,,,,,,,,,0,92,92,34,,,,,,,,,,,,,,,,,,,,,,,1088.5972474589944,None,1090.1284653129987,None,1091.5121415178291,None,fear,1091.5121415178291,None,return,3.0757487770169973,1091.5955100418068,None,,,,,,,,,,,,,,,,,,,,,,,,,,,,,,,,,,,,,,,77,001,2023_Apr_18_1307,SpeechDraft1Carolyn_lessNoise_PlusLocalization,2021.2.3,59.96259433681751,
champ.wav,champ.mpg,champ,3,A,Pink_Noise_3_1.wav,Pink_Noise_3_2.wav,,,,,,,,,,,,,,,0,93,93,13,,,,,,,,,,,,,,,,,,,,,,,1094.6954497010447,None,1096.2285520238802,None,1097.6121521149762,None,shoe,1097.6121521149762,None,return,7.95979326730594,1097.695448954124,None,,,,,,,,,,,,,,,,,,,,,,,,,,,,,,,,,,,,,,,77,001,2023_Apr_18_1307,SpeechDraft1Carolyn_lessNoise_PlusLocalization,2021.2.3,59.96259433681751,
die.wav,die.mpg,die,2,A,Pink_Noise_2_1.wav,Pink_Noise_2_2.wav,,,,,,,,,,,,,,,0,94,94,19,,,,,,,,,,,,,,,,,,,,,,,1105.6787343537435,None,1107.2284375098534,None,1108.6121672759764,None,die,1108.6121672759764,None,return,3.1276561222039163,1108.6956242928281,None,,,,,,,,,,,,,,,,,,,,,,,,,,,,,,,,,,,,,,,77,001,2023_Apr_18_1307,SpeechDraft1Carolyn_lessNoise_PlusLocalization,2021.2.3,59.96259433681751,
fox.wav,fox.mpg,fox,3,AV,Pink_Noise_3_1.wav,Pink_Noise_3_2.wav,,,,,,,,,,,,,,,0,95,95,67,,,,,,,,,,,,,,,,,,,,,,,1111.845469135791,None,1113.3618470989168,None,1114.7453836090863,None,fast,1114.7453836090863,None,return,16.514392332173884,1114.828851237893,None,,,,,,,,,,,,,,,,,,,,,,,,,,,,,,,,,,,,,,,77,001,2023_Apr_18_1307,SpeechDraft1Carolyn_lessNoise_PlusLocalization,2021.2.3,59.96259433681751,
blond.wav,blond.mpg,blond,1,A,Pink_Noise_1_1.wav,Pink_Noise_1_2.wav,,,,,,,,,,,,,,,0,96,96,46,,,,,,,,,,,,,,,,,,,,,,,1131.362139962148,None,1132.8786771669984,None,1134.2622350328602,None,lard,1134.2622350328602,None,return,13.013756162952632,1134.3456384851597,None,,,,,,,,,,,,,,,,,,,,,,,,,,,,,,,,,,,,,,,77,001,2023_Apr_18_1307,SpeechDraft1Carolyn_lessNoise_PlusLocalization,2021.2.3,59.96259433681751,
grave.wav,grave.mpg,grave,4,AV,Pink_Noise_4_1.wav,Pink_Noise_4_2.wav,,,,,,,,,,,,,,,0,97,97,81,,,,,,,,,,,,,,,,,,,,,,,1147.3789189881645,None,1148.9128362988122,None,1150.2955781389028,None,grave,1150.2955781389028,None,return,5.724344688933343,1150.3788828570396,None,,,,,,,,,,,,,,,,,,,,,,,,,,,,,,,,,,,,,,,77,001,2023_Apr_18_1307,SpeechDraft1Carolyn_lessNoise_PlusLocalization,2021.2.3,59.96259433681751,
brick.wav,brick.mpg,brick,1,A,Pink_Noise_1_1.wav,Pink_Noise_1_2.wav,,,,,,,,,,,,,,,0,98,98,58,,,,,,,,,,,,,,,,,,,,,,,1156.1288264440373,None,1157.628491059877,None,1159.0122879170813,None,brick,1159.0122879170813,None,return,10.77567678457126,1159.0955732278526,None,,,,,,,,,,,,,,,,,,,,,,,,,,,,,,,,,,,,,,,77,001,2023_Apr_18_1307,SpeechDraft1Carolyn_lessNoise_PlusLocalization,2021.2.3,59.96259433681751,
crook.wav,crook.mpg,crook,5,AV,Pink_Noise_5_1.wav,Pink_Noise_5_2.wav,,,,,,,,,,,,,,,0,99,99,68,,,,,,,,,,,,,,,,,,,,,,,1169.8954940401018,None,1171.4119449118152,None,1172.7955881371163,None,croak,1172.7955881371163,None,return,11.848403560929,1172.8789071817882,None,,,,,,,,,,,,,,,,,,,,,,,,,,,,,,,,,,,,,,,77,001,2023_Apr_18_1307,SpeechDraft1Carolyn_lessNoise_PlusLocalization,2021.2.3,59.96259433681751,
fine.wav,fine.mpg,fine,3,A,Pink_Noise_3_1.wav,Pink_Noise_3_2.wav,,,,,,,,,,,,,,,0,100,100,8,,,,,,,,,,,,,,,,,,,,,,,1184.7456707940437,None,1186.262062691152,None,1187.645603387151,None,alright,1187.645603387151,None,return,20.24637298891321,1187.7289336998947,None,,,,,,,,,,,,,,,,,,,,,,,,,,,,,,,,,,,,,,,77,001,2023_Apr_18_1307,SpeechDraft1Carolyn_lessNoise_PlusLocalization,2021.2.3,59.96259433681751,
bank.wav,bank.mpg,bank,5,A,Pink_Noise_5_1.wav,Pink_Noise_5_2.wav,,,,,,,,,,,,,,,0,101,101,5,,,,,,,,,,,,,,,,,,,,,,,1207.995634349063,None,1209.5121216317639,None,1210.8957178019919,None,"as
",1210.8957178019919,None,return,4.284372008871287,1210.9788671410643,None,,,,,,,,,,,,,,,,,,,,,,,,,,,,,,,,,,,,,,,77,001,2023_Apr_18_1307,SpeechDraft1Carolyn_lessNoise_PlusLocalization,2021.2.3,59.96259433681751,
fork.wav,fork.mpg,fork,5,A,Pink_Noise_5_1.wav,Pink_Noise_5_2.wav,,,,,,,,,,,,,,,0,102,102,59,,,,,,,,,,,,,,,,,,,,,,,1215.2957344511524,None,1216.828659675084,None,1218.2122947331518,None,porch,1218.2122947331518,None,return,2.727613436989486,1218.2956271180883,None,,,,,,,,,,,,,,,,,,,,,,,,,,,,,,,,,,,,,,,77,001,2023_Apr_18_1307,SpeechDraft1Carolyn_lessNoise_PlusLocalization,2021.2.3,59.96259433681751,
flop.wav,flop.mpg,flop,1,AV,Pink_Noise_1_1.wav,Pink_Noise_1_2.wav,,,,,,,,,,,,,,,0,103,103,87,,,,,,,,,,,,,,,,,,,,,,,1221.0456620999612,None,1222.5621361830272,None,1223.945610138122,None,flop,1223.945610138122,None,return,5.242240564897656,1224.0290170568042,None,,,,,,,,,,,,,,,,,,,,,,,,,,,,,,,,,,,,,,,77,001,2023_Apr_18_1307,SpeechDraft1Carolyn_lessNoise_PlusLocalization,2021.2.3,59.96259433681751,
ghost.wav,ghost.mpg,ghost,3,AV,Pink_Noise_3_1.wav,Pink_Noise_3_2.wav,,,,,,,,,,,,,,,0,104,104,115,,,,,,,,,,,,,,,,,,,,,,,1229.2956337239593,None,1230.8120150067843,None,1232.1955885658972,None,"ghost
",1232.1955885658972,None,return,3.784236531239003,1232.2790120397694,None,,,,,,,,,,,,,,,,,,,,,,,,,,,,,,,,,,,,,,,77,001,2023_Apr_18_1307,SpeechDraft1Carolyn_lessNoise_PlusLocalization,2021.2.3,59.96259433681751,
wine.wav,wine.mpg,wine,4,A,Pink_Noise_4_1.wav,Pink_Noise_4_2.wav,,,,,,,,,,,,,,,0,105,105,48,,,,,,,,,,,,,,,,,,,,,,,1236.095656777732,None,1237.6120951599441,None,1238.9958852380514,None,lauren,1238.9958852380514,None,return,4.424360705073923,1239.0789858680218,None,,,,,,,,,,,,,,,,,,,,,,,,,,,,,,,,,,,,,,,77,001,2023_Apr_18_1307,SpeechDraft1Carolyn_lessNoise_PlusLocalization,2021.2.3,59.96259433681751,
drain.wav,drain.mpg,drain,2,A,Pink_Noise_2_1.wav,Pink_Noise_2_2.wav,,,,,,,,,,,,,,,0,106,106,22,,,,,,,,,,,,,,,,,,,,,,,1243.5290976320393,None,1245.0453313989565,None,1246.429058381822,None,drink,1246.429058381822,None,return,2.80707681318745,1246.512346678879,None,,,,,,,,,,,,,,,,,,,,,,,,,,,,,,,,,,,,,,,77,001,2023_Apr_18_1307,SpeechDraft1Carolyn_lessNoise_PlusLocalization,2021.2.3,59.96259433681751,
crude.wav,crude.mpg,crude,1,AV,Pink_Noise_1_1.wav,Pink_Noise_1_2.wav,,,,,,,,,,,,,,,0,107,107,104,,,,,,,,,,,,,,,,,,,,,,,1249.3458375921473,None,1250.8619851358235,None,1252.2457687859423,None,croad,1252.2457687859423,None,return,7.222329001873732,1252.329030871857,None,,,,,,,,,,,,,,,,,,,,,,,,,,,,,,,,,,,,,,,77,001,2023_Apr_18_1307,SpeechDraft1Carolyn_lessNoise_PlusLocalization,2021.2.3,59.96259433681751,
led.wav,led.mpg,led,5,AV,Pink_Noise_5_1.wav,Pink_Noise_5_2.wav,,,,,,,,,,,,,,,0,108,108,109,,,,,,,,,,,,,,,,,,,,,,,1259.5790980970487,None,1261.0952386721037,None,1262.4791767750867,None,sled,1262.4791767750867,None,return,2.548929392825812,1262.5624415799975,None,,,,,,,,,,,,,,,,,,,,,,,,,,,,,,,,,,,,,,,77,001,2023_Apr_18_1307,SpeechDraft1Carolyn_lessNoise_PlusLocalization,2021.2.3,59.96259433681751,
bruise.wav,bruise.mpg,bruise,1,A,Pink_Noise_1_1.wav,Pink_Noise_1_2.wav,,,,,,,,,,,,,,,0,109,109,21,,,,,,,,,,,,,,,,,,,,,,,1265.1290613571182,None,1266.6453438578174,None,1268.0293102990836,None,bruise,1268.0293102990836,None,return,3.2387998709455132,1268.1125509128906,None,,,,,,,,,,,,,,,,,,,,,,,,,,,,,,,,,,,,,,,77,001,2023_Apr_18_1307,SpeechDraft1Carolyn_lessNoise_PlusLocalization,2021.2.3,59.96259433681751,
greek.wav,greek.mpg,greek,4,AV,Pink_Noise_4_1.wav,Pink_Noise_4_2.wav,,,,,,,,,,,,,,,0,110,110,118,,,,,,,,,,,,,,,,,,,,,,,1271.3791712108068,None,1272.9289746610448,None,1274.312405147124,None,greek,1274.312405147124,None,return,2.5075975758954883,1274.3956978041679,None,,,,,,,,,,,,,,,,,,,,,,,,,,,,,,,,,,,,,,,77,001,2023_Apr_18_1307,SpeechDraft1Carolyn_lessNoise_PlusLocalization,2021.2.3,59.96259433681751,
cell.wav,cell.mpg,cell,5,A,Pink_Noise_5_1.wav,Pink_Noise_5_2.wav,,,,,,,,,,,,,,,0,111,111,29,,,,,,,,,,,,,,,,,,,,,,,1276.9291077321395,None,1278.4453218877316,None,1279.8291388018988,None,saw,1279.8291388018988,None,return,3.830951573792845,1279.9123134901747,None,,,,,,,,,,,,,,,,,,,,,,,,,,,,,,,,,,,,,,,77,001,2023_Apr_18_1307,SpeechDraft1Carolyn_lessNoise_PlusLocalization,2021.2.3,59.96259433681751,
dice.wav,dice.mpg,dice,1,A,Pink_Noise_1_1.wav,Pink_Noise_1_2.wav,,,,,,,,,,,,,,,0,112,112,56,,,,,,,,,,,,,,,,,,,,,,,1283.7624300671741,None,1285.2787715191953,None,1286.6624468169175,None,"dice
",1286.6624468169175,None,return,4.317517887800932,1286.7457274599,None,,,,,,,,,,,,,,,,,,,,,,,,,,,,,,,,,,,,,,,77,001,2023_Apr_18_1307,SpeechDraft1Carolyn_lessNoise_PlusLocalization,2021.2.3,59.96259433681751,
dive.wav,dive.mpg,dive,4,A,Pink_Noise_4_1.wav,Pink_Noise_4_2.wav,,,,,,,,,,,,,,,0,113,113,57,,,,,,,,,,,,,,,,,,,,,,,1291.095671099145,None,1292.6120680910535,None,1293.9957840978168,None,die,1293.9957840978168,None,return,2.2641651360318065,1294.07909465814,None,,,,,,,,,,,,,,,,,,,,,,,,,,,,,,,,,,,,,,,77,001,2023_Apr_18_1307,SpeechDraft1Carolyn_lessNoise_PlusLocalization,2021.2.3,59.96259433681751,
wet.wav,wet.mpg,wet,1,A,Pink_Noise_1_1.wav,Pink_Noise_1_2.wav,,,,,,,,,,,,,,,0,114,114,11,,,,,,,,,,,,,,,,,,,,,,,1296.3624966237694,None,1297.8788834991865,None,1299.2624452179298,None,wet,1299.2624452179298,None,return,1.5495164259336889,1299.3458081400022,None,,,,,,,,,,,,,,,,,,,,,,,,,,,,,,,,,,,,,,,77,001,2023_Apr_18_1307,SpeechDraft1Carolyn_lessNoise_PlusLocalization,2021.2.3,59.96259433681751,
clock.wav,clock.mpg,clock,4,AV,Pink_Noise_4_1.wav,Pink_Noise_4_2.wav,,,,,,,,,,,,,,,0,115,115,60,,,,,,,,,,,,,,,,,,,,,,,1300.9124644999392,None,1302.42876080703,None,1303.812355502043,None,clock,1303.812355502043,None,return,2.4473846331238747,1303.8958285497501,None,,,,,,,,,,,,,,,,,,,,,,,,,,,,,,,,,,,,,,,77,001,2023_Apr_18_1307,SpeechDraft1Carolyn_lessNoise_PlusLocalization,2021.2.3,59.96259433681751,
batch.wav,batch.mpg,batch,5,A,Pink_Noise_5_1.wav,Pink_Noise_5_2.wav,,,,,,,,,,,,,,,0,116,116,53,,,,,,,,,,,,,,,,,,,,,,,1306.362452964764,None,1307.8787435018457,None,1309.2624625959434,None,fetch,1309.2624625959434,None,return,3.0212999181821942,1309.3459382788278,None,,,,,,,,,,,,,,,,,,,,,,,,,,,,,,,,,,,,,,,77,001,2023_Apr_18_1307,SpeechDraft1Carolyn_lessNoise_PlusLocalization,2021.2.3,59.96259433681751,
bribe.wav,bribe.mpg,bribe,1,AV,Pink_Noise_1_1.wav,Pink_Noise_1_2.wav,,,,,,,,,,,,,,,0,117,117,94,,,,,,,,,,,,,,,,,,,,,,,1312.3957749777474,None,1313.9453166970052,None,1315.3290750458837,None,brib,1315.3290750458837,None,return,4.474838527850807,1315.4124615001492,None,,,,,,,,,,,,,,,,,,,,,,,,,,,,,,,,,,,,,,,77,001,2023_Apr_18_1307,SpeechDraft1Carolyn_lessNoise_PlusLocalization,2021.2.3,59.96259433681751,
gust.wav,gust.mpg,gust,5,A,Pink_Noise_5_1.wav,Pink_Noise_5_2.wav,,,,,,,,,,,,,,,0,118,118,33,,,,,,,,,,,,,,,,,,,,,,,1319.9125163541175,None,1321.428753875196,None,1322.812500664033,None,gust,1322.812500664033,None,return,6.27148842997849,1322.8958260389045,None,,,,,,,,,,,,,,,,,,,,,,,,,,,,,,,,,,,,,,,77,001,2023_Apr_18_1307,SpeechDraft1Carolyn_lessNoise_PlusLocalization,2021.2.3,59.96259433681751,
grass.wav,grass.mpg,grass,2,AV,Pink_Noise_2_1.wav,Pink_Noise_2_2.wav,,,,,,,,,,,,,,,0,119,119,65,,,,,,,,,,,,,,,,,,,,,,,1329.196083607152,None,1330.712325511966,None,1332.095698238816,None,"grass
",1332.095698238816,None,return,2.484075670130551,1332.1791546111926,None,,,,,,,,,,,,,,,,,,,,,,,,,,,,,,,,,,,,,,,77,001,2023_Apr_18_1307,SpeechDraft1Carolyn_lessNoise_PlusLocalization,2021.2.3,59.96259433681751,
,,,,,,,,,,,,,,,,,,,,,,,,,,,,,,,,,,,,,,,,,,,,,,,,,,,,,,,,,,,,,,,,,,space,18.97946470603347,1334.795804650057,None,,,,,,,,,,,,,,,,,,,,,,,,,,,,,77,001,2023_Apr_18_1307,SpeechDraft1Carolyn_lessNoise_PlusLocalization,2021.2.3,59.96259433681751,
,,,,,,,,nearLeft,-6.5,1,ch1Sound_localizationTask.wav,-6.5,"(857, 878)","(-103,-202)",-95,-338,,,,,,,,,0,0,0,2,,,,,,,,,,,,,,,,,,,,,,,,,,,,,,,,,,,,,,,,,,1334.795804650057,None,1353.8122697877698,None,1354.9122724467888,None,1355.845811062958,None,1.2111111111111112,8.118829125072807,1355.845811062958,None,,,,,,,,,,,,,,,,,77,001,2023_Apr_18_1307,SpeechDraft1Carolyn_lessNoise_PlusLocalization,2021.2.3,59.96259433681751,
,,,,,,,,nearRight,6.5,0,ch1Sound_localizationTask.wav,6.5,"(1047, 878)","(87, -202)",95,-338,,,,,,,,,0,1,1,4,,,,,,,,,,,,,,,,,,,,,,,,,,,,,,,,,,,,,,,,,,,,1363.9805921288207,None,1365.0956148291007,None,1366.0124159590341,None,1.6835978835978835,2.3668380747549236,1366.0124159590341,None,,,,,,,,,,,,,,,,,77,001,2023_Apr_18_1307,SpeechDraft1Carolyn_lessNoise_PlusLocalization,2021.2.3,59.96259433681751,
,,,,,,,,farRight,19.1,4,ch1Sound_localizationTask.wav,19.1,"(1237, 878)","(277,-202)",285,-338,,,,,,,,,0,2,2,6,,,,,,,,,,,,,,,,,,,,,,,,,,,,,,,,,,,,,,,,,,,,1368.379832064733,None,1369.4789109858684,None,1370.4122157469392,None,1.7243386243386243,1.2658089972101152,1370.4122157469392,None,,,,,,,,,,,,,,,,,77,001,2023_Apr_18_1307,SpeechDraft1Carolyn_lessNoise_PlusLocalization,2021.2.3,59.96259433681751,
,,,,,,,,farLeft,-19.1,5,ch1Sound_localizationTask.wav,-19.1,"(667, 878)","(-293,-202)",-285,-338,,,,,,,,,0,3,3,0,,,,,,,,,,,,,,,,,,,,,,,,,,,,,,,,,,,,,,,,,,,,1371.6793328849599,None,1372.7789899627678,None,1373.7121542720124,None,1.2703703703703704,1.6156942253001034,1373.7121542720124,None,,,,,,,,,,,,,,,,,77,001,2023_Apr_18_1307,SpeechDraft1Carolyn_lessNoise_PlusLocalization,2021.2.3,59.96259433681751,
,,,,,,,,farRight,19.1,4,ch1Sound_localizationTask.wav,19.1,"(1237, 878)","(277,-202)",285,-338,,,,,,,,,0,4,4,6,,,,,,,,,,,,,,,,,,,,,,,,,,,,,,,,,,,,,,,,,,,,1375.3295101327822,None,1376.4289407450706,None,1377.3621803359129,None,1.7703703703703704,1.533023813739419,1377.3621803359129,None,,,,,,,,,,,,,,,,,77,001,2023_Apr_18_1307,SpeechDraft1Carolyn_lessNoise_PlusLocalization,2021.2.3,59.96259433681751,
,,,,,,,,midRight,13.0,3,ch1Sound_localizationTask.wav,13.0,"(1142, 878)","(182, -202)",190,-338,,,,,,,,,0,5,5,5,,,,,,,,,,,,,,,,,,,,,,,,,,,,,,,,,,,,,,,,,,,,1378.89593930915,None,1379.9956281208433,None,1380.9288259828463,None,1.5349206349206348,1.1002533179707825,1380.9288259828463,None,,,,,,,,,,,,,,,,,77,001,2023_Apr_18_1307,SpeechDraft1Carolyn_lessNoise_PlusLocalization,2021.2.3,59.96259433681751,
,,,,,,,,midLeft,-13.0,2,ch1Sound_localizationTask.wav,-13.0,"(762, 878)","(-198,-202)",-190,-338,,,,,,,,,0,6,6,1,,,,,,,,,,,,,,,,,,,,,,,,,,,,,,,,,,,,,,,,,,,,1382.0298417061567,None,1383.128895809874,None,1384.062380046118,None,1.3746031746031746,0.9834204223006964,1384.062380046118,None,,,,,,,,,,,,,,,,,77,001,2023_Apr_18_1307,SpeechDraft1Carolyn_lessNoise_PlusLocalization,2021.2.3,59.96259433681751,
,,,,,,,,farRight,19.1,4,ch1Sound_localizationTask.wav,19.1,"(1237, 878)","(277,-202)",285,-338,,,,,,,,,1,0,7,6,,,,,,,,,,,,,,,,,,,,,,,,,,,,,,,,,,,,,,,,,,,,1385.046775624156,None,1386.145761936903,None,1387.0791965518147,None,1.6883597883597883,1.1811891081742942,1387.0791965518147,None,,,,,,,,,,,,,,,,,77,001,2023_Apr_18_1307,SpeechDraft1Carolyn_lessNoise_PlusLocalization,2021.2.3,59.96259433681751,
,,,,,,,,midLeft,-13.0,2,ch1Sound_localizationTask.wav,-13.0,"(762, 878)","(-198,-202)",-190,-338,,,,,,,,,1,1,8,1,,,,,,,,,,,,,,,,,,,,,,,,,,,,,,,,,,,,,,,,,,,,1388.2627073149197,None,1389.3622785778716,None,1390.2957573519088,None,1.3888888888888888,0.9483065358363092,1390.2957573519088,None,,,,,,,,,,,,,,,,,77,001,2023_Apr_18_1307,SpeechDraft1Carolyn_lessNoise_PlusLocalization,2021.2.3,59.96259433681751,
,,,,,,,,midLeft,-13.0,2,ch1Sound_localizationTask.wav,-13.0,"(762, 878)","(-198,-202)",-190,-338,,,,,,,,,1,2,9,1,,,,,,,,,,,,,,,,,,,,,,,,,,,,,,,,,,,,,,,,,,,,1391.2458374770358,None,1392.3458457938395,None,1393.2789190169424,None,1.3391534391534392,0.7162174340337515,1393.2789190169424,None,,,,,,,,,,,,,,,,,77,001,2023_Apr_18_1307,SpeechDraft1Carolyn_lessNoise_PlusLocalization,2021.2.3,59.96259433681751,
,,,,,,,,nearRight,6.5,0,ch1Sound_localizationTask.wav,6.5,"(1047, 878)","(87, -202)",95,-338,,,,,,,,,1,3,10,4,,,,,,,,,,,,,,,,,,,,,,,,,,,,,,,,,,,,,,,,,,,,1393.9959561470896,None,1395.0954766329378,None,1396.0290023670532,None,1.5534391534391534,1.6653161561116576,1396.0290023670532,None,,,,,,,,,,,,,,,,,77,001,2023_Apr_18_1307,SpeechDraft1Carolyn_lessNoise_PlusLocalization,2021.2.3,59.96259433681751,
,,,,,,,,farLeft,-19.1,5,ch1Sound_localizationTask.wav,-19.1,"(667, 878)","(-293,-202)",-285,-338,,,,,,,,,1,4,11,0,,,,,,,,,,,,,,,,,,,,,,,,,,,,,,,,,,,,,,,,,,,,1397.6960192890838,None,1398.7957046120428,None,1399.7290690010414,None,1.3777777777777778,1.0329610407352448,1399.7290690010414,None,,,,,,,,,,,,,,,,,77,001,2023_Apr_18_1307,SpeechDraft1Carolyn_lessNoise_PlusLocalization,2021.2.3,59.96259433681751,
,,,,,,,,nearLeft,-6.5,1,ch1Sound_localizationTask.wav,-6.5,"(857, 878)","(-103,-202)",-95,-338,,,,,,,,,1,5,12,2,,,,,,,,,,,,,,,,,,,,,,,,,,,,,,,,,,,,,,,,,,,,1400.7627414288,None,1401.8622407610528,None,1402.7955631529912,None,1.426984126984127,0.8492892789654434,1402.7955631529912,None,,,,,,,,,,,,,,,,,77,001,2023_Apr_18_1307,SpeechDraft1Carolyn_lessNoise_PlusLocalization,2021.2.3,59.96259433681751,
,,,,,,,,farLeft,-19.1,5,ch1Sound_localizationTask.wav,-19.1,"(667, 878)","(-293,-202)",-285,-338,,,,,,,,,1,6,13,0,,,,,,,,,,,,,,,,,,,,,,,,,,,,,,,,,,,,,,,,,,,,1403.645970494952,None,1404.7457351898775,None,1405.6790350298397,None,1.3703703703703702,0.7485388801433146,1405.6790350298397,None,,,,,,,,,,,,,,,,,77,001,2023_Apr_18_1307,SpeechDraft1Carolyn_lessNoise_PlusLocalization,2021.2.3,59.96259433681751,
,,,,,,,,center,0.0,6,ch1Sound_localizationTask.wav,0.0,"(952, 878)","(-8,-202)",0,-338,,,,,,,,,2,0,14,3,,,,,,,,,,,,,,,,,,,,,,,,,,,,,,,,,,,,,,,,,,,,1406.429422996007,None,1407.5289978189394,None,1408.4622383341193,None,1.5047619047619047,0.8661517258733511,1408.4622383341193,None,,,,,,,,,,,,,,,,,77,001,2023_Apr_18_1307,SpeechDraft1Carolyn_lessNoise_PlusLocalization,2021.2.3,59.96259433681751,
,,,,,,,,midRight,13.0,3,ch1Sound_localizationTask.wav,13.0,"(1142, 878)","(182, -202)",190,-338,,,,,,,,,2,1,15,5,,,,,,,,,,,,,,,,,,,,,,,,,,,,,,,,,,,,,,,,,,,,1409.3312715440989,None,1410.4457291211002,None,1411.3623554371297,None,1.58994708994709,0.883244008757174,1411.3623554371297,None,,,,,,,,,,,,,,,,,77,001,2023_Apr_18_1307,SpeechDraft1Carolyn_lessNoise_PlusLocalization,2021.2.3,59.96259433681751,
,,,,,,,,farRight,19.1,4,ch1Sound_localizationTask.wav,19.1,"(1237, 878)","(277,-202)",285,-338,,,,,,,,,2,2,16,6,,,,,,,,,,,,,,,,,,,,,,,,,,,,,,,,,,,,,,,,,,,,1412.2467619189993,None,1413.3457106510177,None,1414.2788377897814,None,1.6365079365079365,0.9819236998446286,1414.2788377897814,None,,,,,,,,,,,,,,,,,77,001,2023_Apr_18_1307,SpeechDraft1Carolyn_lessNoise_PlusLocalization,2021.2.3,59.96259433681751,
,,,,,,,,center,0.0,6,ch1Sound_localizationTask.wav,0.0,"(952, 878)","(-8,-202)",0,-338,,,,,,,,,2,3,17,3,,,,,,,,,,,,,,,,,,,,,,,,,,,,,,,,,,,,,,,,,,,,1415.2625757358037,None,1416.3623003368266,None,1417.2959249061532,None,1.5005291005291004,0.9293749136850238,1417.2959249061532,None,,,,,,,,,,,,,,,,,77,001,2023_Apr_18_1307,SpeechDraft1Carolyn_lessNoise_PlusLocalization,2021.2.3,59.96259433681751,
,,,,,,,,nearLeft,-6.5,1,ch1Sound_localizationTask.wav,-6.5,"(857, 878)","(-103,-202)",-95,-338,,,,,,,,,2,4,18,2,,,,,,,,,,,,,,,,,,,,,,,,,,,,,,,,,,,,,,,,,,,,1418.2293048957363,None,1419.3291056570597,None,1420.2622345359996,None,1.4412698412698413,0.7648770459927619,1420.2622345359996,None,,,,,,,,,,,,,,,,,77,001,2023_Apr_18_1307,SpeechDraft1Carolyn_lessNoise_PlusLocalization,2021.2.3,59.96259433681751,
,,,,,,,,center,0.0,6,ch1Sound_localizationTask.wav,0.0,"(952, 878)","(-8,-202)",0,-338,,,,,,,,,2,5,19,3,,,,,,,,,,,,,,,,,,,,,,,,,,,,,,,,,,,,,,,,,,,,1421.0292629059404,None,1422.128916292917,None,1423.0623072227463,None,1.438095238095238,0.6829865272156894,1423.0623072227463,None,,,,,,,,,,,,,,,,,77,001,2023_Apr_18_1307,SpeechDraft1Carolyn_lessNoise_PlusLocalization,2021.2.3,59.96259433681751,
,,,,,,,,farRight,19.1,4,ch1Sound_localizationTask.wav,19.1,"(1237, 878)","(277,-202)",285,-338,,,,,,,,,2,6,20,6,,,,,,,,,,,,,,,,,,,,,,,,,,,,,,,,,,,,,,,,,,,,1423.7459576749243,None,1424.845495597925,None,1425.7790683349594,None,1.6084656084656084,1.0676692249253392,1425.7790683349594,None,,,,,,,,,,,,,,,,,77,001,2023_Apr_18_1307,SpeechDraft1Carolyn_lessNoise_PlusLocalization,2021.2.3,59.96259433681751,
,,,,,,,,midRight,13.0,3,ch1Sound_localizationTask.wav,13.0,"(1142, 878)","(182, -202)",190,-338,,,,,,,,,3,0,21,5,,,,,,,,,,,,,,,,,,,,,,,,,,,,,,,,,,,,,,,,,,,,1426.8627999159507,None,1427.9623320940882,None,1428.8957374799065,None,1.5312169312169313,0.9005550541915,1428.8957374799065,None,,,,,,,,,,,,,,,,,77,001,2023_Apr_18_1307,SpeechDraft1Carolyn_lessNoise_PlusLocalization,2021.2.3,59.96259433681751,
,,,,,,,,nearRight,6.5,0,ch1Sound_localizationTask.wav,6.5,"(1047, 878)","(87, -202)",95,-338,,,,,,,,,3,1,22,4,,,,,,,,,,,,,,,,,,,,,,,,,,,,,,,,,,,,,,,,,,,,1429.8128032069653,None,1430.9124677740037,None,1431.8456249297597,None,1.4904761904761905,0.8312752158381045,1431.8456249297597,None,,,,,,,,,,,,,,,,,77,001,2023_Apr_18_1307,SpeechDraft1Carolyn_lessNoise_PlusLocalization,2021.2.3,59.96259433681751,
,,,,,,,,farLeft,-19.1,5,ch1Sound_localizationTask.wav,-19.1,"(667, 878)","(-293,-202)",-285,-338,,,,,,,,,3,2,23,0,,,,,,,,,,,,,,,,,,,,,,,,,,,,,,,,,,,,,,,,,,,,1432.6795834349468,None,1433.7790168998763,None,1434.7122012311593,None,1.3941798941798942,0.9489210681058466,1434.7122012311593,None,,,,,,,,,,,,,,,,,77,001,2023_Apr_18_1307,SpeechDraft1Carolyn_lessNoise_PlusLocalization,2021.2.3,59.96259433681751,
,,,,,,,,farRight,19.1,4,ch1Sound_localizationTask.wav,19.1,"(1237, 878)","(277,-202)",285,-338,,,,,,,,,3,3,24,6,,,,,,,,,,,,,,,,,,,,,,,,,,,,,,,,,,,,,,,,,,,,1435.6626439569518,None,1436.7623059689067,None,1437.6957613257691,None,1.6296296296296298,0.915243742056191,1437.6957613257691,None,,,,,,,,,,,,,,,,,77,001,2023_Apr_18_1307,SpeechDraft1Carolyn_lessNoise_PlusLocalization,2021.2.3,59.96259433681751,
,,,,,,,,farLeft,-19.1,5,ch1Sound_localizationTask.wav,-19.1,"(667, 878)","(-293,-202)",-285,-338,,,,,,,,,3,4,25,0,,,,,,,,,,,,,,,,,,,,,,,,,,,,,,,,,,,,,,,,,,,,1438.6126313409768,None,1439.712341108825,None,1440.6458756597713,None,1.3412698412698414,1.4154962357133627,1440.6458756597713,None,,,,,,,,,,,,,,,,,77,001,2023_Apr_18_1307,SpeechDraft1Carolyn_lessNoise_PlusLocalization,2021.2.3,59.96259433681751,
,,,,,,,,midLeft,-13.0,2,ch1Sound_localizationTask.wav,-13.0,"(762, 878)","(-198,-202)",-190,-338,,,,,,,,,3,5,26,1,,,,,,,,,,,,,,,,,,,,,,,,,,,,,,,,,,,,,,,,,,,,1442.0627467487939,None,1443.1623563868925,None,1444.0956756989472,None,1.398941798941799,0.9825673806481063,1444.0956756989472,None,,,,,,,,,,,,,,,,,77,001,2023_Apr_18_1307,SpeechDraft1Carolyn_lessNoise_PlusLocalization,2021.2.3,59.96259433681751,
,,,,,,,,nearRight,6.5,0,ch1Sound_localizationTask.wav,6.5,"(1047, 878)","(87, -202)",95,-338,,,,,,,,,3,6,27,4,,,,,,,,,,,,,,,,,,,,,,,,,,,,,,,,,,,,,,,,,,,,1445.08022530796,None,1446.1789480079897,None,1447.1130358600058,None,1.5317460317460316,1.065857029054314,1447.1130358600058,None,,,,,,,,,,,,,,,,,77,001,2023_Apr_18_1307,SpeechDraft1Carolyn_lessNoise_PlusLocalization,2021.2.3,59.96259433681751,
,,,,,,,,midRight,13.0,3,ch1Sound_localizationTask.wav,13.0,"(1142, 878)","(182, -202)",190,-338,,,,,,,,,4,0,28,5,,,,,,,,,,,,,,,,,,,,,,,,,,,,,,,,,,,,,,,,,,,,1448.1792582548223,None,1449.2790029719472,None,1450.2123451968655,None,1.6285714285714286,1.1164819281548262,1450.2123451968655,None,,,,,,,,,,,,,,,,,77,001,2023_Apr_18_1307,SpeechDraft1Carolyn_lessNoise_PlusLocalization,2021.2.3,59.96259433681751,
,,,,,,,,center,0.0,6,ch1Sound_localizationTask.wav,0.0,"(952, 878)","(-8,-202)",0,-338,,,,,,,,,4,1,29,3,,,,,,,,,,,,,,,,,,,,,,,,,,,,,,,,,,,,,,,,,,,,1451.329829081893,None,1452.429203026928,None,1453.3626138581894,None,1.482010582010582,0.6665430129505694,1453.3626138581894,None,,,,,,,,,,,,,,,,,77,001,2023_Apr_18_1307,SpeechDraft1Carolyn_lessNoise_PlusLocalization,2021.2.3,59.96259433681751,
,,,,,,,,farLeft,-19.1,5,ch1Sound_localizationTask.wav,-19.1,"(667, 878)","(-293,-202)",-285,-338,,,,,,,,,4,2,30,0,,,,,,,,,,,,,,,,,,,,,,,,,,,,,,,,,,,,,,,,,,,,1454.0459009627812,None,1455.145755067002,None,1456.0790518587455,None,1.3169312169312168,0.949883455876261,1456.0790518587455,None,,,,,,,,,,,,,,,,,77,001,2023_Apr_18_1307,SpeechDraft1Carolyn_lessNoise_PlusLocalization,2021.2.3,59.96259433681751,
,,,,,,,,midLeft,-13.0,2,ch1Sound_localizationTask.wav,-13.0,"(762, 878)","(-198,-202)",-190,-338,,,,,,,,,4,3,31,1,,,,,,,,,,,,,,,,,,,,,,,,,,,,,,,,,,,,,,,,,,,,1457.0301911151037,None,1458.128996913787,None,1459.0624747667462,None,1.4079365079365078,0.7329373336397111,1459.0624747667462,None,,,,,,,,,,,,,,,,,77,001,2023_Apr_18_1307,SpeechDraft1Carolyn_lessNoise_PlusLocalization,2021.2.3,59.96259433681751,
,,,,,,,,farRight,19.1,4,ch1Sound_localizationTask.wav,19.1,"(1237, 878)","(277,-202)",285,-338,,,,,,,,,4,4,32,6,,,,,,,,,,,,,,,,,,,,,,,,,,,,,,,,,,,,,,,,,,,,1459.795969821047,None,1460.895742334891,None,1461.8289694790728,None,1.6973544973544974,0.7664593304507434,1461.8289694790728,None,,,,,,,,,,,,,,,,,77,001,2023_Apr_18_1307,SpeechDraft1Carolyn_lessNoise_PlusLocalization,2021.2.3,59.96259433681751,
,,,,,,,,nearLeft,-6.5,1,ch1Sound_localizationTask.wav,-6.5,"(857, 878)","(-103,-202)",-95,-338,,,,,,,,,4,5,33,2,,,,,,,,,,,,,,,,,,,,,,,,,,,,,,,,,,,,,,,,,,,,1462.595918491017,None,1463.6956600178964,None,1464.6289954511449,None,1.4264550264550264,0.8158378941006958,1464.6289954511449,None,,,,,,,,,,,,,,,,,77,001,2023_Apr_18_1307,SpeechDraft1Carolyn_lessNoise_PlusLocalization,2021.2.3,59.96259433681751,
,,,,,,,,center,0.0,6,ch1Sound_localizationTask.wav,0.0,"(952, 878)","(-8,-202)",0,-338,,,,,,,,,4,6,34,3,,,,,,,,,,,,,,,,,,,,,,,,,,,,,,,,,,,,,,,,,,,,1465.4460168611258,None,1466.5457139420323,None,1467.4790089060552,None,1.494179894179894,0.6994619742035866,1467.4790089060552,None,,,,,,,,,,,,,,,,,77,001,2023_Apr_18_1307,SpeechDraft1Carolyn_lessNoise_PlusLocalization,2021.2.3,59.96259433681751,
,,,,,,,,midLeft,-13.0,2,ch1Sound_localizationTask.wav,-13.0,"(762, 878)","(-198,-202)",-190,-338,,,,,,,,,5,0,35,1,,,,,,,,,,,,,,,,,,,,,,,,,,,,,,,,,,,,,,,,,,,,1468.1799590098672,None,1469.2788807298057,None,1470.2123088948429,None,1.3248677248677247,1.0167740946635604,1470.2123088948429,None,,,,,,,,,,,,,,,,,77,001,2023_Apr_18_1307,SpeechDraft1Carolyn_lessNoise_PlusLocalization,2021.2.3,59.96259433681751,
,,,,,,,,midRight,13.0,3,ch1Sound_localizationTask.wav,13.0,"(1142, 878)","(182, -202)",190,-338,,,,,,,,,5,1,36,5,,,,,,,,,,,,,,,,,,,,,,,,,,,,,,,,,,,,,,,,,,,,1471.2459197128192,None,1472.3456460898742,None,1473.2789994711056,None,1.7333333333333334,1.3337305122986436,1473.2789994711056,None,,,,,,,,,,,,,,,,,77,001,2023_Apr_18_1307,SpeechDraft1Carolyn_lessNoise_PlusLocalization,2021.2.3,59.96259433681751,
,,,,,,,,nearLeft,-6.5,1,ch1Sound_localizationTask.wav,-6.5,"(857, 878)","(-103,-202)",-95,-338,,,,,,,,,5,2,37,2,,,,,,,,,,,,,,,,,,,,,,,,,,,,,,,,,,,,,,,,,,,,1474.6294413520955,None,1475.7291235951707,None,1476.6624747230671,None,1.4095238095238094,0.672500257845968,1476.6624747230671,None,,,,,,,,,,,,,,,,,77,001,2023_Apr_18_1307,SpeechDraft1Carolyn_lessNoise_PlusLocalization,2021.2.3,59.96259433681751,
,,,,,,,,midRight,13.0,3,ch1Sound_localizationTask.wav,13.0,"(1142, 878)","(182, -202)",190,-338,,,,,,,,,5,3,38,5,,,,,,,,,,,,,,,,,,,,,,,,,,,,,,,,,,,,,,,,,,,,1477.346082674805,None,1478.4456923217513,None,1479.3790365760215,None,1.6830687830687832,2.0498174759559333,1479.3790365760215,None,,,,,,,,,,,,,,,,,77,001,2023_Apr_18_1307,SpeechDraft1Carolyn_lessNoise_PlusLocalization,2021.2.3,59.96259433681751,
,,,,,,,,nearLeft,-6.5,1,ch1Sound_localizationTask.wav,-6.5,"(857, 878)","(-103,-202)",-95,-338,,,,,,,,,5,4,39,2,,,,,,,,,,,,,,,,,,,,,,,,,,,,,,,,,,,,,,,,,,,,1481.4295128881931,None,1482.5291685177945,None,1483.4623794490471,None,1.4047619047619047,0.8838332882151008,1483.4623794490471,None,,,,,,,,,,,,,,,,,77,001,2023_Apr_18_1307,SpeechDraft1Carolyn_lessNoise_PlusLocalization,2021.2.3,59.96259433681751,
,,,,,,,,farLeft,-19.1,5,ch1Sound_localizationTask.wav,-19.1,"(667, 878)","(-293,-202)",-285,-338,,,,,,,,,5,5,40,0,,,,,,,,,,,,,,,,,,,,,,,,,,,,,,,,,,,,,,,,,,,,1484.3473360547796,None,1485.4626231901348,None,1486.3790288711898,None,1.3116402116402117,0.616276775021106,1486.3790288711898,None,,,,,,,,,,,,,,,,,77,001,2023_Apr_18_1307,SpeechDraft1Carolyn_lessNoise_PlusLocalization,2021.2.3,59.96259433681751,
,,,,,,,,farLeft,-19.1,5,ch1Sound_localizationTask.wav,-19.1,"(667, 878)","(-293,-202)",-285,-338,,,,,,,,,5,6,41,0,,,,,,,,,,,,,,,,,,,,,,,,,,,,,,,,,,,,,,,,,,,,1486.997573365923,None,1488.112406449858,None,1489.029048616998,None,1.3253968253968254,0.5650915559381247,1489.029048616998,None,,,,,,,,,,,,,,,,,77,001,2023_Apr_18_1307,SpeechDraft1Carolyn_lessNoise_PlusLocalization,2021.2.3,59.96259433681751,
,,,,,,,,nearLeft,-6.5,1,ch1Sound_localizationTask.wav,-6.5,"(857, 878)","(-103,-202)",-95,-338,,,,,,,,,6,0,42,2,,,,,,,,,,,,,,,,,,,,,,,,,,,,,,,,,,,,,,,,,,,,1489.5960552301258,None,1490.695771896746,None,1491.629159211181,None,1.4222222222222223,0.7487560990266502,1491.629159211181,None,,,,,,,,,,,,,,,,,77,001,2023_Apr_18_1307,SpeechDraft1Carolyn_lessNoise_PlusLocalization,2021.2.3,59.96259433681751,
,,,,,,,,midLeft,-13.0,2,ch1Sound_localizationTask.wav,-13.0,"(762, 878)","(-198,-202)",-190,-338,,,,,,,,,6,1,43,1,,,,,,,,,,,,,,,,,,,,,,,,,,,,,,,,,,,,,,,,,,,,1492.379416231066,None,1493.4789742771536,None,1494.412412086036,None,1.3386243386243386,0.6505613978952169,1494.412412086036,None,,,,,,,,,,,,,,,,,77,001,2023_Apr_18_1307,SpeechDraft1Carolyn_lessNoise_PlusLocalization,2021.2.3,59.96259433681751,
,,,,,,,,nearRight,6.5,0,ch1Sound_localizationTask.wav,6.5,"(1047, 878)","(87, -202)",95,-338,,,,,,,,,6,2,44,4,,,,,,,,,,,,,,,,,,,,,,,,,,,,,,,,,,,,,,,,,,,,1495.0795507710427,None,1496.179171436932,None,1497.112582839094,None,1.6656084656084655,0.5488527799025178,1497.112582839094,None,,,,,,,,,,,,,,,,,77,001,2023_Apr_18_1307,SpeechDraft1Carolyn_lessNoise_PlusLocalization,2021.2.3,59.96259433681751,
,,,,,,,,midRight,13.0,3,ch1Sound_localizationTask.wav,13.0,"(1142, 878)","(182, -202)",190,-338,,,,,,,,,6,3,45,5,,,,,,,,,,,,,,,,,,,,,,,,,,,,,,,,,,,,,,,,,,,,1497.6636034301482,None,1498.7624619798735,None,1499.6957086841576,None,1.6296296296296298,0.7994994199834764,1499.6957086841576,None,,,,,,,,,,,,,,,,,77,001,2023_Apr_18_1307,SpeechDraft1Carolyn_lessNoise_PlusLocalization,2021.2.3,59.96259433681751,
,,,,,,,,nearRight,6.5,0,ch1Sound_localizationTask.wav,6.5,"(1047, 878)","(87, -202)",95,-338,,,,,,,,,6,4,46,4,,,,,,,,,,,,,,,,,,,,,,,,,,,,,,,,,,,,,,,,,,,,1500.4966795449145,None,1501.595781258773,None,1502.5291078467853,None,1.5576719576719578,0.6662549041211605,1502.5291078467853,None,,,,,,,,,,,,,,,,,77,001,2023_Apr_18_1307,SpeechDraft1Carolyn_lessNoise_PlusLocalization,2021.2.3,59.96259433681751,
,,,,,,,,center,0.0,6,ch1Sound_localizationTask.wav,0.0,"(952, 878)","(-8,-202)",0,-338,,,,,,,,,6,5,47,3,,,,,,,,,,,,,,,,,,,,,,,,,,,,,,,,,,,,,,,,,,,,1503.196192311123,None,1504.2958238720894,None,1505.2290976517834,None,1.498941798941799,0.6651779441162944,1505.2290976517834,None,,,,,,,,,,,,,,,,,77,001,2023_Apr_18_1307,SpeechDraft1Carolyn_lessNoise_PlusLocalization,2021.2.3,59.96259433681751,
,,,,,,,,center,0.0,6,ch1Sound_localizationTask.wav,0.0,"(952, 878)","(-8,-202)",0,-338,,,,,,,,,6,6,48,3,,,,,,,,,,,,,,,,,,,,,,,,,,,,,,,,,,,,,,,,,,,,1505.8959955377504,None,1506.995752491057,None,1507.9290567780845,None,1.4634920634920636,0.6173328100703657,1507.9290567780845,None,,,,,,,,,,,,,,,,,77,001,2023_Apr_18_1307,SpeechDraft1Carolyn_lessNoise_PlusLocalization,2021.2.3,59.96259433681751,
,,,,,,,,nearRight,6.5,0,ch1Sound_localizationTask.wav,6.5,"(1047, 878)","(87, -202)",95,-338,,,,,,,,,7,0,49,4,,,,,,,,,,,,,,,,,,,,,,,,,,,,,,,,,,,,,,,,,,,,1508.5628501437604,None,1509.6623947038315,None,1510.5958044817671,None,1.5544973544973546,0.7329904958605766,1510.5958044817671,None,,,,,,,,,,,,,,,,,77,001,2023_Apr_18_1307,SpeechDraft1Carolyn_lessNoise_PlusLocalization,2021.2.3,59.96259433681751,
,,,,,,,,nearLeft,-6.5,1,ch1Sound_localizationTask.wav,-6.5,"(857, 878)","(-103,-202)",-95,-338,,,,,,,,,7,1,50,2,,,,,,,,,,,,,,,,,,,,,,,,,,,,,,,,,,,,,,,,,,,,1511.3300217697397,None,1512.4290315588005,None,1513.3626049449667,None,1.4153439153439153,1.116581117734313,1513.3626049449667,None,,,,,,,,,,,,,,,,,77,001,2023_Apr_18_1307,SpeechDraft1Carolyn_lessNoise_PlusLocalization,2021.2.3,59.96259433681751,
,,,,,,,,farRight,19.1,4,ch1Sound_localizationTask.wav,19.1,"(1237, 878)","(277,-202)",285,-338,,,,,,,,,7,2,51,6,,,,,,,,,,,,,,,,,,,,,,,,,,,,,,,,,,,,,,,,,,,,1514.4962139301933,None,1515.5958923408762,None,1516.5291609801352,None,1.6492063492063491,1.0985523583367467,1516.5291609801352,None,,,,,,,,,,,,,,,,,77,001,2023_Apr_18_1307,SpeechDraft1Carolyn_lessNoise_PlusLocalization,2021.2.3,59.96259433681751,
,,,,,,,,nearRight,6.5,0,ch1Sound_localizationTask.wav,6.5,"(1047, 878)","(87, -202)",95,-338,,,,,,,,,7,3,52,4,,,,,,,,,,,,,,,,,,,,,,,,,,,,,,,,,,,,,,,,,,,,1517.6294475491159,None,1518.7291446467862,None,1519.662314641755,None,1.506878306878307,1.1336479876190424,1519.662314641755,None,,,,,,,,,,,,,,,,,77,001,2023_Apr_18_1307,SpeechDraft1Carolyn_lessNoise_PlusLocalization,2021.2.3,59.96259433681751,
,,,,,,,,midLeft,-13.0,2,ch1Sound_localizationTask.wav,-13.0,"(762, 878)","(-198,-202)",-190,-338,,,,,,,,,7,4,53,1,,,,,,,,,,,,,,,,,,,,,,,,,,,,,,,,,,,,,,,,,,,,1520.8128900737502,None,1521.9125226219185,None,1522.8457157048397,None,1.4285714285714286,1.0997358839958906,1522.8457157048397,None,,,,,,,,,,,,,,,,,77,001,2023_Apr_18_1307,SpeechDraft1Carolyn_lessNoise_PlusLocalization,2021.2.3,59.96259433681751,
,,,,,,,,midRight,13.0,3,ch1Sound_localizationTask.wav,13.0,"(1142, 878)","(182, -202)",190,-338,,,,,,,,,7,5,54,5,,,,,,,,,,,,,,,,,,,,,,,,,,,,,,,,,,,,,,,,,,,,1523.9475539978594,None,1525.0624377997592,None,1525.9789675520733,None,1.6751322751322753,1.9334297641180456,1525.9789675520733,None,,,,,,,,,,,,,,,,,77,001,2023_Apr_18_1307,SpeechDraft1Carolyn_lessNoise_PlusLocalization,2021.2.3,59.96259433681751,
,,,,,,,,center,0.0,6,ch1Sound_localizationTask.wav,0.0,"(952, 878)","(-8,-202)",0,-338,,,,,,,,,7,6,55,3,,,,,,,,,,,,,,,,,,,,,,,,,,,,,,,,,,,,,,,,,,,,1527.9128275318071,None,1529.0124837951735,None,1529.9459236119874,None,1.428042328042328,0.9341002400033176,1529.9459236119874,None,,,,,,,,,,,,,,,,,77,001,2023_Apr_18_1307,SpeechDraft1Carolyn_lessNoise_PlusLocalization,2021.2.3,59.96259433681751,
,,,,,,,,,,,,,,,,,,,,,,,,,,,,,,,,,,,,,,,,,,,,,,,,,,,,,,,,,,,,,,,,,,,,,,,,,,,,,,,,,,space,20.30771159613505,1530.9795014928095,None,,,,,,,,,,,,,77,001,2023_Apr_18_1307,SpeechDraft1Carolyn_lessNoise_PlusLocalization,2021.2.3,59.96259433681751,
,,,,,,,,midLeft,-13.0,2,ch1Sound_localizationTask.wav,-13.0,"(762, 878)","(-198,-202)",-190,-338,,,,,,,,,,,,,0,0,0,1,,,,,,,,,,,,,,,,,,,,,,,,,,,,,,,,,,,,,,,,1551.3290500459261,None,,,1554.3624748149887,None,1.4058201058201059,2.1875023832544684,1554.3624748149887,None,,,,,1530.9795014928095,None,1552.3295417590998,None,1552.5128414337523,1552.5293777259067,,,,,,,77,001,2023_Apr_18_1307,SpeechDraft1Carolyn_lessNoise_PlusLocalization,2021.2.3,59.96259433681751,
,,,,,,,,nearRight,6.5,0,ch1Sound_localizationTask.wav,6.5,"(1047, 878)","(87, -202)",95,-338,,,,,,,,,,,,,0,1,1,4,,,,,,,,,,,,,,,,,,,,,,,,,,,,,,,,,,,,,,,,1556.5477783498354,None,,,1559.5792236067355,None,1.5534391534391534,1.1827825447544456,1559.5792236067355,None,,,,,,,1557.5627369349822,None,1557.7460542330518,1557.7627095570788,,,,,,,77,001,2023_Apr_18_1307,SpeechDraft1Carolyn_lessNoise_PlusLocalization,2021.2.3,59.96259433681751,
,,,,,,,,nearLeft,-6.5,1,ch1Sound_localizationTask.wav,-6.5,"(857, 878)","(-103,-202)",-95,-338,,,,,,,,,,,,,0,2,2,2,,,,,,,,,,,,,,,,,,,,,,,,,,,,,,,,,,,,,,,,1560.7630230220966,None,,,1563.7793315039016,None,1.4492063492063492,0.7169514317065477,1563.7793315039016,None,,,,,,,1561.762887801975,None,1561.9461673111655,1561.962985349819,,,,,,,77,001,2023_Apr_18_1307,SpeechDraft1Carolyn_lessNoise_PlusLocalization,2021.2.3,59.96259433681751,
,,,,,,,,midRight,13.0,3,ch1Sound_localizationTask.wav,13.0,"(1142, 878)","(182, -202)",190,-338,,,,,,,,,,,,,0,3,3,5,,,,,,,,,,,,,,,,,,,,,,,,,,,,,,,,,,,,,,,,1564.5129093839787,None,,,1567.529189994093,None,1.5962962962962963,0.8004108900204301,1567.529189994093,None,,,,,,,1565.5127795017324,None,1565.6962504889816,1565.7127860891633,,,,,,,77,001,2023_Apr_18_1307,SpeechDraft1Carolyn_lessNoise_PlusLocalization,2021.2.3,59.96259433681751,
,,,,,,,,farLeft,-19.1,5,ch1Sound_localizationTask.wav,-19.1,"(667, 878)","(-293,-202)",-285,-338,,,,,,,,,,,,,0,4,4,0,,,,,,,,,,,,,,,,,,,,,,,,,,,,,,,,,,,,,,,,1568.3303477740847,None,,,1571.345921185799,None,1.3486772486772487,0.9517968031577766,1571.345921185799,None,,,,,,,1569.3294086051174,None,1569.512766662985,1569.5293943751603,,,,,,,77,001,2023_Apr_18_1307,SpeechDraft1Carolyn_lessNoise_PlusLocalization,2021.2.3,59.96259433681751,
,,,,,,,,nearLeft,-6.5,1,ch1Sound_localizationTask.wav,-6.5,"(857, 878)","(-103,-202)",-95,-338,,,,,,,,,,,,,0,5,5,2,,,,,,,,,,,,,,,,,,,,,,,,,,,,,,,,,,,,,,,,1572.3131727469154,None,,,1575.3291576099582,None,1.4386243386243387,0.8834023168310523,1575.3291576099582,None,,,,,,,1573.3129588691518,None,1573.4960387097672,1573.5128799127415,,,,,,,77,001,2023_Apr_18_1307,SpeechDraft1Carolyn_lessNoise_PlusLocalization,2021.2.3,59.96259433681751,
,,,,,,,,midRight,13.0,3,ch1Sound_localizationTask.wav,13.0,"(1142, 878)","(182, -202)",190,-338,,,,,,,,,,,,,0,6,6,5,,,,,,,,,,,,,,,,,,,,,,,,,,,,,,,,,,,,,,,,1576.2133016730659,None,,,1579.2291969847865,None,1.5915343915343916,0.900274314917624,1579.2291969847865,None,,,,,,,1577.2128548291512,None,1577.3962557497434,1577.412821128033,,,,,,,77,001,2023_Apr_18_1307,SpeechDraft1Carolyn_lessNoise_PlusLocalization,2021.2.3,59.96259433681751,
,,,,,,,,farLeft,-19.1,5,ch1Sound_localizationTask.wav,-19.1,"(667, 878)","(-293,-202)",-285,-338,,,,,,,,,,,,,1,0,7,0,,,,,,,,,,,,,,,,,,,,,,,,,,,,,,,,,,,,,,,,1580.1305352649651,None,,,1583.145765888039,None,1.334920634920635,1.0346246929839253,1583.145765888039,None,,,,,,,1581.1294850911945,None,1581.3129285029136,1581.329479820095,,,,,,,77,001,2023_Apr_18_1307,SpeechDraft1Carolyn_lessNoise_PlusLocalization,2021.2.3,59.96259433681751,
,,,,,,,,midLeft,-13.0,2,ch1Sound_localizationTask.wav,-13.0,"(762, 878)","(-198,-202)",-190,-338,,,,,,,,,,,,,1,1,8,1,,,,,,,,,,,,,,,,,,,,,,,,,,,,,,,,,,,,,,,,1584.1964292577468,None,,,1587.2125228471123,None,1.4042328042328043,0.9688961878418922,1587.2125228471123,None,,,,,,,1585.1961810421199,None,1585.37949105585,1585.3961089458317,,,,,,,77,001,2023_Apr_18_1307,SpeechDraft1Carolyn_lessNoise_PlusLocalization,2021.2.3,59.96259433681751,
,,,,,,,,nearLeft,-6.5,1,ch1Sound_localizationTask.wav,-6.5,"(857, 878)","(-103,-202)",-95,-338,,,,,,,,,,,,,1,2,9,2,,,,,,,,,,,,,,,,,,,,,,,,,,,,,,,,,,,,,,,,1588.1961368178017,None,,,1591.2124868161045,None,1.433862433862434,1.002322250045836,1591.2124868161045,None,,,,,,,1589.1962140607648,None,1589.3795204521157,1589.3960902611725,,,,,,,77,001,2023_Apr_18_1307,SpeechDraft1Carolyn_lessNoise_PlusLocalization,2021.2.3,59.96259433681751,
,,,,,,,,nearLeft,-6.5,1,ch1Sound_localizationTask.wav,-6.5,"(857, 878)","(-103,-202)",-95,-338,,,,,,,,,,,,,1,3,10,2,,,,,,,,,,,,,,,,,,,,,,,,,,,,,,,,,,,,,,,,1592.2295509539545,None,,,1595.245884156786,None,1.4370370370370371,0.8152629770338535,1595.245884156786,None,,,,,,,1593.2295737587847,None,1593.4128801599145,1593.4297524541616,,,,,,,77,001,2023_Apr_18_1307,SpeechDraft1Carolyn_lessNoise_PlusLocalization,2021.2.3,59.96259433681751,
,,,,,,,,midLeft,-13.0,2,ch1Sound_localizationTask.wav,-13.0,"(762, 878)","(-198,-202)",-190,-338,,,,,,,,,,,,,1,4,11,1,,,,,,,,,,,,,,,,,,,,,,,,,,,,,,,,,,,,,,,,1596.0634851208888,None,,,1599.0792222837918,None,1.4026455026455027,0.9175096359103918,1599.0792222837918,None,,,,,,,1597.0628990270197,None,1597.2464466071688,1597.2630307939835,,,,,,,77,001,2023_Apr_18_1307,SpeechDraft1Carolyn_lessNoise_PlusLocalization,2021.2.3,59.96259433681751,
,,,,,,,,farRight,19.1,4,ch1Sound_localizationTask.wav,19.1,"(1237, 878)","(277,-202)",285,-338,,,,,,,,,,,,,1,5,12,6,,,,,,,,,,,,,,,,,,,,,,,,,,,,,,,,,,,,,,,,1600.0127725079656,None,,,1603.0291604059748,None,1.6396825396825396,0.9330056230537593,1603.0291604059748,None,,,,,,,1601.0128016220406,None,1601.1960464240983,1601.2128407210112,,,,,,,77,001,2023_Apr_18_1307,SpeechDraft1Carolyn_lessNoise_PlusLocalization,2021.2.3,59.96259433681751,
,,,,,,,,farRight,19.1,4,ch1Sound_localizationTask.wav,19.1,"(1237, 878)","(277,-202)",285,-338,,,,,,,,,,,,,1,6,13,6,,,,,,,,,,,,,,,,,,,,,,,,,,,,,,,,,,,,,,,,1603.9631589031778,None,,,1606.979240810033,None,1.67989417989418,1.0496182912029326,1606.979240810033,None,,,,,,,1604.9631034131162,None,1605.1461387588643,1605.1628984189592,,,,,,,77,001,2023_Apr_18_1307,SpeechDraft1Carolyn_lessNoise_PlusLocalization,2021.2.3,59.96259433681751,
,,,,,,,,center,0.0,6,ch1Sound_localizationTask.wav,0.0,"(952, 878)","(-8,-202)",0,-338,,,,,,,,,,,,,2,0,14,3,,,,,,,,,,,,,,,,,,,,,,,,,,,,,,,,,,,,,,,,1608.0299927098677,None,,,1611.0458367560059,None,1.494179894179894,0.8993342448957264,1611.0458367560059,None,,,,,,,1609.0295215570368,None,1609.212886792142,1609.2295491998084,,,,,,,77,001,2023_Apr_18_1307,SpeechDraft1Carolyn_lessNoise_PlusLocalization,2021.2.3,59.96259433681751,
,,,,,,,,midLeft,-13.0,2,ch1Sound_localizationTask.wav,-13.0,"(762, 878)","(-198,-202)",-190,-338,,,,,,,,,,,,,2,1,15,1,,,,,,,,,,,,,,,,,,,,,,,,,,,,,,,,,,,,,,,,1611.94641997898,None,,,1614.9626525011845,None,1.4105820105820106,0.8820431348867714,1614.9626525011845,None,,,,,,,1612.9462090707384,None,1613.1295517180115,1613.1461567478254,,,,,,,77,001,2023_Apr_18_1307,SpeechDraft1Carolyn_lessNoise_PlusLocalization,2021.2.3,59.96259433681751,
,,,,,,,,midRight,13.0,3,ch1Sound_localizationTask.wav,13.0,"(1142, 878)","(182, -202)",190,-338,,,,,,,,,,,,,2,2,16,5,,,,,,,,,,,,,,,,,,,,,,,,,,,,,,,,,,,,,,,,1615.8462422811426,None,,,1618.862569375895,None,1.6031746031746033,0.8661280847154558,1618.862569375895,None,,,,,,,1616.8461759509519,None,1617.0294834161177,1617.0462967371568,,,,,,,77,001,2023_Apr_18_1307,SpeechDraft1Carolyn_lessNoise_PlusLocalization,2021.2.3,59.96259433681751,
,,,,,,,,farLeft,-19.1,5,ch1Sound_localizationTask.wav,-19.1,"(667, 878)","(-293,-202)",-285,-338,,,,,,,,,,,,,2,3,17,0,,,,,,,,,,,,,,,,,,,,,,,,,,,,,,,,,,,,,,,,1619.7294917111285,None,,,1622.74606533302,None,1.3407407407407408,0.9815710494294763,1622.74606533302,None,,,,,,,1620.7297412338667,None,1620.9130287468433,1620.9296340090223,,,,,,,77,001,2023_Apr_18_1307,SpeechDraft1Carolyn_lessNoise_PlusLocalization,2021.2.3,59.96259433681751,
,,,,,,,,center,0.0,6,ch1Sound_localizationTask.wav,0.0,"(952, 878)","(-8,-202)",0,-338,,,,,,,,,,,,,2,4,18,3,,,,,,,,,,,,,,,,,,,,,,,,,,,,,,,,,,,,,,,,1623.7296687071212,None,,,1626.7459002439864,None,1.5031746031746032,1.081096077337861,1626.7459002439864,None,,,,,,,1624.7296820529737,None,1624.9128375859,1624.9294518921524,,,,,,,77,001,2023_Apr_18_1307,SpeechDraft1Carolyn_lessNoise_PlusLocalization,2021.2.3,59.96259433681751,
,,,,,,,,farRight,19.1,4,ch1Sound_localizationTask.wav,19.1,"(1237, 878)","(277,-202)",285,-338,,,,,,,,,,,,,2,5,19,6,,,,,,,,,,,,,,,,,,,,,,,,,,,,,,,,,,,,,,,,1627.8296376741491,None,,,1630.8459284990095,None,1.6476190476190475,1.0661524147726595,1630.8459284990095,None,,,,,,,1628.8295036400668,None,1629.0128350090235,1629.029481669888,,,,,,,77,001,2023_Apr_18_1307,SpeechDraft1Carolyn_lessNoise_PlusLocalization,2021.2.3,59.96259433681751,
,,,,,,,,nearLeft,-6.5,1,ch1Sound_localizationTask.wav,-6.5,"(857, 878)","(-103,-202)",-95,-338,,,,,,,,,,,,,2,6,20,2,,,,,,,,,,,,,,,,,,,,,,,,,,,,,,,,,,,,,,,,1631.9142461349256,None,,,1634.946004731115,None,1.4227513227513229,0.8493792852386832,1634.946004731115,None,,,,,,,1632.929611026775,None,1633.1129897837527,1633.1295132301748,,,,,,,77,001,2023_Apr_18_1307,SpeechDraft1Carolyn_lessNoise_PlusLocalization,2021.2.3,59.96259433681751,
,,,,,,,,nearRight,6.5,0,ch1Sound_localizationTask.wav,6.5,"(1047, 878)","(87, -202)",95,-338,,,,,,,,,,,,,3,0,21,4,,,,,,,,,,,,,,,,,,,,,,,,,,,,,,,,,,,,,,,,1635.7966064908542,None,,,1638.8126037209295,None,1.566137566137566,1.031810131855309,1638.8126037209295,None,,,,,,,1636.7962113129906,None,1636.9795230398886,1636.99621198792,,,,,,,77,001,2023_Apr_18_1307,SpeechDraft1Carolyn_lessNoise_PlusLocalization,2021.2.3,59.96259433681751,
,,,,,,,,center,0.0,6,ch1Sound_localizationTask.wav,0.0,"(952, 878)","(-8,-202)",0,-338,,,,,,,,,,,,,3,1,22,3,,,,,,,,,,,,,,,,,,,,,,,,,,,,,,,,,,,,,,,,1639.84625318693,None,,,1642.8625986389816,None,1.4968253968253968,0.8989141867496073,1642.8625986389816,None,,,,,,,1640.8462087158114,None,1641.0296096121892,1641.0463661341928,,,,,,,77,001,2023_Apr_18_1307,SpeechDraft1Carolyn_lessNoise_PlusLocalization,2021.2.3,59.96259433681751,
,,,,,,,,midRight,13.0,3,ch1Sound_localizationTask.wav,13.0,"(1142, 878)","(182, -202)",190,-338,,,,,,,,,,,,,3,2,23,5,,,,,,,,,,,,,,,,,,,,,,,,,,,,,,,,,,,,,,,,1643.7629378400743,None,,,1646.7792886188254,None,1.5841269841269843,0.8983539012260735,1646.7792886188254,None,,,,,,,1644.762940396089,None,1644.9462393019348,1644.9633487300016,,,,,,,77,001,2023_Apr_18_1307,SpeechDraft1Carolyn_lessNoise_PlusLocalization,2021.2.3,59.96259433681751,
,,,,,,,,center,0.0,6,ch1Sound_localizationTask.wav,0.0,"(952, 878)","(-8,-202)",0,-338,,,,,,,,,,,,,3,3,24,3,,,,,,,,,,,,,,,,,,,,,,,,,,,,,,,,,,,,,,,,1647.6796349231154,None,,,1650.69612787012,None,1.5010582010582012,0.7819341826252639,1650.69612787012,None,,,,,,,1648.6795222470537,None,1648.8628789950162,1648.8797394838184,,,,,,,77,001,2023_Apr_18_1307,SpeechDraft1Carolyn_lessNoise_PlusLocalization,2021.2.3,59.96259433681751,
,,,,,,,,midRight,13.0,3,ch1Sound_localizationTask.wav,13.0,"(1142, 878)","(182, -202)",190,-338,,,,,,,,,,,,,3,4,25,5,,,,,,,,,,,,,,,,,,,,,,,,,,,,,,,,,,,,,,,,1651.480895456858,None,,,1654.512598480098,None,1.6132275132275131,2.532467304263264,1654.512598480098,None,,,,,,,1652.496202368755,None,1652.6795079810545,1652.696259580087,,,,,,,77,001,2023_Apr_18_1307,SpeechDraft1Carolyn_lessNoise_PlusLocalization,2021.2.3,59.96259433681751,
,,,,,,,,center,0.0,6,ch1Sound_localizationTask.wav,0.0,"(952, 878)","(-8,-202)",0,-338,,,,,,,,,,,,,3,5,26,3,,,,,,,,,,,,,,,,,,,,,,,,,,,,,,,,,,,,,,,,1657.0462197987363,None,,,1660.0626925998367,None,1.5026455026455028,0.8169598239473999,1660.0626925998367,None,,,,,,,1658.0462431381457,None,1658.2295782328583,1658.2462927247398,,,,,,,77,001,2023_Apr_18_1307,SpeechDraft1Carolyn_lessNoise_PlusLocalization,2021.2.3,59.96259433681751,
,,,,,,,,farLeft,-19.1,5,ch1Sound_localizationTask.wav,-19.1,"(667, 878)","(-293,-202)",-285,-338,,,,,,,,,,,,,3,6,27,0,,,,,,,,,,,,,,,,,,,,,,,,,,,,,,,,,,,,,,,,1660.8963970458135,None,,,1663.9127588840201,None,1.348148148148148,0.7968628769740462,1663.9127588840201,None,,,,,,,1661.8962503550574,None,1662.0795402769,1662.0962428711355,,,,,,,77,001,2023_Apr_18_1307,SpeechDraft1Carolyn_lessNoise_PlusLocalization,2021.2.3,59.96259433681751,
,,,,,,,,nearLeft,-6.5,1,ch1Sound_localizationTask.wav,-6.5,"(857, 878)","(-103,-202)",-95,-338,,,,,,,,,,,,,4,0,28,2,,,,,,,,,,,,,,,,,,,,,,,,,,,,,,,,,,,,,,,,1664.7129374579526,None,,,1667.729428928811,None,1.438095238095238,0.9321136390790343,1667.729428928811,None,,,,,,,1665.7129161488265,None,1665.8964376137592,1665.9131442061625,,,,,,,77,001,2023_Apr_18_1307,SpeechDraft1Carolyn_lessNoise_PlusLocalization,2021.2.3,59.96259433681751,
,,,,,,,,nearRight,6.5,0,ch1Sound_localizationTask.wav,6.5,"(1047, 878)","(87, -202)",95,-338,,,,,,,,,,,,,4,1,29,4,,,,,,,,,,,,,,,,,,,,,,,,,,,,,,,,,,,,,,,,1668.6628767577931,None,,,1671.6793695390224,None,1.555026455026455,0.9818980959244072,1671.6793695390224,None,,,,,,,1669.6629955079406,None,1669.8462648428977,1669.8630965058692,,,,,,,77,001,2023_Apr_18_1307,SpeechDraft1Carolyn_lessNoise_PlusLocalization,2021.2.3,59.96259433681751,
,,,,,,,,nearRight,6.5,0,ch1Sound_localizationTask.wav,6.5,"(1047, 878)","(87, -202)",95,-338,,,,,,,,,,,,,4,2,30,4,,,,,,,,,,,,,,,,,,,,,,,,,,,,,,,,,,,,,,,,1672.662957882043,None,,,1675.6793929999694,None,1.5486772486772487,0.7486258563585579,1675.6793929999694,None,,,,,,,1673.6629593367688,None,1673.8462397819385,1673.8629641821608,,,,,,,77,001,2023_Apr_18_1307,SpeechDraft1Carolyn_lessNoise_PlusLocalization,2021.2.3,59.96259433681751,
,,,,,,,,farRight,19.1,4,ch1Sound_localizationTask.wav,19.1,"(1237, 878)","(277,-202)",285,-338,,,,,,,,,,,,,4,3,31,6,,,,,,,,,,,,,,,,,,,,,,,,,,,,,,,,,,,,,,,,1676.429660773836,None,,,1679.4459842718206,None,1.646031746031746,0.7152997381053865,1679.4459842718206,None,,,,,,,1677.4295880137943,None,1677.6129169478081,1677.6296414127573,,,,,,,77,001,2023_Apr_18_1307,SpeechDraft1Carolyn_lessNoise_PlusLocalization,2021.2.3,59.96259433681751,
,,,,,,,,midLeft,-13.0,2,ch1Sound_localizationTask.wav,-13.0,"(762, 878)","(-198,-202)",-190,-338,,,,,,,,,,,,,4,4,32,1,,,,,,,,,,,,,,,,,,,,,,,,,,,,,,,,,,,,,,,,1680.1632518409751,None,,,1683.1793342428282,None,1.3846560846560847,0.9001056831330061,1683.1793342428282,None,,,,,,,1681.1629041358829,None,1681.346339251846,1681.3628986999393,,,,,,,77,001,2023_Apr_18_1307,SpeechDraft1Carolyn_lessNoise_PlusLocalization,2021.2.3,59.96259433681751,
,,,,,,,,midRight,13.0,3,ch1Sound_localizationTask.wav,13.0,"(1142, 878)","(182, -202)",190,-338,,,,,,,,,,,,,4,5,33,5,,,,,,,,,,,,,,,,,,,,,,,,,,,,,,,,,,,,,,,,1684.0965931690298,None,,,1687.1130043780431,None,1.608994708994709,1.1662623225711286,1687.1130043780431,None,,,,,,,1685.0963364630006,None,1685.279746899847,1685.2962803510018,,,,,,,77,001,2023_Apr_18_1307,SpeechDraft1Carolyn_lessNoise_PlusLocalization,2021.2.3,59.96259433681751,
,,,,,,,,farRight,19.1,4,ch1Sound_localizationTask.wav,19.1,"(1237, 878)","(277,-202)",285,-338,,,,,,,,,,,,,4,6,34,6,,,,,,,,,,,,,,,,,,,,,,,,,,,,,,,,,,,,,,,,1688.2815043330193,None,,,1691.31284630578,None,1.6978835978835978,0.7990681910887361,1691.31284630578,None,,,,,,,1689.2962891347706,None,1689.4796615890227,1689.4962391741574,,,,,,,77,001,2023_Apr_18_1307,SpeechDraft1Carolyn_lessNoise_PlusLocalization,2021.2.3,59.96259433681751,
,,,,,,,,midLeft,-13.0,2,ch1Sound_localizationTask.wav,-13.0,"(762, 878)","(-198,-202)",-190,-338,,,,,,,,,,,,,5,0,35,1,,,,,,,,,,,,,,,,,,,,,,,,,,,,,,,,,,,,,,,,1692.1132285399362,None,,,1695.1296284291893,None,1.397883597883598,1.1496710628271103,1695.1296284291893,None,,,,,,,1693.1132013979368,None,1693.2964819497429,1693.313234989997,,,,,,,77,001,2023_Apr_18_1307,SpeechDraft1Carolyn_lessNoise_PlusLocalization,2021.2.3,59.96259433681751,
,,,,,,,,midLeft,-13.0,2,ch1Sound_localizationTask.wav,-13.0,"(762, 878)","(-198,-202)",-190,-338,,,,,,,,,,,,,5,1,36,1,,,,,,,,,,,,,,,,,,,,,,,,,,,,,,,,,,,,,,,,1696.2796716960147,None,,,1699.2960758940317,None,1.3804232804232806,1.5998019487597048,1699.2960758940317,None,,,,,,,1697.2798206978478,None,1697.4629099359736,1697.4797575389966,,,,,,,77,001,2023_Apr_18_1307,SpeechDraft1Carolyn_lessNoise_PlusLocalization,2021.2.3,59.96259433681751,
,,,,,,,,farLeft,-19.1,5,ch1Sound_localizationTask.wav,-19.1,"(667, 878)","(-293,-202)",-285,-338,,,,,,,,,,,,,5,2,37,0,,,,,,,,,,,,,,,,,,,,,,,,,,,,,,,,,,,,,,,,1700.8963447660208,None,,,1703.912741961889,None,1.3216931216931216,0.7159831901080906,1703.912741961889,None,,,,,,,1701.8964432911016,None,1702.0795728531666,1702.0964635829441,,,,,,,77,001,2023_Apr_18_1307,SpeechDraft1Carolyn_lessNoise_PlusLocalization,2021.2.3,59.96259433681751,
,,,,,,,,center,0.0,6,ch1Sound_localizationTask.wav,0.0,"(952, 878)","(-8,-202)",0,-338,,,,,,,,,,,,,5,3,38,3,,,,,,,,,,,,,,,,,,,,,,,,,,,,,,,,,,,,,,,,1704.6297952467576,None,,,1707.6460513407364,None,1.5031746031746032,0.8996450710110366,1707.6460513407364,None,,,,,,,1705.629669595044,None,1705.8131078290753,1705.8296119770966,,,,,,,77,001,2023_Apr_18_1307,SpeechDraft1Carolyn_lessNoise_PlusLocalization,2021.2.3,59.96259433681751,
,,,,,,,,midRight,13.0,3,ch1Sound_localizationTask.wav,13.0,"(1142, 878)","(182, -202)",190,-338,,,,,,,,,,,,,5,4,39,5,,,,,,,,,,,,,,,,,,,,,,,,,,,,,,,,,,,,,,,,1708.5630289288238,None,,,1711.5794306509197,None,1.597883597883598,0.9488563169725239,1711.5794306509197,None,,,,,,,1709.5629582470283,None,1709.7463982887566,1709.7630548910238,,,,,,,77,001,2023_Apr_18_1307,SpeechDraft1Carolyn_lessNoise_PlusLocalization,2021.2.3,59.96259433681751,
,,,,,,,,farRight,19.1,4,ch1Sound_localizationTask.wav,19.1,"(1237, 878)","(277,-202)",285,-338,,,,,,,,,,,,,5,5,40,6,,,,,,,,,,,,,,,,,,,,,,,,,,,,,,,,,,,,,,,,1712.5307933408767,None,,,1715.5628953897394,None,1.6666666666666667,0.7826019888743758,1715.5628953897394,None,,,,,,,1713.5463517489843,None,1713.7296557310037,1713.746401233133,,,,,,,77,001,2023_Apr_18_1307,SpeechDraft1Carolyn_lessNoise_PlusLocalization,2021.2.3,59.96259433681751,
,,,,,,,,center,0.0,6,ch1Sound_localizationTask.wav,0.0,"(952, 878)","(-8,-202)",0,-338,,,,,,,,,,,,,5,6,41,3,,,,,,,,,,,,,,,,,,,,,,,,,,,,,,,,,,,,,,,,1716.347734623123,None,,,1719.3628365811892,None,1.5121693121693123,0.8496382110752165,1719.3628365811892,None,,,,,,,1717.346406308934,None,1717.5297448271886,1717.5465864608996,,,,,,,77,001,2023_Apr_18_1307,SpeechDraft1Carolyn_lessNoise_PlusLocalization,2021.2.3,59.96259433681751,
,,,,,,,,nearRight,6.5,0,ch1Sound_localizationTask.wav,6.5,"(1047, 878)","(87, -202)",95,-338,,,,,,,,,,,,,6,0,42,4,,,,,,,,,,,,,,,,,,,,,,,,,,,,,,,,,,,,,,,,1720.2149091260508,None,,,1723.2461133818142,None,1.547089947089947,0.9320715367794037,1723.2461133818142,None,,,,,,,1721.2297523701563,None,1721.4132122988813,1721.429792643059,,,,,,,77,001,2023_Apr_18_1307,SpeechDraft1Carolyn_lessNoise_PlusLocalization,2021.2.3,59.96259433681751,
,,,,,,,,farLeft,-19.1,5,ch1Sound_localizationTask.wav,-19.1,"(667, 878)","(-293,-202)",-285,-338,,,,,,,,,,,,,6,1,43,0,,,,,,,,,,,,,,,,,,,,,,,,,,,,,,,,,,,,,,,,1724.180435650982,None,,,1727.196086625103,None,1.3222222222222222,1.1663943151943386,1727.196086625103,None,,,,,,,1725.179711182136,None,1725.3631486841477,1725.3797425697558,,,,,,,77,001,2023_Apr_18_1307,SpeechDraft1Carolyn_lessNoise_PlusLocalization,2021.2.3,59.96259433681751,
,,,,,,,,nearLeft,-6.5,1,ch1Sound_localizationTask.wav,-6.5,"(857, 878)","(-103,-202)",-95,-338,,,,,,,,,,,,,6,2,44,2,,,,,,,,,,,,,,,,,,,,,,,,,,,,,,,,,,,,,,,,1728.3642101879232,None,,,1731.3962127240375,None,1.4523809523809523,1.1328502190299332,1731.3962127240375,None,,,,,,,1729.3796630087309,None,1729.563079009764,1729.5796684469096,,,,,,,77,001,2023_Apr_18_1307,SpeechDraft1Carolyn_lessNoise_PlusLocalization,2021.2.3,59.96259433681751,
,,,,,,,,farRight,19.1,4,ch1Sound_localizationTask.wav,19.1,"(1237, 878)","(277,-202)",285,-338,,,,,,,,,,,,,6,3,45,6,,,,,,,,,,,,,,,,,,,,,,,,,,,,,,,,,,,,,,,,1732.5310204587877,None,,,1735.56274719676,None,1.608994708994709,0.6164769101887941,1735.56274719676,None,,,,,,,1733.546430457849,None,1733.729725890793,1733.746412971057,,,,,,,77,001,2023_Apr_18_1307,SpeechDraft1Carolyn_lessNoise_PlusLocalization,2021.2.3,59.96259433681751,
,,,,,,,,midLeft,-13.0,2,ch1Sound_localizationTask.wav,-13.0,"(762, 878)","(-198,-202)",-190,-338,,,,,,,,,,,,,6,4,46,1,,,,,,,,,,,,,,,,,,,,,,,,,,,,,,,,,,,,,,,,1736.1812075898051,None,,,1739.212892231997,None,1.3873015873015873,0.6847157552838326,1739.212892231997,None,,,,,,,1737.19637882011,None,1737.3797248778865,1737.3963803271763,,,,,,,77,001,2023_Apr_18_1307,SpeechDraft1Carolyn_lessNoise_PlusLocalization,2021.2.3,59.96259433681751,
,,,,,,,,center,0.0,6,ch1Sound_localizationTask.wav,0.0,"(952, 878)","(-8,-202)",0,-338,,,,,,,,,,,,,6,5,47,3,,,,,,,,,,,,,,,,,,,,,,,,,,,,,,,,,,,,,,,,1739.913432567846,None,,,1742.9294872228056,None,1.4952380952380953,0.8822767408564687,1742.9294872228056,None,,,,,,,1740.9132145391777,None,1741.096679748036,1741.1132495501079,,,,,,,77,001,2023_Apr_18_1307,SpeechDraft1Carolyn_lessNoise_PlusLocalization,2021.2.3,59.96259433681751,
,,,,,,,,nearLeft,-6.5,1,ch1Sound_localizationTask.wav,-6.5,"(857, 878)","(-103,-202)",-95,-338,,,,,,,,,,,,,6,6,48,2,,,,,,,,,,,,,,,,,,,,,,,,,,,,,,,,,,,,,,,,1743.8131854841486,None,,,1746.829470608849,None,1.4476190476190476,0.7007938642054796,1746.829470608849,None,,,,,,,1744.813064396847,None,1744.9963859459385,1745.0130805317312,,,,,,,77,001,2023_Apr_18_1307,SpeechDraft1Carolyn_lessNoise_PlusLocalization,2021.2.3,59.96259433681751,
,,,,,,,,farRight,19.1,4,ch1Sound_localizationTask.wav,19.1,"(1237, 878)","(277,-202)",285,-338,,,,,,,,,,,,,7,0,49,6,,,,,,,,,,,,,,,,,,,,,,,,,,,,,,,,,,,,,,,,1747.5464530480094,None,,,1750.5627780547366,None,1.6412698412698412,0.8657199810259044,1750.5627780547366,None,,,,,,,1748.5464587928727,None,1748.7299317517318,1748.7463633557782,,,,,,,77,001,2023_Apr_18_1307,SpeechDraft1Carolyn_lessNoise_PlusLocalization,2021.2.3,59.96259433681751,
,,,,,,,,midRight,13.0,3,ch1Sound_localizationTask.wav,13.0,"(1142, 878)","(182, -202)",190,-338,,,,,,,,,,,,,7,1,50,5,,,,,,,,,,,,,,,,,,,,,,,,,,,,,,,,,,,,,,,,1751.4297016528435,None,,,1754.4462123271078,None,1.6285714285714286,0.6823768862523139,1754.4462123271078,None,,,,,,,1752.4297799668275,None,1752.6129626799375,1752.6297870627604,,,,,,,77,001,2023_Apr_18_1307,SpeechDraft1Carolyn_lessNoise_PlusLocalization,2021.2.3,59.96259433681751,
,,,,,,,,farLeft,-19.1,5,ch1Sound_localizationTask.wav,-19.1,"(667, 878)","(-293,-202)",-285,-338,,,,,,,,,,,,,7,2,51,0,,,,,,,,,,,,,,,,,,,,,,,,,,,,,,,,,,,,,,,,1755.1302450168878,None,,,1758.1461812891066,None,1.3343915343915345,1.2979404260404408,1758.1461812891066,None,,,,,,,1756.1300854701549,None,1756.3133202111349,1756.3299587909132,,,,,,,77,001,2023_Apr_18_1307,SpeechDraft1Carolyn_lessNoise_PlusLocalization,2021.2.3,59.96259433681751,
,,,,,,,,nearRight,6.5,0,ch1Sound_localizationTask.wav,6.5,"(1047, 878)","(87, -202)",95,-338,,,,,,,,,,,,,7,3,52,4,,,,,,,,,,,,,,,,,,,,,,,,,,,,,,,,,,,,,,,,1759.4465888491832,None,,,1762.4626867719926,None,1.5756613756613755,0.965060125105083,1762.4626867719926,None,,,,,,,1760.4464169871062,None,1760.629655198194,1760.646513139829,,,,,,,77,001,2023_Apr_18_1307,SpeechDraft1Carolyn_lessNoise_PlusLocalization,2021.2.3,59.96259433681751,
,,,,,,,,nearRight,6.5,0,ch1Sound_localizationTask.wav,6.5,"(1047, 878)","(87, -202)",95,-338,,,,,,,,,,,,,7,4,53,4,,,,,,,,,,,,,,,,,,,,,,,,,,,,,,,,,,,,,,,,1763.429781767074,None,,,1766.4462017701007,None,1.5423280423280423,0.7988608470186591,1766.4462017701007,None,,,,,,,1764.4297461397946,None,1764.6131400521845,1764.6298118368722,,,,,,,77,001,2023_Apr_18_1307,SpeechDraft1Carolyn_lessNoise_PlusLocalization,2021.2.3,59.96259433681751,
,,,,,,,,farLeft,-19.1,5,ch1Sound_localizationTask.wav,-19.1,"(667, 878)","(-293,-202)",-285,-338,,,,,,,,,,,,,7,5,54,0,,,,,,,,,,,,,,,,,,,,,,,,,,,,,,,,,,,,,,,,1767.2467194828205,None,,,1770.262748367153,None,1.3777777777777778,1.0134541178122163,1770.262748367153,None,,,,,,,1768.2463184390217,None,1768.4297070470639,1768.446389536839,,,,,,,77,001,2023_Apr_18_1307,SpeechDraft1Carolyn_lessNoise_PlusLocalization,2021.2.3,59.96259433681751,
,,,,,,,,nearRight,6.5,0,ch1Sound_localizationTask.wav,6.5,"(1047, 878)","(87, -202)",95,-338,,,,,,,,,,,,,7,6,55,4,,,,,,,,,,,,,,,,,,,,,,,,,,,,,,,,,,,,,,,,1771.2803540867753,None,,,1774.2962324079126,None,1.5878306878306878,0.7655830136500299,1774.2962324079126,None,,,,,,,1772.279869126156,None,1772.4631040510722,1772.479785004165,,,,,,,77,001,2023_Apr_18_1307,SpeechDraft1Carolyn_lessNoise_PlusLocalization,2021.2.3,59.96259433681751,
,,,,,,,,,,,,,,,,,,,,,,,,,,,,,,,,,,,,,,,,,,,,,,,,,,,,,,,,,,,,,,,,,,,,,,,,,,,,,,,,,,,,,,,,,,,,1775.0634680408984,None,c,88011.48079653084,1776.0464082709514,None,77,001,2023_Apr_18_1307,SpeechDraft1Carolyn_lessNoise_PlusLocalization,2021.2.3,59.96259433681751,
