{"meta_data":{"additional_headers":{},"game_name":"Recollect","version":"2.53.01","user_name":"78","organization":"braingamecenter","study":"mpl2_2022_11","session_number":0,"device_id":"74342D95-EE82-45E3-8ADF-48FB3203C5DD"},"data":[{"stage":"Practice","trial":0,"sequence":"6F","letter_input":"F","number_input":"6","is_correct":true,"presentation_start_time":1681934528313.64,"presentation_end_time":1681934531314.89,"response_time":1681934542062.17},{"stage":"Practice","trial":1,"sequence":"G4","letter_input":"G","number_input":"4","is_correct":true,"presentation_start_time":1681934543591.84,"presentation_end_time":1681934546593.2,"response_time":1681934552172.56},{"stage":"Practice","trial":2,"sequence":"3W5","letter_input":"W","number_input":"35","is_correct":true,"presentation_start_time":1681934553705.15,"presentation_end_time":1681934558205.76,"response_time":1681934564668.37},{"stage":"Practice","trial":3,"sequence":"T7L","letter_input":"LT","number_input":"7","is_correct":true,"presentation_start_time":1681934566201.1,"presentation_end_time":1681934570701.84,"response_time":1681934578513.73},{"stage":"Practice","trial":4,"sequence":"9J1","letter_input":"J","number_input":"19","is_correct":true,"presentation_start_time":1681934580046.48,"presentation_end_time":1681934584547.34,"response_time":1681934589510.23},{"stage":"Calibration","trial":0,"sequence":"8S","letter_input":"S","number_input":"8","is_correct":true,"presentation_start_time":1681934601122.78,"presentation_end_time":1681934604124.15,"response_time":1681934609120.29},{"stage":"Calibration","trial":1,"sequence":"J5","letter_input":"J","number_input":"5","is_correct":true,"presentation_start_time":1681934610653.09,"presentation_end_time":1681934613654.29,"response_time":1681934617350.93},{"stage":"Calibration","trial":2,"sequence":"8L4","letter_input":"L","number_input":"48","is_correct":true,"presentation_start_time":1681934618883.62,"presentation_end_time":1681934623384.32,"response_time":1681934628097.34},{"stage":"Calibration","trial":3,"sequence":"Y3S","letter_input":"SY","number_input":"3","is_correct":true,"presentation_start_time":1681934629630.08,"presentation_end_time":1681934634130.82,"response_time":1681934641159.83},{"stage":"Calibration","trial":4,"sequence":"6E4A","letter_input":"AE","number_input":"46","is_correct":true,"presentation_start_time":1681934642692.43,"presentation_end_time":1681934648692.62,"response_time":1681934663719},{"stage":"Calibration","trial":5,"sequence":"Z7K1","letter_input":"KZ","number_input":"17","is_correct":true,"presentation_start_time":1681934665251.64,"presentation_end_time":1681934671252.02,"response_time":1681934678813.94},{"stage":"Calibration","trial":6,"sequence":"8V5B3","letter_input":"BV","number_input":"358","is_correct":true,"presentation_start_time":1681934680346.58,"presentation_end_time":1681934687846.43,"response_time":1681934702656.08},{"stage":"Calibration","trial":7,"sequence":"R6N2J","letter_input":"JNR","number_input":"26","is_correct":true,"presentation_start_time":1681934704188.85,"presentation_end_time":1681934711688.64,"response_time":1681934730146.95},{"stage":"Calibration","trial":8,"sequence":"7H5F3C","letter_input":"C","number_input":"6357","is_correct":false,"presentation_start_time":1681934731679.6,"presentation_end_time":1681934740678.91,"response_time":1681934768417.63},{"stage":"Calibration","trial":9,"sequence":"G1V6Q4","letter_input":"GQ","number_input":"1346","is_correct":false,"presentation_start_time":1681934769950.36,"presentation_end_time":1681934778949.5,"response_time":1681934795142.27}]}