{"meta_data":{"additional_headers":{},"game_name":"Recollect","version":"2.53.01","user_name":"79","organization":"braingamecenter","study":"mpl2_2022_11","session_number":0,"device_id":"74342D95-EE82-45E3-8ADF-48FB3203C5DD"},"data":[{"stage":"Practice","trial":0,"sequence":"6F","letter_input":"F","number_input":"6","is_correct":true,"presentation_start_time":1682021469952.62,"presentation_end_time":1682021472953.86,"response_time":1682021480718.9},{"stage":"Practice","trial":1,"sequence":"G4","letter_input":"G","number_input":"4","is_correct":true,"presentation_start_time":1682021482248.56,"presentation_end_time":1682021485249.81,"response_time":1682021491312.32},{"stage":"Practice","trial":2,"sequence":"3W5","letter_input":"W","number_input":"35","is_correct":true,"presentation_start_time":1682021492844.96,"presentation_end_time":1682021497345.66,"response_time":1682021504724.46},{"stage":"Practice","trial":3,"sequence":"T7L","letter_input":"LT","number_input":"7","is_correct":true,"presentation_start_time":1682021506257.22,"presentation_end_time":1682021510757.96,"response_time":1682021519236.34},{"stage":"Practice","trial":4,"sequence":"9J1","letter_input":"J","number_input":"19","is_correct":true,"presentation_start_time":1682021520769.1,"presentation_end_time":1682021525269.57,"response_time":1682021531782.18},{"stage":"Calibration","trial":0,"sequence":"L8","letter_input":"L","number_input":"8","is_correct":true,"presentation_start_time":1682021537680.27,"presentation_end_time":1682021540681.19,"response_time":1682021545361},{"stage":"Calibration","trial":1,"sequence":"2D","letter_input":"D","number_input":"2","is_correct":true,"presentation_start_time":1682021546893.76,"presentation_end_time":1682021549894.95,"response_time":1682021553824.82},{"stage":"Calibration","trial":2,"sequence":"P1F","letter_input":"FP","number_input":"1","is_correct":true,"presentation_start_time":1682021555357.64,"presentation_end_time":1682021559858.37,"response_time":1682021569936.27},{"stage":"Calibration","trial":3,"sequence":"7R5","letter_input":"R","number_input":"57","is_correct":true,"presentation_start_time":1682021571468.96,"presentation_end_time":1682021575969.65,"response_time":1682021582398.73},{"stage":"Calibration","trial":4,"sequence":"M9K6","letter_input":"K","number_input":"69","is_correct":false,"presentation_start_time":1682021583931.47,"presentation_end_time":1682021589931.73,"response_time":1682021597443.74},{"stage":"Calibration","trial":5,"sequence":"7P1L","letter_input":"LP","number_input":"17","is_correct":true,"presentation_start_time":1682021598976.56,"presentation_end_time":1682021604976.75,"response_time":1682021610322.83},{"stage":"Calibration","trial":6,"sequence":"N6J3T","letter_input":"JNT","number_input":"36","is_correct":true,"presentation_start_time":1682021611855.55,"presentation_end_time":1682021619355.22,"response_time":1682021642978.63},{"stage":"Calibration","trial":7,"sequence":"4Z1H8","letter_input":"HZ","number_input":"48","is_correct":false,"presentation_start_time":1682021644511.33,"presentation_end_time":1682021652011.02,"response_time":1682021661455.83},{"stage":"Calibration","trial":8,"sequence":"K2W7S5","letter_input":"KSW","number_input":"256","is_correct":false,"presentation_start_time":1682021662988.58,"presentation_end_time":1682021671987.67,"response_time":1682021700142.99},{"stage":"Calibration","trial":9,"sequence":"8N6H4V","letter_input":"HNV","number_input":"268","is_correct":false,"presentation_start_time":1682021701675.71,"presentation_end_time":1682021710674.87,"response_time":1682021731899.15}]}