Audio_Only_Files,Video_Files,Original_Word_List,noiseLevelCode,conditionCodes,noiseLevelFile1,noiseLevelFile2,InstrTextVar,targetSpeakerName,targetSpeakerEccen,targetSpkrChannel,targetSpkrSound,targetVisualDegrees,visStimLoc,visStimLoc2,visStimW,visStimH,practiceTrials.thisRepN,practiceTrials.thisTrialN,practiceTrials.thisN,practiceTrials.thisIndex,trials.thisRepN,trials.thisTrialN,trials.thisN,trials.thisIndex,audLocalLoop.thisRepN,audLocalLoop.thisTrialN,audLocalLoop.thisN,audLocalLoop.thisIndex,visualLocalLoop.thisRepN,visualLocalLoop.thisTrialN,visualLocalLoop.thisN,visualLocalLoop.thisIndex,letsGoAlready.keys,letsGoAlready.rt,letsGoAlready.started,letsGoAlready.stopped,text_2.started,text_2.stopped,text_3.started,text_3.stopped,key_resp_2.keys,key_resp_2.rt,key_resp_2.started,key_resp_2.stopped,text_5.started,text_5.stopped,fixCross.started,fixCross.stopped,fixCross2.started,fixCross2.stopped,answerPrompt.started,answerPrompt.stopped,getAnswer.text,getAnswer.started,getAnswer.stopped,goToNext.keys,goToNext.rt,goToNext.started,goToNext.stopped,stretchBreakTxrt.started,stretchBreakTxrt.stopped,key_resp_3.keys,key_resp_3.rt,key_resp_3.started,key_resp_3.stopped,letsGoLocal.keys,letsGoLocal.rt,letsGoLocal.started,letsGoLocal.stopped,text_4.started,text_4.stopped,prepFixTxt.started,prepFixTxt.stopped,prepFixTxt_2.started,prepFixTxt_2.stopped,respPromptLocal.started,respPromptLocal.stopped,slider.response,slider.rt,slider.started,slider.stopped,letsGoLocal_2.keys,letsGoLocal_2.rt,letsGoLocal_2.started,letsGoLocal_2.stopped,text_7.started,text_7.stopped,prepFixTxt_3.started,prepFixTxt_3.stopped,grating.started,grating.stopped,participant,session,date,expName,psychopyVersion,frameRate,
,,,,,,,,,,,,,,,,,,,,,,,,,,,,,,,,,space,0.998930374160409,11.160043549723923,None,,,,,,,,,,,,,,,,,,,,,,,,,,,,,,,,,,,,,,,,,,,,,,,,,,,,,,,,79,001,2023_Apr_20_1433,SpeechDraft1Carolyn_lessNoise_PlusLocalization,2021.2.3,60.020579655306854,
,,,,,,,,,,,,,,,,,,,,,,,,,,,,,,,,,,,,,11.160043549723923,None,12.278331021778286,None,space,0.4744501826353371,12.46052471967414,None,,,,,,,,,,,,,,,,,,,,,,,,,,,,,,,,,,,,,,,,,,,,,,,,79,001,2023_Apr_20_1433,SpeechDraft1Carolyn_lessNoise_PlusLocalization,2021.2.3,60.020579655306854,
ash.wav,ash.mpg,ash,1,A,Pink_Noise_1_1.wav,Pink_Noise_1_2.wav,"This is an example of an

AUDIO trial",,,,,,,,,,0,0,0,0,,,,,,,,,,,,,,,,,,,,,,,,,12.993495131842792,None,13.976913603954017,None,16.05982595682144,None,17.443860922940075,None,ash,17.443860922940075,None,return,4.448263568803668,17.526853333692998,None,,,,,,,,,,,,,,,,,,,,,,,,,,,,,,,,,79,001,2023_Apr_20_1433,SpeechDraft1Carolyn_lessNoise_PlusLocalization,2021.2.3,60.020579655306854,
ash.wav,ash.mpg,ash,1,AV,Pink_Noise_1_1.wav,Pink_Noise_1_2.wav,"This is an example of an

AUDIO + VIDEO  trial",,,,,,,,,,0,1,1,1,,,,,,,,,,,,,,,,,,,,,,,,,22.009741863701493,None,23.01019572885707,None,24.495351206045598,None,25.876904516946524,None,ash,25.876904516946524,None,return,1.607078262604773,25.9600324369967,None,,,,,,,,,,,,,,,,,,,,,,,,,,,,,,,,,79,001,2023_Apr_20_1433,SpeechDraft1Carolyn_lessNoise_PlusLocalization,2021.2.3,60.020579655306854,
,,,,,,,,,,,,,,,,,,,,,,,,,,,,,,,,,,,,,,,,,,,,,,,,,,,,,,,,,,,,27.60971615696326,None,space,6.2854565270245075,27.79350302182138,None,,,,,,,,,,,,,,,,,,,,,,,,,,,79,001,2023_Apr_20_1433,SpeechDraft1Carolyn_lessNoise_PlusLocalization,2021.2.3,60.020579655306854,
chunk.wav,chunk.mpg,chunk,6,AV,Pink_Noise_6_1.wav,Pink_Noise_6_2.wav,,,,,,,,,,,,,,,0,0,0,64,,,,,,,,,,,,,,,,,,,,,,,34.14344029780477,None,35.62636999366805,None,37.01001982204616,None,shot,37.01001982204616,None,return,3.361540236044675,37.0934402840212,None,,,,,,,,,,,,,,,,,,,,,,,,,,,,,,,,,79,001,2023_Apr_20_1433,SpeechDraft1Carolyn_lessNoise_PlusLocalization,2021.2.3,60.020579655306854,
birth.wav,birth.mpg,birth,6,A,Pink_Noise_6_1.wav,Pink_Noise_6_2.wav,,,,,,,,,,,,,,,0,1,1,19,,,,,,,,,,,,,,,,,,,,,,,40.47681421181187,None,41.976304777897894,None,43.36012263968587,None,"
",43.36012263968587,None,return,26.219607528764755,43.44337162561715,None,,,,,,,,,,,,,,,,,,,,,,,,,,,,,,,,,79,001,2023_Apr_20_1433,SpeechDraft1Carolyn_lessNoise_PlusLocalization,2021.2.3,60.020579655306854,
blood.wav,blood.mpg,blood,6,A,Pink_Noise_6_1.wav,Pink_Noise_6_2.wav,,,,,,,,,,,,,,,0,2,2,35,,,,,,,,,,,,,,,,,,,,,,,69.7102545327507,None,71.20981799671426,None,72.5936395409517,None,,72.5936395409517,None,return,28.6101313540712,72.67686117487028,None,,,,,,,,,,,,,,,,,,,,,,,,,,,,,,,,,79,001,2023_Apr_20_1433,SpeechDraft1Carolyn_lessNoise_PlusLocalization,2021.2.3,60.020579655306854,
flop.wav,flop.mpg,flop,5,A,Pink_Noise_5_1.wav,Pink_Noise_5_2.wav,,,,,,,,,,,,,,,0,3,3,38,,,,,,,,,,,,,,,,,,,,,,,101.3101180777885,None,102.80983113497496,None,104.19354415405542,None,"slap
",104.19354415405542,None,return,1.4020863599143922,104.27686844067648,None,,,,,,,,,,,,,,,,,,,,,,,,,,,,,,,,,79,001,2023_Apr_20_1433,SpeechDraft1Carolyn_lessNoise_PlusLocalization,2021.2.3,60.020579655306854,
brake.wav,brake.mpg,brake,3,AV,Pink_Noise_3_1.wav,Pink_Noise_3_2.wav,,,,,,,,,,,,,,,0,4,4,114,,,,,,,,,,,,,,,,,,,,,,,105.71010657399893,None,107.20987662160769,None,108.59347189497203,None,"break
",108.59347189497203,None,return,1.402100175153464,108.6768957870081,None,,,,,,,,,,,,,,,,,,,,,,,,,,,,,,,,,79,001,2023_Apr_20_1433,SpeechDraft1Carolyn_lessNoise_PlusLocalization,2021.2.3,60.020579655306854,
wine.wav,wine.mpg,wine,6,A,Pink_Noise_6_1.wav,Pink_Noise_6_2.wav,,,,,,,,,,,,,,,0,5,5,33,,,,,,,,,,,,,,,,,,,,,,,110.11030437005684,None,111.6099153868854,None,112.99363813363016,None,"white
",112.99363813363016,None,return,1.2341513112187386,113.07682710001245,None,,,,,,,,,,,,,,,,,,,,,,,,,,,,,,,,,79,001,2023_Apr_20_1433,SpeechDraft1Carolyn_lessNoise_PlusLocalization,2021.2.3,60.020579655306854,
priest.wav,priest.mpg,priest,4,AV,Pink_Noise_4_1.wav,Pink_Noise_4_2.wav,,,,,,,,,,,,,,,0,6,6,73,,,,,,,,,,,,,,,,,,,,,,,114.34368866495788,None,115.84319305187091,None,117.22687435802072,None,"fist
",117.22687435802072,None,return,1.4007595288567245,117.3102203947492,None,,,,,,,,,,,,,,,,,,,,,,,,,,,,,,,,,79,001,2023_Apr_20_1433,SpeechDraft1Carolyn_lessNoise_PlusLocalization,2021.2.3,60.020579655306854,
dark.wav,dark.mpg,dark,4,A,Pink_Noise_4_1.wav,Pink_Noise_4_2.wav,,,,,,,,,,,,,,,0,7,7,24,,,,,,,,,,,,,,,,,,,,,,,118.74351537274197,None,120.22781481174752,None,121.61017196672037,None,"slaw
",121.61017196672037,None,return,1.617452880833298,121.69352664565668,None,,,,,,,,,,,,,,,,,,,,,,,,,,,,,,,,,79,001,2023_Apr_20_1433,SpeechDraft1Carolyn_lessNoise_PlusLocalization,2021.2.3,60.020579655306854,
core.wav,core.mpg,core,6,AV,Pink_Noise_6_1.wav,Pink_Noise_6_2.wav,,,,,,,,,,,,,,,0,8,8,108,,,,,,,,,,,,,,,,,,,,,,,123.3435495258309,None,124.84337221086025,None,126.22671344364062,None,corn,126.22671344364062,None,return,1.3287772280164063,126.31019197963178,None,,,,,,,,,,,,,,,,,,,,,,,,,,,,,,,,,79,001,2023_Apr_20_1433,SpeechDraft1Carolyn_lessNoise_PlusLocalization,2021.2.3,60.020579655306854,
egg.wav,egg.mpg,egg,2,A,Pink_Noise_2_1.wav,Pink_Noise_2_2.wav,,,,,,,,,,,,,,,0,9,9,59,,,,,,,,,,,,,,,,,,,,,,,127.66020059399307,None,129.15991752780974,None,130.54378885263577,None,egg,130.54378885263577,None,return,0.9561208509840071,130.62694784486666,None,,,,,,,,,,,,,,,,,,,,,,,,,,,,,,,,,79,001,2023_Apr_20_1433,SpeechDraft1Carolyn_lessNoise_PlusLocalization,2021.2.3,60.020579655306854,
wind.wav,wind.mpg,wind,4,A,Pink_Noise_4_1.wav,Pink_Noise_4_2.wav,,,,,,,,,,,,,,,0,10,10,37,,,,,,,,,,,,,,,,,,,,,,,131.6105152950622,None,133.10992705775425,None,134.49357473198324,None,wind,134.49357473198324,None,return,1.1662483410909772,134.57690928177908,None,,,,,,,,,,,,,,,,,,,,,,,,,,,,,,,,,79,001,2023_Apr_20_1433,SpeechDraft1Carolyn_lessNoise_PlusLocalization,2021.2.3,60.020579655306854,
chew.wav,chew.mpg,chew,5,AV,Pink_Noise_5_1.wav,Pink_Noise_5_2.wav,,,,,,,,,,,,,,,0,11,11,105,,,,,,,,,,,,,,,,,,,,,,,135.76027520466596,None,137.25988357281312,None,138.6436633518897,None,"chew
",138.6436633518897,None,return,2.9681076616980135,138.72686952585354,None,,,,,,,,,,,,,,,,,,,,,,,,,,,,,,,,,79,001,2023_Apr_20_1433,SpeechDraft1Carolyn_lessNoise_PlusLocalization,2021.2.3,60.020579655306854,
dope.wav,dope.mpg,dope,5,A,Pink_Noise_5_1.wav,Pink_Noise_5_2.wav,,,,,,,,,,,,,,,0,12,12,46,,,,,,,,,,,,,,,,,,,,,,,141.72714374074712,None,143.22639366798103,None,144.5935931066051,None,dote,144.5935931066051,None,return,1.7938785920850933,144.67708847206086,None,,,,,,,,,,,,,,,,,,,,,,,,,,,,,,,,,79,001,2023_Apr_20_1433,SpeechDraft1Carolyn_lessNoise_PlusLocalization,2021.2.3,60.020579655306854,
eve.wav,eve.mpg,eve,6,A,Pink_Noise_6_1.wav,Pink_Noise_6_2.wav,,,,,,,,,,,,,,,0,13,13,17,,,,,,,,,,,,,,,,,,,,,,,146.49356758687645,None,147.99330206494778,None,149.3601965890266,None,"clean
",149.3601965890266,None,return,1.4354543783701956,149.44351536873728,None,,,,,,,,,,,,,,,,,,,,,,,,,,,,,,,,,79,001,2023_Apr_20_1433,SpeechDraft1Carolyn_lessNoise_PlusLocalization,2021.2.3,60.020579655306854,
break.wav,break.mpg,break,3,AV,Pink_Noise_3_1.wav,Pink_Noise_3_2.wav,,,,,,,,,,,,,,,0,14,14,91,,,,,,,,,,,,,,,,,,,,,,,150.91022107563913,None,152.4099970976822,None,153.7935391436331,None,break,153.7935391436331,None,return,1.4661933397874236,153.8769378629513,None,,,,,,,,,,,,,,,,,,,,,,,,,,,,,,,,,79,001,2023_Apr_20_1433,SpeechDraft1Carolyn_lessNoise_PlusLocalization,2021.2.3,60.020579655306854,
cause.wav,cause.mpg,cause,1,AV,Pink_Noise_1_1.wav,Pink_Noise_1_2.wav,,,,,,,,,,,,,,,0,15,15,109,,,,,,,,,,,,,,,,,,,,,,,155.36035927198827,None,156.84475781675428,None,158.22691579861566,None,cause,158.22691579861566,None,return,0.9448056798428297,158.31019620178267,None,,,,,,,,,,,,,,,,,,,,,,,,,,,,,,,,,79,001,2023_Apr_20_1433,SpeechDraft1Carolyn_lessNoise_PlusLocalization,2021.2.3,60.020579655306854,
base.wav,base.mpg,base,6,A,Pink_Noise_6_1.wav,Pink_Noise_6_2.wav,,,,,,,,,,,,,,,0,16,16,45,,,,,,,,,,,,,,,,,,,,,,,159.2769635077566,None,160.77656551962718,None,162.14362645661458,None,,162.14362645661458,None,return,0.7800349998287857,162.22703159460798,None,,,,,,,,,,,,,,,,,,,,,,,,,,,,,,,,,79,001,2023_Apr_20_1433,SpeechDraft1Carolyn_lessNoise_PlusLocalization,2021.2.3,60.020579655306854,
hug.wav,hug.mpg,hug,3,AV,Pink_Noise_3_1.wav,Pink_Noise_3_2.wav,,,,,,,,,,,,,,,0,17,17,89,,,,,,,,,,,,,,,,,,,,,,,163.02768779965118,None,164.52659709891304,None,165.91018918063492,None,hug,165.91018918063492,None,return,1.8293452598154545,165.9936568629928,None,,,,,,,,,,,,,,,,,,,,,,,,,,,,,,,,,79,001,2023_Apr_20_1433,SpeechDraft1Carolyn_lessNoise_PlusLocalization,2021.2.3,60.020579655306854,
clad.wav,clad.mpg,clad,6,AV,Pink_Noise_6_1.wav,Pink_Noise_6_2.wav,,,,,,,,,,,,,,,0,18,18,99,,,,,,,,,,,,,,,,,,,,,,,167.8437393186614,None,169.3432735428214,None,170.7103084870614,None,leg,170.7103084870614,None,return,2.813374829944223,170.79367401497439,None,,,,,,,,,,,,,,,,,,,,,,,,,,,,,,,,,79,001,2023_Apr_20_1433,SpeechDraft1Carolyn_lessNoise_PlusLocalization,2021.2.3,60.020579655306854,
bribe.wav,bribe.mpg,bribe,2,A,Pink_Noise_2_1.wav,Pink_Noise_2_2.wav,,,,,,,,,,,,,,,0,19,19,50,,,,,,,,,,,,,,,,,,,,,,,173.62697202479467,None,175.12662180000916,None,176.51047481969,None,"bribe
",176.51047481969,None,return,2.085465454030782,176.59351303987205,None,,,,,,,,,,,,,,,,,,,,,,,,,,,,,,,,,79,001,2023_Apr_20_1433,SpeechDraft1Carolyn_lessNoise_PlusLocalization,2021.2.3,60.020579655306854,
bed.wav,bed.mpg,bed,6,AV,Pink_Noise_6_1.wav,Pink_Noise_6_2.wav,,,,,,,,,,,,,,,0,20,20,82,,,,,,,,,,,,,,,,,,,,,,,178.71042591705918,None,180.20996961463243,None,181.59354974189773,None,mend,181.59354974189773,None,return,2.330150934867561,181.6768960347399,None,,,,,,,,,,,,,,,,,,,,,,,,,,,,,,,,,79,001,2023_Apr_20_1433,SpeechDraft1Carolyn_lessNoise_PlusLocalization,2021.2.3,60.020579655306854,
damn.wav,damn.mpg,damn,2,AV,Pink_Noise_2_1.wav,Pink_Noise_2_2.wav,,,,,,,,,,,,,,,0,21,21,98,,,,,,,,,,,,,,,,,,,,,,,184.02700053993613,None,185.5266168708913,None,186.91045888094231,None,dam,186.91045888094231,None,return,1.7334254863671958,186.99359430372715,None,,,,,,,,,,,,,,,,,,,,,,,,,,,,,,,,,79,001,2023_Apr_20_1433,SpeechDraft1Carolyn_lessNoise_PlusLocalization,2021.2.3,60.020579655306854,
bridge.wav,bridge.mpg,bridge,4,A,Pink_Noise_4_1.wav,Pink_Noise_4_2.wav,,,,,,,,,,,,,,,0,22,22,22,,,,,,,,,,,,,,,,,,,,,,,188.7435189317912,None,190.24327324191108,None,191.6269129170105,None,"bridge
",191.6269129170105,None,return,1.2006210549734533,191.71035789884627,None,,,,,,,,,,,,,,,,,,,,,,,,,,,,,,,,,79,001,2023_Apr_20_1433,SpeechDraft1Carolyn_lessNoise_PlusLocalization,2021.2.3,60.020579655306854,
gate.wav,gate.mpg,gate,5,A,Pink_Noise_5_1.wav,Pink_Noise_5_2.wav,,,,,,,,,,,,,,,0,23,23,40,,,,,,,,,,,,,,,,,,,,,,,192.9438614277169,None,194.44322895864025,None,195.82704895501956,None,"gift
",195.82704895501956,None,return,1.1367665310390294,195.91024542879313,None,,,,,,,,,,,,,,,,,,,,,,,,,,,,,,,,,79,001,2023_Apr_20_1433,SpeechDraft1Carolyn_lessNoise_PlusLocalization,2021.2.3,60.020579655306854,
fifth.wav,fifth.mpg,fifth,5,AV,Pink_Noise_5_1.wav,Pink_Noise_5_2.wav,,,,,,,,,,,,,,,0,24,24,90,,,,,,,,,,,,,,,,,,,,,,,197.07690234482288,None,198.57666259864345,None,199.9602141836658,None,fifth,199.9602141836658,None,return,1.1232095710001886,200.04392151581123,None,,,,,,,,,,,,,,,,,,,,,,,,,,,,,,,,,79,001,2023_Apr_20_1433,SpeechDraft1Carolyn_lessNoise_PlusLocalization,2021.2.3,60.020579655306854,
cloak.wav,cloak.mpg,cloak,4,A,Pink_Noise_4_1.wav,Pink_Noise_4_2.wav,,,,,,,,,,,,,,,0,25,25,54,,,,,,,,,,,,,,,,,,,,,,,201.1936456086114,None,202.6933538527228,None,204.0771323167719,None,cloak,204.0771323167719,None,return,0.9586763856932521,204.16033102804795,None,,,,,,,,,,,,,,,,,,,,,,,,,,,,,,,,,79,001,2023_Apr_20_1433,SpeechDraft1Carolyn_lessNoise_PlusLocalization,2021.2.3,60.020579655306854,
deed.wav,deed.mpg,deed,4,A,Pink_Noise_4_1.wav,Pink_Noise_4_2.wav,,,,,,,,,,,,,,,0,26,26,34,,,,,,,,,,,,,,,,,,,,,,,205.14357891492546,None,206.6433851267211,None,208.02715042373165,None,lose,208.02715042373165,None,return,0.6327462182380259,208.11034735105932,None,,,,,,,,,,,,,,,,,,,,,,,,,,,,,,,,,79,001,2023_Apr_20_1433,SpeechDraft1Carolyn_lessNoise_PlusLocalization,2021.2.3,60.020579655306854,
foul.wav,foul.mpg,foul,1,AV,Pink_Noise_1_1.wav,Pink_Noise_1_2.wav,,,,,,,,,,,,,,,0,27,27,115,,,,,,,,,,,,,,,,,,,,,,,208.76035345578566,None,210.2600412806496,None,211.64366885693744,None,fou;l,211.64366885693744,None,return,0.6639999412000179,211.72697562677786,None,,,,,,,,,,,,,,,,,,,,,,,,,,,,,,,,,79,001,2023_Apr_20_1433,SpeechDraft1Carolyn_lessNoise_PlusLocalization,2021.2.3,60.020579655306854,
champ.wav,champ.mpg,champ,2,AV,Pink_Noise_2_1.wav,Pink_Noise_2_2.wav,,,,,,,,,,,,,,,0,28,28,66,,,,,,,,,,,,,,,,,,,,,,,212.41028657462448,None,213.90997976996005,None,215.29355794284493,None,chip,215.29355794284493,None,return,1.7099648220464587,215.37702095275745,None,,,,,,,,,,,,,,,,,,,,,,,,,,,,,,,,,79,001,2023_Apr_20_1433,SpeechDraft1Carolyn_lessNoise_PlusLocalization,2021.2.3,60.020579655306854,
cried.wav,cried.mpg,cried,2,A,Pink_Noise_2_1.wav,Pink_Noise_2_2.wav,,,,,,,,,,,,,,,0,29,29,27,,,,,,,,,,,,,,,,,,,,,,,217.11042543360963,None,218.60993902664632,None,219.99388223467395,None,"cried
",219.99388223467395,None,return,0.9540471681393683,220.07695424882695,None,,,,,,,,,,,,,,,,,,,,,,,,,,,,,,,,,79,001,2023_Apr_20_1433,SpeechDraft1Carolyn_lessNoise_PlusLocalization,2021.2.3,60.020579655306854,
dread.wav,dread.mpg,dread,6,A,Pink_Noise_6_1.wav,Pink_Noise_6_2.wav,,,,,,,,,,,,,,,0,30,30,57,,,,,,,,,,,,,,,,,,,,,,,221.06042147474363,None,222.55985016096383,None,223.94374769879505,None,"led
",223.94374769879505,None,return,1.6519993911497295,224.02699106791988,None,,,,,,,,,,,,,,,,,,,,,,,,,,,,,,,,,79,001,2023_Apr_20_1433,SpeechDraft1Carolyn_lessNoise_PlusLocalization,2021.2.3,60.020579655306854,
gloom.wav,gloom.mpg,gloom,1,AV,Pink_Noise_1_1.wav,Pink_Noise_1_2.wav,,,,,,,,,,,,,,,0,31,31,104,,,,,,,,,,,,,,,,,,,,,,,225.71043931972235,None,227.2099660616368,None,228.59360589506105,None,gloom,228.59360589506105,None,return,1.9779580933973193,228.67700604861602,None,,,,,,,,,,,,,,,,,,,,,,,,,,,,,,,,,79,001,2023_Apr_20_1433,SpeechDraft1Carolyn_lessNoise_PlusLocalization,2021.2.3,60.020579655306854,
route.wav,route.mpg,route,2,A,Pink_Noise_2_1.wav,Pink_Noise_2_2.wav,,,,,,,,,,,,,,,0,32,32,2,,,,,,,,,,,,,,,,,,,,,,,230.6770807998255,None,232.17666511796415,None,233.56052005384117,None,brute,233.56052005384117,None,return,4.195398073177785,233.64358419086784,None,,,,,,,,,,,,,,,,,,,,,,,,,,,,,,,,,79,001,2023_Apr_20_1433,SpeechDraft1Carolyn_lessNoise_PlusLocalization,2021.2.3,60.020579655306854,
chill.wav,chill.mpg,chill,6,AV,Pink_Noise_6_1.wav,Pink_Noise_6_2.wav,,,,,,,,,,,,,,,0,33,33,67,,,,,,,,,,,,,,,,,,,,,,,237.8604127438739,None,239.36003244668245,None,240.74363509379327,None,chin,240.74363509379327,None,return,2.3877997612580657,240.82716758875176,None,,,,,,,,,,,,,,,,,,,,,,,,,,,,,,,,,79,001,2023_Apr_20_1433,SpeechDraft1Carolyn_lessNoise_PlusLocalization,2021.2.3,60.020579655306854,
lie.wav,lie.mpg,lie,2,A,Pink_Noise_2_1.wav,Pink_Noise_2_2.wav,,,,,,,,,,,,,,,0,34,34,52,,,,,,,,,,,,,,,,,,,,,,,243.24367239279673,None,244.74333513295278,None,246.12717335671186,None,lie,246.12717335671186,None,return,1.116661579348147,246.21037845872343,None,,,,,,,,,,,,,,,,,,,,,,,,,,,,,,,,,79,001,2023_Apr_20_1433,SpeechDraft1Carolyn_lessNoise_PlusLocalization,2021.2.3,60.020579655306854,
fence.wav,fence.mpg,fence,1,A,Pink_Noise_1_1.wav,Pink_Noise_1_2.wav,,,,,,,,,,,,,,,0,35,35,51,,,,,,,,,,,,,,,,,,,,,,,247.34368269797415,None,248.84329102002084,None,250.22720045177266,None,beds,250.22720045177266,None,return,0.9445808408781886,250.31039153365418,None,,,,,,,,,,,,,,,,,,,,,,,,,,,,,,,,,79,001,2023_Apr_20_1433,SpeechDraft1Carolyn_lessNoise_PlusLocalization,2021.2.3,60.020579655306854,
chore.wav,chore.mpg,chore,5,AV,Pink_Noise_5_1.wav,Pink_Noise_5_2.wav,,,,,,,,,,,,,,,0,36,36,83,,,,,,,,,,,,,,,,,,,,,,,251.27719755005091,None,252.77674099290743,None,254.16027475800365,None,choy,254.16027475800365,None,return,2.2910898737609386,254.2438747799024,None,,,,,,,,,,,,,,,,,,,,,,,,,,,,,,,,,79,001,2023_Apr_20_1433,SpeechDraft1Carolyn_lessNoise_PlusLocalization,2021.2.3,60.020579655306854,
live.wav,live.mpg,live,3,AV,Pink_Noise_3_1.wav,Pink_Noise_3_2.wav,,,,,,,,,,,,,,,0,37,37,101,,,,,,,,,,,,,,,,,,,,,,,256.5605997876264,None,258.060125477612,None,259.4436656148173,None,"ledge
",259.4436656148173,None,return,1.5679154582321644,259.52707833005115,None,,,,,,,,,,,,,,,,,,,,,,,,,,,,,,,,,79,001,2023_Apr_20_1433,SpeechDraft1Carolyn_lessNoise_PlusLocalization,2021.2.3,60.020579655306854,
three.wav,three.mpg,three,6,A,Pink_Noise_6_1.wav,Pink_Noise_6_2.wav,,,,,,,,,,,,,,,0,38,38,13,,,,,,,,,,,,,,,,,,,,,,,261.1271432777867,None,262.62670674175024,None,264.01048699673265,None,cook,264.01048699673265,None,return,2.0811531632207334,264.0938275177032,None,,,,,,,,,,,,,,,,,,,,,,,,,,,,,,,,,79,001,2023_Apr_20_1433,SpeechDraft1Carolyn_lessNoise_PlusLocalization,2021.2.3,60.020579655306854,
bow.wav,bow.mpg,bow,2,A,Pink_Noise_2_1.wav,Pink_Noise_2_2.wav,,,,,,,,,,,,,,,0,39,39,56,,,,,,,,,,,,,,,,,,,,,,,266.1938385628164,None,267.6933751036413,None,269.0770823797211,None,foul,269.0770823797211,None,return,0.9746255511417985,269.1604833388701,None,,,,,,,,,,,,,,,,,,,,,,,,,,,,,,,,,79,001,2023_Apr_20_1433,SpeechDraft1Carolyn_lessNoise_PlusLocalization,2021.2.3,60.020579655306854,
gum.wav,gum.mpg,gum,1,A,Pink_Noise_1_1.wav,Pink_Noise_1_2.wav,,,,,,,,,,,,,,,0,40,40,41,,,,,,,,,,,,,,,,,,,,,,,270.16030652681366,None,271.6600657128729,None,273.0438181636855,None,ghoul,273.0438181636855,None,return,3.3598617180250585,273.1271495446563,None,,,,,,,,,,,,,,,,,,,,,,,,,,,,,,,,,79,001,2023_Apr_20_1433,SpeechDraft1Carolyn_lessNoise_PlusLocalization,2021.2.3,60.020579655306854,
gown.wav,gown.mpg,gown,5,AV,Pink_Noise_5_1.wav,Pink_Noise_5_2.wav,,,,,,,,,,,,,,,0,41,41,68,,,,,,,,,,,,,,,,,,,,,,,276.5103644216433,None,278.01019856287166,None,279.39373387861997,None,nail,279.39373387861997,None,return,1.3778267093002796,279.47715739160776,None,,,,,,,,,,,,,,,,,,,,,,,,,,,,,,,,,79,001,2023_Apr_20_1433,SpeechDraft1Carolyn_lessNoise_PlusLocalization,2021.2.3,60.020579655306854,
crank.wav,crank.mpg,crank,3,A,Pink_Noise_3_1.wav,Pink_Noise_3_2.wav,,,,,,,,,,,,,,,0,42,42,10,,,,,,,,,,,,,,,,,,,,,,,280.8772289948538,None,282.37676813080907,None,283.7604027139023,None,creak,283.7604027139023,None,return,1.779212802182883,283.84375568060204,None,,,,,,,,,,,,,,,,,,,,,,,,,,,,,,,,,79,001,2023_Apr_20_1433,SpeechDraft1Carolyn_lessNoise_PlusLocalization,2021.2.3,60.020579655306854,
boss.wav,boss.mpg,boss,4,A,Pink_Noise_4_1.wav,Pink_Noise_4_2.wav,,,,,,,,,,,,,,,0,43,43,5,,,,,,,,,,,,,,,,,,,,,,,285.6438422128558,None,287.16017617098987,None,288.54378965403885,None,watch,288.54378965403885,None,return,0.8920181039720774,288.62699624570087,None,,,,,,,,,,,,,,,,,,,,,,,,,,,,,,,,,79,001,2023_Apr_20_1433,SpeechDraft1Carolyn_lessNoise_PlusLocalization,2021.2.3,60.020579655306854,
claw.wav,claw.mpg,claw,3,AV,Pink_Noise_3_1.wav,Pink_Noise_3_2.wav,,,,,,,,,,,,,,,0,44,44,100,,,,,,,,,,,,,,,,,,,,,,,289.54380059288815,None,291.04347451776266,None,292.4273653989658,None,claw,292.4273653989658,None,return,0.42457342706620693,292.5105163678527,None,,,,,,,,,,,,,,,,,,,,,,,,,,,,,,,,,79,001,2023_Apr_20_1433,SpeechDraft1Carolyn_lessNoise_PlusLocalization,2021.2.3,60.020579655306854,
quart.wav,quart.mpg,quart,5,A,Pink_Noise_5_1.wav,Pink_Noise_5_2.wav,,,,,,,,,,,,,,,0,45,45,42,,,,,,,,,,,,,,,,,,,,,,,292.9604265508242,None,294.46011870587245,None,295.843822482042,None,work,295.843822482042,None,return,1.5117770419456065,295.9272098909132,None,,,,,,,,,,,,,,,,,,,,,,,,,,,,,,,,,79,001,2023_Apr_20_1433,SpeechDraft1Carolyn_lessNoise_PlusLocalization,2021.2.3,60.020579655306854,
brown.wav,brown.mpg,brown,5,AV,Pink_Noise_5_1.wav,Pink_Noise_5_2.wav,,,,,,,,,,,,,,,0,46,46,110,,,,,,,,,,,,,,,,,,,,,,,297.46049117390066,None,298.9601983819157,None,300.34370651561767,None,round,300.34370651561767,None,return,0.7159490999765694,300.4272042969242,None,,,,,,,,,,,,,,,,,,,,,,,,,,,,,,,,,79,001,2023_Apr_20_1433,SpeechDraft1Carolyn_lessNoise_PlusLocalization,2021.2.3,60.020579655306854,
crowd.wav,crowd.mpg,crowd,3,A,Pink_Noise_3_1.wav,Pink_Noise_3_2.wav,,,,,,,,,,,,,,,0,47,47,47,,,,,,,,,,,,,,,,,,,,,,,301.16055768262595,None,302.66007606871426,None,304.04381634062156,None,crowd,304.04381634062156,None,return,1.063963484019041,304.12704849569127,None,,,,,,,,,,,,,,,,,,,,,,,,,,,,,,,,,79,001,2023_Apr_20_1433,SpeechDraft1Carolyn_lessNoise_PlusLocalization,2021.2.3,60.020579655306854,
goose.wav,goose.mpg,goose,5,A,Pink_Noise_5_1.wav,Pink_Noise_5_2.wav,,,,,,,,,,,,,,,0,48,48,44,,,,,,,,,,,,,,,,,,,,,,,305.2106009759009,None,306.7102115950547,None,308.0939069199376,None,fix,308.0939069199376,None,return,0.9259373359382153,308.17704451689497,None,,,,,,,,,,,,,,,,,,,,,,,,,,,,,,,,,79,001,2023_Apr_20_1433,SpeechDraft1Carolyn_lessNoise_PlusLocalization,2021.2.3,60.020579655306854,
bib.wav,bib.mpg,bib,2,AV,Pink_Noise_2_1.wav,Pink_Noise_2_2.wav,,,,,,,,,,,,,,,0,49,49,119,,,,,,,,,,,,,,,,,,,,,,,309.1272593908943,None,310.6267550336197,None,312.0267964126542,None,bib,312.0267964126542,None,return,0.3931946442462504,312.0937928739004,None,,,,,,,,,,,,,,,,,,,,,,,,,,,,,,,,,79,001,2023_Apr_20_1433,SpeechDraft1Carolyn_lessNoise_PlusLocalization,2021.2.3,60.020579655306854,
flip.wav,flip.mpg,flip,3,A,Pink_Noise_3_1.wav,Pink_Noise_3_2.wav,,,,,,,,,,,,,,,0,50,50,1,,,,,,,,,,,,,,,,,,,,,,,312.51042506378144,None,314.0101604619995,None,315.3939566430636,None,lift,315.3939566430636,None,return,2.1776712997816503,315.4772842018865,None,,,,,,,,,,,,,,,,,,,,,,,,,,,,,,,,,79,001,2023_Apr_20_1433,SpeechDraft1Carolyn_lessNoise_PlusLocalization,2021.2.3,60.020579655306854,
grand.wav,grand.mpg,grand,1,A,Pink_Noise_1_1.wav,Pink_Noise_1_2.wav,,,,,,,,,,,,,,,0,51,51,21,,,,,,,,,,,,,,,,,,,,,,,317.6771391760558,None,319.19340094178915,None,320.577245360706,None,grand,320.577245360706,None,return,1.0745825050398707,320.66052875388414,None,,,,,,,,,,,,,,,,,,,,,,,,,,,,,,,,,79,001,2023_Apr_20_1433,SpeechDraft1Carolyn_lessNoise_PlusLocalization,2021.2.3,60.020579655306854,
pop.wav,pop.mpg,pop,6,AV,Pink_Noise_6_1.wav,Pink_Noise_6_2.wav,,,,,,,,,,,,,,,0,52,52,60,,,,,,,,,,,,,,,,,,,,,,,321.76049473602325,None,323.2601557909511,None,324.6436890969053,None,pop,324.6436890969053,None,return,1.0238724118098617,324.7272375538014,None,,,,,,,,,,,,,,,,,,,,,,,,,,,,,,,,,79,001,2023_Apr_20_1433,SpeechDraft1Carolyn_lessNoise_PlusLocalization,2021.2.3,60.020579655306854,
chess.wav,chess.mpg,chess,3,AV,Pink_Noise_3_1.wav,Pink_Noise_3_2.wav,,,,,,,,,,,,,,,0,53,53,117,,,,,,,,,,,,,,,,,,,,,,,325.77740953303874,None,327.2769629349932,None,328.6608468419872,None,chest,328.6608468419872,None,return,2.463231065310538,328.7438179207966,None,,,,,,,,,,,,,,,,,,,,,,,,,,,,,,,,,79,001,2023_Apr_20_1433,SpeechDraft1Carolyn_lessNoise_PlusLocalization,2021.2.3,60.020579655306854,
please.wav,please.mpg,please,4,AV,Pink_Noise_4_1.wav,Pink_Noise_4_2.wav,,,,,,,,,,,,,,,0,54,54,65,,,,,,,,,,,,,,,,,,,,,,,331.2272519087419,None,332.72692270902917,None,334.110559867695,None,bids,334.110559867695,None,return,1.6770418868400156,334.19396074302495,None,,,,,,,,,,,,,,,,,,,,,,,,,,,,,,,,,79,001,2023_Apr_20_1433,SpeechDraft1Carolyn_lessNoise_PlusLocalization,2021.2.3,60.020579655306854,
dare.wav,dare.mpg,dare,4,AV,Pink_Noise_4_1.wav,Pink_Noise_4_2.wav,,,,,,,,,,,,,,,0,55,55,85,,,,,,,,,,,,,,,,,,,,,,,335.89384607365355,None,337.3936220300384,None,338.77708517573774,None,"dare
",338.77708517573774,None,return,1.5864455699920654,338.8605336570181,None,,,,,,,,,,,,,,,,,,,,,,,,,,,,,,,,,79,001,2023_Apr_20_1433,SpeechDraft1Carolyn_lessNoise_PlusLocalization,2021.2.3,60.020579655306854,
fad.wav,fad.mpg,fad,1,A,Pink_Noise_1_1.wav,Pink_Noise_1_2.wav,,,,,,,,,,,,,,,0,56,56,0,,,,,,,,,,,,,,,,,,,,,,,340.4773354586214,None,341.9768081479706,None,343.36076007271186,None,fed,343.36076007271186,None,return,0.8432294321246445,343.44377062562853,None,,,,,,,,,,,,,,,,,,,,,,,,,,,,,,,,,79,001,2023_Apr_20_1433,SpeechDraft1Carolyn_lessNoise_PlusLocalization,2021.2.3,60.020579655306854,
beach.wav,beach.mpg,beach,1,AV,Pink_Noise_1_1.wav,Pink_Noise_1_2.wav,,,,,,,,,,,,,,,0,57,57,69,,,,,,,,,,,,,,,,,,,,,,,344.31053287070245,None,345.81205714773387,None,347.1937545170076,None,beach,347.1937545170076,None,return,2.1138399350456893,347.2772504687309,None,,,,,,,,,,,,,,,,,,,,,,,,,,,,,,,,,79,001,2023_Apr_20_1433,SpeechDraft1Carolyn_lessNoise_PlusLocalization,2021.2.3,60.020579655306854,
cop.wav,cop.mpg,cop,6,AV,Pink_Noise_6_1.wav,Pink_Noise_6_2.wav,,,,,,,,,,,,,,,0,58,58,88,,,,,,,,,,,,,,,,,,,,,,,349.4104473446496,None,350.91021245904267,None,352.2938209748827,None,cup,352.2938209748827,None,return,0.6458207671530545,352.3771643070504,None,,,,,,,,,,,,,,,,,,,,,,,,,,,,,,,,,79,001,2023_Apr_20_1433,SpeechDraft1Carolyn_lessNoise_PlusLocalization,2021.2.3,60.020579655306854,
beat.wav,beat.mpg,beat,6,A,Pink_Noise_6_1.wav,Pink_Noise_6_2.wav,,,,,,,,,,,,,,,0,59,59,18,,,,,,,,,,,,,,,,,,,,,,,353.0438348776661,None,354.5434685116634,None,355.92724006576464,None,hit,355.92724006576464,None,return,1.060378786176443,356.0105898240581,None,,,,,,,,,,,,,,,,,,,,,,,,,,,,,,,,,79,001,2023_Apr_20_1433,SpeechDraft1Carolyn_lessNoise_PlusLocalization,2021.2.3,60.020579655306854,
hike.wav,hike.mpg,hike,5,AV,Pink_Noise_5_1.wav,Pink_Noise_5_2.wav,,,,,,,,,,,,,,,0,60,60,118,,,,,,,,,,,,,,,,,,,,,,,357.0938357869163,None,358.5934608327225,None,359.9774276698008,None,cut,359.9774276698008,None,return,0.41048862179741263,360.0605027899146,None,,,,,,,,,,,,,,,,,,,,,,,,,,,,,,,,,79,001,2023_Apr_20_1433,SpeechDraft1Carolyn_lessNoise_PlusLocalization,2021.2.3,60.020579655306854,
fuel.wav,fuel.mpg,fuel,1,AV,Pink_Noise_1_1.wav,Pink_Noise_1_2.wav,,,,,,,,,,,,,,,0,61,61,80,,,,,,,,,,,,,,,,,,,,,,,360.49398084077984,None,361.99355578189716,None,363.3773893308826,None,fuel,363.3773893308826,None,return,1.0104435859248042,363.46055979374796,None,,,,,,,,,,,,,,,,,,,,,,,,,,,,,,,,,79,001,2023_Apr_20_1433,SpeechDraft1Carolyn_lessNoise_PlusLocalization,2021.2.3,60.020579655306854,
bin.wav,bin.mpg,bin,3,AV,Pink_Noise_3_1.wav,Pink_Noise_3_2.wav,,,,,,,,,,,,,,,0,62,62,102,,,,,,,,,,,,,,,,,,,,,,,364.49386511091143,None,365.9936312707141,None,367.37711880076677,None,bin,367.37711880076677,None,return,0.5385653860867023,367.4606248936616,None,,,,,,,,,,,,,,,,,,,,,,,,,,,,,,,,,79,001,2023_Apr_20_1433,SpeechDraft1Carolyn_lessNoise_PlusLocalization,2021.2.3,60.020579655306854,
mass.wav,mass.mpg,mass,2,AV,Pink_Noise_2_1.wav,Pink_Noise_2_2.wav,,,,,,,,,,,,,,,0,63,63,87,,,,,,,,,,,,,,,,,,,,,,,368.0272080809809,None,369.5270069167018,None,370.91062234761193,None,mess,370.91062234761193,None,return,1.3731665345840156,370.9939155378379,None,,,,,,,,,,,,,,,,,,,,,,,,,,,,,,,,,79,001,2023_Apr_20_1433,SpeechDraft1Carolyn_lessNoise_PlusLocalization,2021.2.3,60.020579655306854,
cap.wav,cap.mpg,cap,3,A,Pink_Noise_3_1.wav,Pink_Noise_3_2.wav,,,,,,,,,,,,,,,0,64,64,9,,,,,,,,,,,,,,,,,,,,,,,372.3938501048833,None,373.89356603706256,None,375.27725310390815,None,cat,375.27725310390815,None,return,0.3665375867858529,375.3605446666479,None,,,,,,,,,,,,,,,,,,,,,,,,,,,,,,,,,79,001,2023_Apr_20_1433,SpeechDraft1Carolyn_lessNoise_PlusLocalization,2021.2.3,60.020579655306854,
cook.wav,cook.mpg,cook,5,A,Pink_Noise_5_1.wav,Pink_Noise_5_2.wav,,,,,,,,,,,,,,,0,65,65,12,,,,,,,,,,,,,,,,,,,,,,,375.7438706937246,None,377.2436749008484,None,378.6273885658011,None,,378.6273885658011,None,return,0.3122357428073883,378.71077636489645,None,,,,,,,,,,,,,,,,,,,,,,,,,,,,,,,,,79,001,2023_Apr_20_1433,SpeechDraft1Carolyn_lessNoise_PlusLocalization,2021.2.3,60.020579655306854,
pike.wav,pike.mpg,pike,2,AV,Pink_Noise_2_1.wav,Pink_Noise_2_2.wav,,,,,,,,,,,,,,,0,66,66,81,,,,,,,,,,,,,,,,,,,,,,,379.0446703848429,None,380.54366479301825,None,381.92718806583434,None,pike,381.92718806583434,None,return,2.060338017065078,382.010654815007,None,,,,,,,,,,,,,,,,,,,,,,,,,,,,,,,,,79,001,2023_Apr_20_1433,SpeechDraft1Carolyn_lessNoise_PlusLocalization,2021.2.3,60.020579655306854,
bright.wav,bright.mpg,bright,3,AV,Pink_Noise_3_1.wav,Pink_Noise_3_2.wav,,,,,,,,,,,,,,,0,67,67,116,,,,,,,,,,,,,,,,,,,,,,,384.09398060804233,None,385.5937909488566,None,386.9772852566093,None,"bright
",386.9772852566093,None,return,1.1704093683511019,387.06056791264564,None,,,,,,,,,,,,,,,,,,,,,,,,,,,,,,,,,79,001,2023_Apr_20_1433,SpeechDraft1Carolyn_lessNoise_PlusLocalization,2021.2.3,60.020579655306854,
gulp.wav,gulp.mpg,gulp,3,A,Pink_Noise_3_1.wav,Pink_Noise_3_2.wav,,,,,,,,,,,,,,,0,68,68,49,,,,,,,,,,,,,,,,,,,,,,,388.26064570387825,None,389.7601680937223,None,391.143924950622,None,goal,391.143924950622,None,return,1.0755907548591495,391.22741287061945,None,,,,,,,,,,,,,,,,,,,,,,,,,,,,,,,,,79,001,2023_Apr_20_1433,SpeechDraft1Carolyn_lessNoise_PlusLocalization,2021.2.3,60.020579655306854,
quest.wav,quest.mpg,quest,1,A,Pink_Noise_1_1.wav,Pink_Noise_1_2.wav,,,,,,,,,,,,,,,0,69,69,25,,,,,,,,,,,,,,,,,,,,,,,392.32739134086296,None,393.82688428275287,None,395.21054455963895,None,"quest
",395.21054455963895,None,return,0.5531119802035391,395.2938773636706,None,,,,,,,,,,,,,,,,,,,,,,,,,,,,,,,,,79,001,2023_Apr_20_1433,SpeechDraft1Carolyn_lessNoise_PlusLocalization,2021.2.3,60.020579655306854,
stuck.wav,stuck.mpg,stuck,4,A,Pink_Noise_4_1.wav,Pink_Noise_4_2.wav,,,,,,,,,,,,,,,0,70,70,58,,,,,,,,,,,,,,,,,,,,,,,395.8772007757798,None,397.3770730798133,None,398.7607340179384,None,stuck,398.7607340179384,None,return,1.0752049176953733,398.8438020190224,None,,,,,,,,,,,,,,,,,,,,,,,,,,,,,,,,,79,001,2023_Apr_20_1433,SpeechDraft1Carolyn_lessNoise_PlusLocalization,2021.2.3,60.020579655306854,
flight.wav,flight.mpg,flight,5,AV,Pink_Noise_5_1.wav,Pink_Noise_5_2.wav,,,,,,,,,,,,,,,0,71,71,112,,,,,,,,,,,,,,,,,,,,,,,399.94393357867375,None,401.4602561900392,None,402.8438836466521,None,"flight
",402.8438836466521,None,return,0.9035972128622234,402.92736532585695,None,,,,,,,,,,,,,,,,,,,,,,,,,,,,,,,,,79,001,2023_Apr_20_1433,SpeechDraft1Carolyn_lessNoise_PlusLocalization,2021.2.3,60.020579655306854,
cheer.wav,cheer.mpg,cheer,3,A,Pink_Noise_3_1.wav,Pink_Noise_3_2.wav,,,,,,,,,,,,,,,0,72,72,43,,,,,,,,,,,,,,,,,,,,,,,403.8605695539154,None,405.36039324104786,None,406.74537533381954,None,chair,406.74537533381954,None,return,1.0915030222386122,406.8274839129299,None,,,,,,,,,,,,,,,,,,,,,,,,,,,,,,,,,79,001,2023_Apr_20_1433,SpeechDraft1Carolyn_lessNoise_PlusLocalization,2021.2.3,60.020579655306854,
chump.wav,chump.mpg,chump,2,A,Pink_Noise_2_1.wav,Pink_Noise_2_2.wav,,,,,,,,,,,,,,,0,73,73,53,,,,,,,,,,,,,,,,,,,,,,,407.94400877086446,None,409.4449062049389,None,410.8274222477339,None,chunk,410.8274222477339,None,return,1.040534891653806,410.9106594976038,None,,,,,,,,,,,,,,,,,,,,,,,,,,,,,,,,,79,001,2023_Apr_20_1433,SpeechDraft1Carolyn_lessNoise_PlusLocalization,2021.2.3,60.020579655306854,
barn.wav,barn.mpg,barn,6,AV,Pink_Noise_6_1.wav,Pink_Noise_6_2.wav,,,,,,,,,,,,,,,0,74,74,94,,,,,,,,,,,,,,,,,,,,,,,411.9775057188235,None,413.47710806597024,None,414.86054420284927,None,pound,414.86054420284927,None,return,1.4231028966605663,414.94401599792764,None,,,,,,,,,,,,,,,,,,,,,,,,,,,,,,,,,79,001,2023_Apr_20_1433,SpeechDraft1Carolyn_lessNoise_PlusLocalization,2021.2.3,60.020579655306854,
cheap.wav,cheap.mpg,cheap,3,A,Pink_Noise_3_1.wav,Pink_Noise_3_2.wav,,,,,,,,,,,,,,,0,75,75,32,,,,,,,,,,,,,,,,,,,,,,,416.39390012575313,None,417.8935849326663,None,419.277384780813,None,cheek,419.277384780813,None,return,0.6622989289462566,419.36065892968327,None,,,,,,,,,,,,,,,,,,,,,,,,,,,,,,,,,79,001,2023_Apr_20_1433,SpeechDraft1Carolyn_lessNoise_PlusLocalization,2021.2.3,60.020579655306854,
card.wav,card.mpg,card,5,AV,Pink_Noise_5_1.wav,Pink_Noise_5_2.wav,,,,,,,,,,,,,,,0,76,76,70,,,,,,,,,,,,,,,,,,,,,,,420.04393653478473,None,421.5436445046216,None,422.92746720369905,None,"courage
",422.92746720369905,None,return,1.4683224270120263,423.0106779136695,None,,,,,,,,,,,,,,,,,,,,,,,,,,,,,,,,,79,001,2023_Apr_20_1433,SpeechDraft1Carolyn_lessNoise_PlusLocalization,2021.2.3,60.020579655306854,
beef.wav,beef.mpg,beef,4,AV,Pink_Noise_4_1.wav,Pink_Noise_4_2.wav,,,,,,,,,,,,,,,0,77,77,61,,,,,,,,,,,,,,,,,,,,,,,424.51076961075887,None,426.0104208108969,None,427.3938356298022,None,beef,427.3938356298022,None,return,0.961534895002842,427.47744706692174,None,,,,,,,,,,,,,,,,,,,,,,,,,,,,,,,,,79,001,2023_Apr_20_1433,SpeechDraft1Carolyn_lessNoise_PlusLocalization,2021.2.3,60.020579655306854,
grade.wav,grade.mpg,grade,4,A,Pink_Noise_4_1.wav,Pink_Noise_4_2.wav,,,,,,,,,,,,,,,0,78,78,14,,,,,,,,,,,,,,,,,,,,,,,428.46061934391037,None,429.96053936565295,None,431.34409526502714,None,gray,431.34409526502714,None,return,3.539764378685504,431.427367284894,None,,,,,,,,,,,,,,,,,,,,,,,,,,,,,,,,,79,001,2023_Apr_20_1433,SpeechDraft1Carolyn_lessNoise_PlusLocalization,2021.2.3,60.020579655306854,
unit.wav,unit.mpg,unit,4,A,Pink_Noise_4_1.wav,Pink_Noise_4_2.wav,,,,,,,,,,,,,,,0,79,79,16,,,,,,,,,,,,,,,,,,,,,,,434.9940086179413,None,436.4940630970523,None,437.8774948180653,None,minu te,437.8774948180653,None,return,1.0224787276238203,437.96062368294224,None,,,,,,,,,,,,,,,,,,,,,,,,,,,,,,,,,79,001,2023_Apr_20_1433,SpeechDraft1Carolyn_lessNoise_PlusLocalization,2021.2.3,60.020579655306854,
fierce.wav,fierce.mpg,fierce,2,AV,Pink_Noise_2_1.wav,Pink_Noise_2_2.wav,,,,,,,,,,,,,,,0,80,80,103,,,,,,,,,,,,,,,,,,,,,,,439.0106438607909,None,440.5103062829003,None,441.8941353140399,None,fierce,441.8941353140399,None,return,4.597729446832091,441.9772260109894,None,,,,,,,,,,,,,,,,,,,,,,,,,,,,,,,,,79,001,2023_Apr_20_1433,SpeechDraft1Carolyn_lessNoise_PlusLocalization,2021.2.3,60.020579655306854,
gag.wav,gag.mpg,gag,2,AV,Pink_Noise_2_1.wav,Pink_Noise_2_2.wav,,,,,,,,,,,,,,,0,81,81,93,,,,,,,,,,,,,,,,,,,,,,,446.59399590687826,None,448.11046474287286,None,449.4775522076525,None,"gag
",449.4775522076525,None,return,0.3501594481058419,449.56079771369696,None,,,,,,,,,,,,,,,,,,,,,,,,,,,,,,,,,79,001,2023_Apr_20_1433,SpeechDraft1Carolyn_lessNoise_PlusLocalization,2021.2.3,60.020579655306854,
flush.wav,flush.mpg,flush,5,A,Pink_Noise_5_1.wav,Pink_Noise_5_2.wav,,,,,,,,,,,,,,,0,82,82,7,,,,,,,,,,,,,,,,,,,,,,,449.9439609297551,None,451.4603582168929,None,452.843959426973,None,lush,452.843959426973,None,return,0.6235594740137458,452.94365911604837,None,,,,,,,,,,,,,,,,,,,,,,,,,,,,,,,,,79,001,2023_Apr_20_1433,SpeechDraft1Carolyn_lessNoise_PlusLocalization,2021.2.3,60.020579655306854,
ban.wav,ban.mpg,ban,1,AV,Pink_Noise_1_1.wav,Pink_Noise_1_2.wav,,,,,,,,,,,,,,,0,83,83,77,,,,,,,,,,,,,,,,,,,,,,,453.5938495728187,None,455.0937913316302,None,456.47732644481584,None,"ban
",456.47732644481584,None,return,1.886138582136482,456.5608398206532,None,,,,,,,,,,,,,,,,,,,,,,,,,,,,,,,,,79,001,2023_Apr_20_1433,SpeechDraft1Carolyn_lessNoise_PlusLocalization,2021.2.3,60.020579655306854,
dish.wav,dish.mpg,dish,2,AV,Pink_Noise_2_1.wav,Pink_Noise_2_2.wav,,,,,,,,,,,,,,,0,84,84,62,,,,,,,,,,,,,,,,,,,,,,,458.4773926739581,None,459.9770782436244,None,461.36111746169627,None,"dish
",461.36111746169627,None,return,1.6188729349523783,461.4441043296829,None,,,,,,,,,,,,,,,,,,,,,,,,,,,,,,,,,79,001,2023_Apr_20_1433,SpeechDraft1Carolyn_lessNoise_PlusLocalization,2021.2.3,60.020579655306854,
brow.wav,brow.mpg,brow,1,A,Pink_Noise_1_1.wav,Pink_Noise_1_2.wav,,,,,,,,,,,,,,,0,85,85,28,,,,,,,,,,,,,,,,,,,,,,,463.09403701266274,None,464.59358306461945,None,465.9774499689229,None,"brow
",465.9774499689229,None,return,1.0182856218889356,466.0606906088069,None,,,,,,,,,,,,,,,,,,,,,,,,,,,,,,,,,79,001,2023_Apr_20_1433,SpeechDraft1Carolyn_lessNoise_PlusLocalization,2021.2.3,60.020579655306854,
drug.wav,drug.mpg,drug,3,A,Pink_Noise_3_1.wav,Pink_Noise_3_2.wav,,,,,,,,,,,,,,,0,86,86,3,,,,,,,,,,,,,,,,,,,,,,,467.1107023670338,None,468.6270652418025,None,470.0110098896548,None,drug,470.0110098896548,None,return,1.9209705097600818,470.094006001018,None,,,,,,,,,,,,,,,,,,,,,,,,,,,,,,,,,79,001,2023_Apr_20_1433,SpeechDraft1Carolyn_lessNoise_PlusLocalization,2021.2.3,60.020579655306854,
dog.wav,dog.mpg,dog,3,AV,Pink_Noise_3_1.wav,Pink_Noise_3_2.wav,,,,,,,,,,,,,,,0,87,87,75,,,,,,,,,,,,,,,,,,,,,,,472.0440867408179,None,473.5437616868876,None,474.9271335969679,None,dog,474.9271335969679,None,return,1.5642315912991762,475.0107407406904,None,,,,,,,,,,,,,,,,,,,,,,,,,,,,,,,,,79,001,2023_Apr_20_1433,SpeechDraft1Carolyn_lessNoise_PlusLocalization,2021.2.3,60.020579655306854,
glide.wav,glide.mpg,glide,6,A,Pink_Noise_6_1.wav,Pink_Noise_6_2.wav,,,,,,,,,,,,,,,0,88,88,55,,,,,,,,,,,,,,,,,,,,,,,476.5939736738801,None,478.09371564304456,None,479.47747753793374,None,fly,479.47747753793374,None,return,5.630362905096263,479.5606932188384,None,,,,,,,,,,,,,,,,,,,,,,,,,,,,,,,,,79,001,2023_Apr_20_1433,SpeechDraft1Carolyn_lessNoise_PlusLocalization,2021.2.3,60.020579655306854,
gush.wav,gush.mpg,gush,1,A,Pink_Noise_1_1.wav,Pink_Noise_1_2.wav,,,,,,,,,,,,,,,0,89,89,29,,,,,,,,,,,,,,,,,,,,,,,485.21092748688534,None,486.71045057382435,None,488.09407346276566,None,gush,488.09407346276566,None,return,0.8375543300062418,488.1774034257978,None,,,,,,,,,,,,,,,,,,,,,,,,,,,,,,,,,79,001,2023_Apr_20_1433,SpeechDraft1Carolyn_lessNoise_PlusLocalization,2021.2.3,60.020579655306854,
bath.wav,bath.mpg,bath,2,AV,Pink_Noise_2_1.wav,Pink_Noise_2_2.wav,,,,,,,,,,,,,,,0,90,90,111,,,,,,,,,,,,,,,,,,,,,,,489.0440251850523,None,490.56040566787124,None,491.9439625348896,None,bath,491.9439625348896,None,return,0.795406635850668,492.02759632794186,None,,,,,,,,,,,,,,,,,,,,,,,,,,,,,,,,,79,001,2023_Apr_20_1433,SpeechDraft1Carolyn_lessNoise_PlusLocalization,2021.2.3,60.020579655306854,
bean.wav,bean.mpg,bean,2,A,Pink_Noise_2_1.wav,Pink_Noise_2_2.wav,,,,,,,,,,,,,,,0,91,91,4,,,,,,,,,,,,,,,,,,,,,,,492.84400053182617,None,494.3438624260016,None,495.72768435487524,None,bean,495.72768435487524,None,return,0.6442687758244574,495.81071037380025,None,,,,,,,,,,,,,,,,,,,,,,,,,,,,,,,,,79,001,2023_Apr_20_1433,SpeechDraft1Carolyn_lessNoise_PlusLocalization,2021.2.3,60.020579655306854,
den.wav,den.mpg,den,3,AV,Pink_Noise_3_1.wav,Pink_Noise_3_2.wav,,,,,,,,,,,,,,,0,92,92,95,,,,,,,,,,,,,,,,,,,,,,,496.4773808908649,None,497.9937378950417,None,499.37758644483984,None,dead,499.37758644483984,None,return,4.738231698051095,499.46075355261564,None,,,,,,,,,,,,,,,,,,,,,,,,,,,,,,,,,79,001,2023_Apr_20_1433,SpeechDraft1Carolyn_lessNoise_PlusLocalization,2021.2.3,60.020579655306854,
fraud.wav,fraud.mpg,fraud,5,A,Pink_Noise_5_1.wav,Pink_Noise_5_2.wav,,,,,,,,,,,,,,,0,93,93,8,,,,,,,,,,,,,,,,,,,,,,,504.2275509526953,None,505.7269978239201,None,507.11078929761425,None,bar,507.11078929761425,None,return,1.228749989066273,507.19424902275205,None,,,,,,,,,,,,,,,,,,,,,,,,,,,,,,,,,79,001,2023_Apr_20_1433,SpeechDraft1Carolyn_lessNoise_PlusLocalization,2021.2.3,60.020579655306854,
else.wav,else.mpg,else,1,A,Pink_Noise_1_1.wav,Pink_Noise_1_2.wav,,,,,,,,,,,,,,,0,94,94,39,,,,,,,,,,,,,,,,,,,,,,,508.44399542175233,None,509.9438188490458,None,511.3274586996995,None,else,511.3274586996995,None,return,2.2281398558989167,511.4108402598649,None,,,,,,,,,,,,,,,,,,,,,,,,,,,,,,,,,79,001,2023_Apr_20_1433,SpeechDraft1Carolyn_lessNoise_PlusLocalization,2021.2.3,60.020579655306854,
chart.wav,chart.mpg,chart,1,AV,Pink_Noise_1_1.wav,Pink_Noise_1_2.wav,,,,,,,,,,,,,,,0,95,95,76,,,,,,,,,,,,,,,,,,,,,,,513.6607786156237,None,515.1617762199603,None,516.5441604666412,None,chart,516.5441604666412,None,return,1.1234775627963245,516.6275865486823,None,,,,,,,,,,,,,,,,,,,,,,,,,,,,,,,,,79,001,2023_Apr_20_1433,SpeechDraft1Carolyn_lessNoise_PlusLocalization,2021.2.3,60.020579655306854,
food.wav,food.mpg,food,6,AV,Pink_Noise_6_1.wav,Pink_Noise_6_2.wav,,,,,,,,,,,,,,,0,96,96,107,,,,,,,,,,,,,,,,,,,,,,,517.7775789508596,None,519.2780317887664,None,520.6607197276317,None,foot,520.6607197276317,None,return,0.9829096980392933,520.7441433919594,None,,,,,,,,,,,,,,,,,,,,,,,,,,,,,,,,,79,001,2023_Apr_20_1433,SpeechDraft1Carolyn_lessNoise_PlusLocalization,2021.2.3,60.020579655306854,
fur.wav,fur.mpg,fur,5,A,Pink_Noise_5_1.wav,Pink_Noise_5_2.wav,,,,,,,,,,,,,,,0,97,97,20,,,,,,,,,,,,,,,,,,,,,,,521.7442597146146,None,523.2604278028011,None,524.6442132727243,None,burst,524.6442132727243,None,return,1.5917767812497914,524.7273256597109,None,,,,,,,,,,,,,,,,,,,,,,,,,,,,,,,,,79,001,2023_Apr_20_1433,SpeechDraft1Carolyn_lessNoise_PlusLocalization,2021.2.3,60.020579655306854,
thorn.wav,thorn.mpg,thorn,5,AV,Pink_Noise_5_1.wav,Pink_Noise_5_2.wav,,,,,,,,,,,,,,,0,98,98,113,,,,,,,,,,,,,,,,,,,,,,,526.3441798337735,None,527.8603724376298,None,529.2442613248713,None,thorn,529.2442613248713,None,return,0.8240499030798674,529.3274660846218,None,,,,,,,,,,,,,,,,,,,,,,,,,,,,,,,,,79,001,2023_Apr_20_1433,SpeechDraft1Carolyn_lessNoise_PlusLocalization,2021.2.3,60.020579655306854,
bench.wav,bench.mpg,bench,1,AV,Pink_Noise_1_1.wav,Pink_Noise_1_2.wav,,,,,,,,,,,,,,,0,99,99,86,,,,,,,,,,,,,,,,,,,,,,,530.1774268508889,None,531.6773479548283,None,533.0610873368569,None,bencj,533.0610873368569,None,return,2.0629818201996386,533.1440633740276,None,,,,,,,,,,,,,,,,,,,,,,,,,,,,,,,,,79,001,2023_Apr_20_1433,SpeechDraft1Carolyn_lessNoise_PlusLocalization,2021.2.3,60.020579655306854,
bump.wav,bump.mpg,bump,6,AV,Pink_Noise_6_1.wav,Pink_Noise_6_2.wav,,,,,,,,,,,,,,,0,100,100,74,,,,,,,,,,,,,,,,,,,,,,,535.2274983427487,None,536.7271902030334,None,538.1108273696154,None,moth,538.1108273696154,None,return,7.732877661008388,538.1942038168199,None,,,,,,,,,,,,,,,,,,,,,,,,,,,,,,,,,79,001,2023_Apr_20_1433,SpeechDraft1Carolyn_lessNoise_PlusLocalization,2021.2.3,60.020579655306854,
bald.wav,bald.mpg,bald,1,AV,Pink_Noise_1_1.wav,Pink_Noise_1_2.wav,,,,,,,,,,,,,,,0,101,101,79,,,,,,,,,,,,,,,,,,,,,,,545.9441326577216,None,547.4461961318739,None,548.8274417878129,None,bard,548.8274417878129,None,return,1.2961905761621892,548.9108338179067,None,,,,,,,,,,,,,,,,,,,,,,,,,,,,,,,,,79,001,2023_Apr_20_1433,SpeechDraft1Carolyn_lessNoise_PlusLocalization,2021.2.3,60.020579655306854,
block.wav,block.mpg,block,1,A,Pink_Noise_1_1.wav,Pink_Noise_1_2.wav,,,,,,,,,,,,,,,0,102,102,15,,,,,,,,,,,,,,,,,,,,,,,550.227424073033,None,551.7437827698886,None,553.1275777108967,None,black,553.1275777108967,None,return,9.476231674198061,553.2107584457844,None,,,,,,,,,,,,,,,,,,,,,,,,,,,,,,,,,79,001,2023_Apr_20_1433,SpeechDraft1Carolyn_lessNoise_PlusLocalization,2021.2.3,60.020579655306854,
grail.wav,grail.mpg,grail,4,A,Pink_Noise_4_1.wav,Pink_Noise_4_2.wav,,,,,,,,,,,,,,,0,103,103,26,,,,,,,,,,,,,,,,,,,,,,,562.7107698717155,None,564.2272392418236,None,565.6107703666203,None,grey,565.6107703666203,None,return,5.520754216238856,565.6942135118879,None,,,,,,,,,,,,,,,,,,,,,,,,,,,,,,,,,79,001,2023_Apr_20_1433,SpeechDraft1Carolyn_lessNoise_PlusLocalization,2021.2.3,60.020579655306854,
eat.wav,eat.mpg,eat,4,AV,Pink_Noise_4_1.wav,Pink_Noise_4_2.wav,,,,,,,,,,,,,,,0,104,104,71,,,,,,,,,,,,,,,,,,,,,,,571.244102329947,None,572.7604389348999,None,574.1275985729881,None,eat,574.1275985729881,None,return,0.7480727634392679,574.2109113326296,None,,,,,,,,,,,,,,,,,,,,,,,,,,,,,,,,,79,001,2023_Apr_20_1433,SpeechDraft1Carolyn_lessNoise_PlusLocalization,2021.2.3,60.020579655306854,
brash.wav,brash.mpg,brash,4,AV,Pink_Noise_4_1.wav,Pink_Noise_4_2.wav,,,,,,,,,,,,,,,0,105,105,84,,,,,,,,,,,,,,,,,,,,,,,574.9776290538721,None,576.4940024777316,None,577.8610086357221,None,brush,577.8610086357221,None,return,1.76672775298357,577.9442477039993,None,,,,,,,,,,,,,,,,,,,,,,,,,,,,,,,,,79,001,2023_Apr_20_1433,SpeechDraft1Carolyn_lessNoise_PlusLocalization,2021.2.3,60.020579655306854,
guide.wav,guide.mpg,guide,2,AV,Pink_Noise_2_1.wav,Pink_Noise_2_2.wav,,,,,,,,,,,,,,,0,106,106,96,,,,,,,,,,,,,,,,,,,,,,,579.7275213687681,None,581.2438359619118,None,582.627374259755,None,guide,582.627374259755,None,return,0.8803513338789344,582.7107267300598,None,,,,,,,,,,,,,,,,,,,,,,,,,,,,,,,,,79,001,2023_Apr_20_1433,SpeechDraft1Carolyn_lessNoise_PlusLocalization,2021.2.3,60.020579655306854,
bass.wav,bass.mpg,bass,4,AV,Pink_Noise_4_1.wav,Pink_Noise_4_2.wav,,,,,,,,,,,,,,,0,107,107,106,,,,,,,,,,,,,,,,,,,,,,,583.6108469297178,None,585.1271927347407,None,586.4942261036485,None,base,586.4942261036485,None,return,1.1974909990094602,586.5775263598189,None,,,,,,,,,,,,,,,,,,,,,,,,,,,,,,,,,79,001,2023_Apr_20_1433,SpeechDraft1Carolyn_lessNoise_PlusLocalization,2021.2.3,60.020579655306854,
gun.wav,gun.mpg,gun,5,AV,Pink_Noise_5_1.wav,Pink_Noise_5_2.wav,,,,,,,,,,,,,,,0,108,108,97,,,,,,,,,,,,,,,,,,,,,,,587.7942080469802,None,589.3104994897731,None,590.6943647866137,None,look,590.6943647866137,None,return,1.389836395625025,590.7774539897218,None,,,,,,,,,,,,,,,,,,,,,,,,,,,,,,,,,79,001,2023_Apr_20_1433,SpeechDraft1Carolyn_lessNoise_PlusLocalization,2021.2.3,60.020579655306854,
build.wav,build.mpg,build,6,A,Pink_Noise_6_1.wav,Pink_Noise_6_2.wav,,,,,,,,,,,,,,,0,109,109,11,,,,,,,,,,,,,,,,,,,,,,,592.1942154797725,None,593.710502943024,None,595.0942652486265,None,bin,595.0942652486265,None,return,0.7648605052381754,595.194222074002,None,,,,,,,,,,,,,,,,,,,,,,,,,,,,,,,,,79,001,2023_Apr_20_1433,SpeechDraft1Carolyn_lessNoise_PlusLocalization,2021.2.3,60.020579655306854,
dune.wav,dune.mpg,dune,2,A,Pink_Noise_2_1.wav,Pink_Noise_2_2.wav,,,,,,,,,,,,,,,0,110,110,31,,,,,,,,,,,,,,,,,,,,,,,595.9775425768457,None,597.4940432789735,None,598.8775016069412,None,"doom
",598.8775016069412,None,return,2.13412154186517,598.9608522988856,None,,,,,,,,,,,,,,,,,,,,,,,,,,,,,,,,,79,001,2023_Apr_20_1433,SpeechDraft1Carolyn_lessNoise_PlusLocalization,2021.2.3,60.020579655306854,
stove.wav,stove.mpg,stove,1,AV,Pink_Noise_1_1.wav,Pink_Noise_1_2.wav,,,,,,,,,,,,,,,0,111,111,78,,,,,,,,,,,,,,,,,,,,,,,601.127579596825,None,602.6291165836155,None,604.0110089769587,None,stove,604.0110089769587,None,return,2.6569739747792482,604.0941960606724,None,,,,,,,,,,,,,,,,,,,,,,,,,,,,,,,,,79,001,2023_Apr_20_1433,SpeechDraft1Carolyn_lessNoise_PlusLocalization,2021.2.3,60.020579655306854,
ease.wav,ease.mpg,ease,4,AV,Pink_Noise_4_1.wav,Pink_Noise_4_2.wav,,,,,,,,,,,,,,,0,112,112,63,,,,,,,,,,,,,,,,,,,,,,,606.7776272138581,None,608.2939653326757,None,609.6774145038798,None,ease,609.6774145038798,None,return,0.7897030501626432,609.7613665498793,None,,,,,,,,,,,,,,,,,,,,,,,,,,,,,,,,,79,001,2023_Apr_20_1433,SpeechDraft1Carolyn_lessNoise_PlusLocalization,2021.2.3,60.020579655306854,
flat.wav,flat.mpg,flat,3,A,Pink_Noise_3_1.wav,Pink_Noise_3_2.wav,,,,,,,,,,,,,,,0,113,113,48,,,,,,,,,,,,,,,,,,,,,,,610.577601857949,None,612.093968137633,None,613.4775725579821,None,flat,613.4775725579821,None,return,1.0780799412168562,613.5609017657116,None,,,,,,,,,,,,,,,,,,,,,,,,,,,,,,,,,79,001,2023_Apr_20_1433,SpeechDraft1Carolyn_lessNoise_PlusLocalization,2021.2.3,60.020579655306854,
dual.wav,dual.mpg,dual,4,AV,Pink_Noise_4_1.wav,Pink_Noise_4_2.wav,,,,,,,,,,,,,,,0,114,114,72,,,,,,,,,,,,,,,,,,,,,,,614.6609787009656,None,616.1773642967455,None,617.5609644209035,None,stool,617.5609644209035,None,return,0.9069316531531513,617.6441754307598,None,,,,,,,,,,,,,,,,,,,,,,,,,,,,,,,,,79,001,2023_Apr_20_1433,SpeechDraft1Carolyn_lessNoise_PlusLocalization,2021.2.3,60.020579655306854,
broom.wav,broom.mpg,broom,3,A,Pink_Noise_3_1.wav,Pink_Noise_3_2.wav,,,,,,,,,,,,,,,0,115,115,36,,,,,,,,,,,,,,,,,,,,,,,618.5775651126169,None,620.094026627019,None,621.4776373789646,None,"broom
",621.4776373789646,None,return,1.8861353872343898,621.5608339100145,None,,,,,,,,,,,,,,,,,,,,,,,,,,,,,,,,,79,001,2023_Apr_20_1433,SpeechDraft1Carolyn_lessNoise_PlusLocalization,2021.2.3,60.020579655306854,
crash.wav,crash.mpg,crash,2,A,Pink_Noise_2_1.wav,Pink_Noise_2_2.wav,,,,,,,,,,,,,,,0,116,116,23,,,,,,,,,,,,,,,,,,,,,,,623.4777562520467,None,624.9940973566845,None,626.3777147140354,None,crash,626.3777147140354,None,return,1.1301800273358822,626.4608178846538,None,,,,,,,,,,,,,,,,,,,,,,,,,,,,,,,,,79,001,2023_Apr_20_1433,SpeechDraft1Carolyn_lessNoise_PlusLocalization,2021.2.3,60.020579655306854,
chalk.wav,chalk.mpg,chalk,1,A,Pink_Noise_1_1.wav,Pink_Noise_1_2.wav,,,,,,,,,,,,,,,0,117,117,6,,,,,,,,,,,,,,,,,,,,,,,627.6110416767187,None,629.1273709950037,None,630.5109407589771,None,chalk,630.5109407589771,None,return,0.8287179060280323,630.5942625566386,None,,,,,,,,,,,,,,,,,,,,,,,,,,,,,,,,,79,001,2023_Apr_20_1433,SpeechDraft1Carolyn_lessNoise_PlusLocalization,2021.2.3,60.020579655306854,
cat.wav,cat.mpg,cat,5,A,Pink_Noise_5_1.wav,Pink_Noise_5_2.wav,,,,,,,,,,,,,,,0,118,118,30,,,,,,,,,,,,,,,,,,,,,,,631.4442504290491,None,632.9604985420592,None,634.3443614379503,None,cross,634.3443614379503,None,return,1.3792958776466548,634.4277313840576,None,,,,,,,,,,,,,,,,,,,,,,,,,,,,,,,,,79,001,2023_Apr_20_1433,SpeechDraft1Carolyn_lessNoise_PlusLocalization,2021.2.3,60.020579655306854,
duke.wav,duke.mpg,duke,4,AV,Pink_Noise_4_1.wav,Pink_Noise_4_2.wav,,,,,,,,,,,,,,,0,119,119,92,,,,,,,,,,,,,,,,,,,,,,,635.8275562389754,None,637.3440162227489,None,638.7274492266588,None,soup,638.7274492266588,None,return,0.9640850843861699,638.8108858317137,None,,,,,,,,,,,,,,,,,,,,,,,,,,,,,,,,,79,001,2023_Apr_20_1433,SpeechDraft1Carolyn_lessNoise_PlusLocalization,2021.2.3,60.020579655306854,
,,,,,,,,,,,,,,,,,,,,,,,,,,,,,,,,,,,,,,,,,,,,,,,,,,,,,,,,,,,,,,,,,,space,14.585333358030766,639.8776542176493,None,,,,,,,,,,,,,,,,,,,,,,,79,001,2023_Apr_20_1433,SpeechDraft1Carolyn_lessNoise_PlusLocalization,2021.2.3,60.020579655306854,
,,,,,,,,farLeft,-19.1,5,ch1Sound_localizationTask.wav,-19.1,"(667, 878)","(-293,-202)",-285,-338,,,,,,,,,0,0,0,0,,,,,,,,,,,,,,,,,,,,,,,,,,,,,,,,,,,,,,,,,,639.8776542176493,None,654.5106244757771,None,655.6105861188844,None,656.5439988686703,None,1.402116402116402,2.451977068092674,656.5439988686703,None,,,,,,,,,,,79,001,2023_Apr_20_1433,SpeechDraft1Carolyn_lessNoise_PlusLocalization,2021.2.3,60.020579655306854,
,,,,,,,,nearRight,6.5,0,ch1Sound_localizationTask.wav,6.5,"(1047, 878)","(87, -202)",95,-338,,,,,,,,,0,1,1,4,,,,,,,,,,,,,,,,,,,,,,,,,,,,,,,,,,,,,,,,,,,,658.995960297063,None,660.1108505758457,None,661.0274943388067,None,1.5052910052910053,0.8015570626594126,661.0274943388067,None,,,,,,,,,,,79,001,2023_Apr_20_1433,SpeechDraft1Carolyn_lessNoise_PlusLocalization,2021.2.3,60.020579655306854,
,,,,,,,,nearLeft,-6.5,1,ch1Sound_localizationTask.wav,-6.5,"(857, 878)","(-103,-202)",-95,-338,,,,,,,,,0,2,2,2,,,,,,,,,,,,,,,,,,,,,,,,,,,,,,,,,,,,,,,,,,,,661.8444413077086,None,662.9440768556669,None,663.8772724498995,None,1.4052910052910053,0.8172516552731395,663.8772724498995,None,,,,,,,,,,,79,001,2023_Apr_20_1433,SpeechDraft1Carolyn_lessNoise_PlusLocalization,2021.2.3,60.020579655306854,
,,,,,,,,midRight,13.0,3,ch1Sound_localizationTask.wav,13.0,"(1142, 878)","(182, -202)",190,-338,,,,,,,,,0,3,3,5,,,,,,,,,,,,,,,,,,,,,,,,,,,,,,,,,,,,,,,,,,,,664.7111441837624,None,665.8107457598671,None,666.7440040949732,None,1.7322751322751322,0.7500264798291028,666.7440040949732,None,,,,,,,,,,,79,001,2023_Apr_20_1433,SpeechDraft1Carolyn_lessNoise_PlusLocalization,2021.2.3,60.020579655306854,
,,,,,,,,farLeft,-19.1,5,ch1Sound_localizationTask.wav,-19.1,"(667, 878)","(-293,-202)",-285,-338,,,,,,,,,0,4,4,0,,,,,,,,,,,,,,,,,,,,,,,,,,,,,,,,,,,,,,,,,,,,667.4959377190098,None,668.6108394358307,None,669.5272719026543,None,1.2978835978835979,0.8344711330719292,669.5272719026543,None,,,,,,,,,,,79,001,2023_Apr_20_1433,SpeechDraft1Carolyn_lessNoise_PlusLocalization,2021.2.3,60.020579655306854,
,,,,,,,,midRight,13.0,3,ch1Sound_localizationTask.wav,13.0,"(1142, 878)","(182, -202)",190,-338,,,,,,,,,0,5,5,5,,,,,,,,,,,,,,,,,,,,,,,,,,,,,,,,,,,,,,,,,,,,670.3778320187703,None,671.4773431136273,None,672.4108275398612,None,1.7735449735449735,0.516083843074739,672.4108275398612,None,,,,,,,,,,,79,001,2023_Apr_20_1433,SpeechDraft1Carolyn_lessNoise_PlusLocalization,2021.2.3,60.020579655306854,
,,,,,,,,midLeft,-13.0,2,ch1Sound_localizationTask.wav,-13.0,"(762, 878)","(-198,-202)",-190,-338,,,,,,,,,0,6,6,1,,,,,,,,,,,,,,,,,,,,,,,,,,,,,,,,,,,,,,,,,,,,672.9290694179945,None,674.0439595608041,None,674.960734681692,None,1.37989417989418,0.751947671175003,674.960734681692,None,,,,,,,,,,,79,001,2023_Apr_20_1433,SpeechDraft1Carolyn_lessNoise_PlusLocalization,2021.2.3,60.020579655306854,
,,,,,,,,nearLeft,-6.5,1,ch1Sound_localizationTask.wav,-6.5,"(857, 878)","(-103,-202)",-95,-338,,,,,,,,,1,0,7,2,,,,,,,,,,,,,,,,,,,,,,,,,,,,,,,,,,,,,,,,,,,,675.7278848388232,None,676.8274692250416,None,677.7606829148717,None,1.4444444444444444,0.6505494532175362,677.7606829148717,None,,,,,,,,,,,79,001,2023_Apr_20_1433,SpeechDraft1Carolyn_lessNoise_PlusLocalization,2021.2.3,60.020579655306854,
,,,,,,,,farRight,19.1,4,ch1Sound_localizationTask.wav,19.1,"(1237, 878)","(277,-202)",285,-338,,,,,,,,,1,1,8,6,,,,,,,,,,,,,,,,,,,,,,,,,,,,,,,,,,,,,,,,,,,,678.4122637566179,None,679.5273991306312,None,680.4442243599333,None,1.637037037037037,0.7683874880895019,680.4442243599333,None,,,,,,,,,,,79,001,2023_Apr_20_1433,SpeechDraft1Carolyn_lessNoise_PlusLocalization,2021.2.3,60.020579655306854,
,,,,,,,,farRight,19.1,4,ch1Sound_localizationTask.wav,19.1,"(1237, 878)","(277,-202)",285,-338,,,,,,,,,1,2,9,6,,,,,,,,,,,,,,,,,,,,,,,,,,,,,,,,,,,,,,,,,,,,681.2276189760305,None,682.3273449330591,None,683.2606431716122,None,1.6883597883597883,0.8511354518122971,683.2606431716122,None,,,,,,,,,,,79,001,2023_Apr_20_1433,SpeechDraft1Carolyn_lessNoise_PlusLocalization,2021.2.3,60.020579655306854,
,,,,,,,,center,0.0,6,ch1Sound_localizationTask.wav,0.0,"(952, 878)","(-8,-202)",0,-338,,,,,,,,,1,3,10,3,,,,,,,,,,,,,,,,,,,,,,,,,,,,,,,,,,,,,,,,,,,,684.1280758637004,None,685.2274949527346,None,686.1609388799407,None,1.4925925925925925,0.6652143439278007,686.1609388799407,None,,,,,,,,,,,79,001,2023_Apr_20_1433,SpeechDraft1Carolyn_lessNoise_PlusLocalization,2021.2.3,60.020579655306854,
,,,,,,,,farRight,19.1,4,ch1Sound_localizationTask.wav,19.1,"(1237, 878)","(277,-202)",285,-338,,,,,,,,,1,4,11,6,,,,,,,,,,,,,,,,,,,,,,,,,,,,,,,,,,,,,,,,,,,,686.8280466119759,None,687.9273546026088,None,688.8606378347613,None,1.682010582010582,1.0337802227586508,688.8606378347613,None,,,,,,,,,,,79,001,2023_Apr_20_1433,SpeechDraft1Carolyn_lessNoise_PlusLocalization,2021.2.3,60.020579655306854,
,,,,,,,,nearRight,6.5,0,ch1Sound_localizationTask.wav,6.5,"(1047, 878)","(87, -202)",95,-338,,,,,,,,,1,5,12,4,,,,,,,,,,,,,,,,,,,,,,,,,,,,,,,,,,,,,,,,,,,,689.9111368730664,None,691.0108187268488,None,691.9441344696097,None,1.547089947089947,0.6499304380267859,691.9441344696097,None,,,,,,,,,,,79,001,2023_Apr_20_1433,SpeechDraft1Carolyn_lessNoise_PlusLocalization,2021.2.3,60.020579655306854,
,,,,,,,,center,0.0,6,ch1Sound_localizationTask.wav,0.0,"(952, 878)","(-8,-202)",0,-338,,,,,,,,,1,6,13,3,,,,,,,,,,,,,,,,,,,,,,,,,,,,,,,,,,,,,,,,,,,,692.6110657989047,None,693.710703169927,None,694.6441461909562,None,1.4835978835978836,0.7652538008987904,694.6441461909562,None,,,,,,,,,,,79,001,2023_Apr_20_1433,SpeechDraft1Carolyn_lessNoise_PlusLocalization,2021.2.3,60.020579655306854,
,,,,,,,,nearRight,6.5,0,ch1Sound_localizationTask.wav,6.5,"(1047, 878)","(87, -202)",95,-338,,,,,,,,,2,0,14,4,,,,,,,,,,,,,,,,,,,,,,,,,,,,,,,,,,,,,,,,,,,,695.4112676368095,None,696.5108369928785,None,697.4440772519447,None,1.5820105820105819,0.9169958247803152,697.4440772519447,None,,,,,,,,,,,79,001,2023_Apr_20_1433,SpeechDraft1Carolyn_lessNoise_PlusLocalization,2021.2.3,60.020579655306854,
,,,,,,,,midRight,13.0,3,ch1Sound_localizationTask.wav,13.0,"(1142, 878)","(182, -202)",190,-338,,,,,,,,,2,1,15,5,,,,,,,,,,,,,,,,,,,,,,,,,,,,,,,,,,,,,,,,,,,,698.377771270927,None,699.4774573319592,None,700.4108261317015,None,1.58994708994709,0.6828796458430588,700.4108261317015,None,,,,,,,,,,,79,001,2023_Apr_20_1433,SpeechDraft1Carolyn_lessNoise_PlusLocalization,2021.2.3,60.020579655306854,
,,,,,,,,nearRight,6.5,0,ch1Sound_localizationTask.wav,6.5,"(1047, 878)","(87, -202)",95,-338,,,,,,,,,2,2,16,4,,,,,,,,,,,,,,,,,,,,,,,,,,,,,,,,,,,,,,,,,,,,701.0949657028541,None,702.1940544350073,None,703.1273406287655,None,1.5211640211640212,0.7529739174060524,703.1273406287655,None,,,,,,,,,,,79,001,2023_Apr_20_1433,SpeechDraft1Carolyn_lessNoise_PlusLocalization,2021.2.3,60.020579655306854,
,,,,,,,,center,0.0,6,ch1Sound_localizationTask.wav,0.0,"(952, 878)","(-8,-202)",0,-338,,,,,,,,,2,3,17,3,,,,,,,,,,,,,,,,,,,,,,,,,,,,,,,,,,,,,,,,,,,,703.8944284506142,None,704.9942515008152,None,705.9274295326322,None,1.4825396825396826,0.7999380161054432,705.9274295326322,None,,,,,,,,,,,79,001,2023_Apr_20_1433,SpeechDraft1Carolyn_lessNoise_PlusLocalization,2021.2.3,60.020579655306854,
,,,,,,,,midRight,13.0,3,ch1Sound_localizationTask.wav,13.0,"(1142, 878)","(182, -202)",190,-338,,,,,,,,,2,4,18,5,,,,,,,,,,,,,,,,,,,,,,,,,,,,,,,,,,,,,,,,,,,,706.7293950370513,None,707.8441375307739,None,708.7608083416708,None,1.6095238095238096,0.8823658232577145,708.7608083416708,None,,,,,,,,,,,79,001,2023_Apr_20_1433,SpeechDraft1Carolyn_lessNoise_PlusLocalization,2021.2.3,60.020579655306854,
,,,,,,,,farRight,19.1,4,ch1Sound_localizationTask.wav,19.1,"(1237, 878)","(277,-202)",285,-338,,,,,,,,,2,5,19,6,,,,,,,,,,,,,,,,,,,,,,,,,,,,,,,,,,,,,,,,,,,,709.6457147616893,None,710.7608917416073,None,711.6772496718913,None,1.7354497354497354,0.8157398393377662,711.6772496718913,None,,,,,,,,,,,79,001,2023_Apr_20_1433,SpeechDraft1Carolyn_lessNoise_PlusLocalization,2021.2.3,60.020579655306854,
,,,,,,,,center,0.0,6,ch1Sound_localizationTask.wav,0.0,"(952, 878)","(-8,-202)",0,-338,,,,,,,,,2,6,20,3,,,,,,,,,,,,,,,,,,,,,,,,,,,,,,,,,,,,,,,,,,,,712.4952211426571,None,713.5942321699113,None,714.5273014260456,None,1.5015873015873016,0.8502620421350002,714.5273014260456,None,,,,,,,,,,,79,001,2023_Apr_20_1433,SpeechDraft1Carolyn_lessNoise_PlusLocalization,2021.2.3,60.020579655306854,
,,,,,,,,farRight,19.1,4,ch1Sound_localizationTask.wav,19.1,"(1237, 878)","(277,-202)",285,-338,,,,,,,,,3,0,21,6,,,,,,,,,,,,,,,,,,,,,,,,,,,,,,,,,,,,,,,,,,,,715.3791711009108,None,716.4940037447959,None,717.4108839766122,None,1.6587301587301586,0.702395886182785,717.4108839766122,None,,,,,,,,,,,79,001,2023_Apr_20_1433,SpeechDraft1Carolyn_lessNoise_PlusLocalization,2021.2.3,60.020579655306854,
,,,,,,,,farLeft,-19.1,5,ch1Sound_localizationTask.wav,-19.1,"(667, 878)","(-293,-202)",-285,-338,,,,,,,,,3,1,22,0,,,,,,,,,,,,,,,,,,,,,,,,,,,,,,,,,,,,,,,,,,,,718.1279293019325,None,719.2274554506876,None,720.1609038007446,None,1.3931216931216932,0.7651750841178,720.1609038007446,None,,,,,,,,,,,79,001,2023_Apr_20_1433,SpeechDraft1Carolyn_lessNoise_PlusLocalization,2021.2.3,60.020579655306854,
,,,,,,,,farLeft,-19.1,5,ch1Sound_localizationTask.wav,-19.1,"(667, 878)","(-293,-202)",-285,-338,,,,,,,,,3,2,23,0,,,,,,,,,,,,,,,,,,,,,,,,,,,,,,,,,,,,,,,,,,,,720.9446619437076,None,722.0440448909067,None,722.9774761879817,None,1.3470899470899471,0.732524496037513,722.9774761879817,None,,,,,,,,,,,79,001,2023_Apr_20_1433,SpeechDraft1Carolyn_lessNoise_PlusLocalization,2021.2.3,60.020579655306854,
,,,,,,,,nearLeft,-6.5,1,ch1Sound_localizationTask.wav,-6.5,"(857, 878)","(-103,-202)",-95,-338,,,,,,,,,3,3,24,2,,,,,,,,,,,,,,,,,,,,,,,,,,,,,,,,,,,,,,,,,,,,723.7111881198362,None,724.8109338078648,None,725.7440893319435,None,1.4671957671957672,0.8330288697034121,725.7440893319435,None,,,,,,,,,,,79,001,2023_Apr_20_1433,SpeechDraft1Carolyn_lessNoise_PlusLocalization,2021.2.3,60.020579655306854,
,,,,,,,,midLeft,-13.0,2,ch1Sound_localizationTask.wav,-13.0,"(762, 878)","(-198,-202)",-190,-338,,,,,,,,,3,4,25,1,,,,,,,,,,,,,,,,,,,,,,,,,,,,,,,,,,,,,,,,,,,,726.5798903736286,None,727.6942313257605,None,728.6108903959394,None,1.3634920634920635,0.5984435770660639,728.6108903959394,None,,,,,,,,,,,79,001,2023_Apr_20_1433,SpeechDraft1Carolyn_lessNoise_PlusLocalization,2021.2.3,60.020579655306854,
,,,,,,,,nearLeft,-6.5,1,ch1Sound_localizationTask.wav,-6.5,"(857, 878)","(-103,-202)",-95,-338,,,,,,,,,3,5,26,2,,,,,,,,,,,,,,,,,,,,,,,,,,,,,,,,,,,,,,,,,,,,729.2114455276169,None,730.3108780737966,None,731.2440812196583,None,1.4587301587301587,0.582838939037174,731.2440812196583,None,,,,,,,,,,,79,001,2023_Apr_20_1433,SpeechDraft1Carolyn_lessNoise_PlusLocalization,2021.2.3,60.020579655306854,
,,,,,,,,center,0.0,6,ch1Sound_localizationTask.wav,0.0,"(952, 878)","(-8,-202)",0,-338,,,,,,,,,3,6,27,3,,,,,,,,,,,,,,,,,,,,,,,,,,,,,,,,,,,,,,,,,,,,731.8282875637524,None,732.9273614897393,None,733.8606816199608,None,1.5042328042328044,0.5332238292321563,733.8606816199608,None,,,,,,,,,,,79,001,2023_Apr_20_1433,SpeechDraft1Carolyn_lessNoise_PlusLocalization,2021.2.3,60.020579655306854,
,,,,,,,,midLeft,-13.0,2,ch1Sound_localizationTask.wav,-13.0,"(762, 878)","(-198,-202)",-190,-338,,,,,,,,,4,0,28,1,,,,,,,,,,,,,,,,,,,,,,,,,,,,,,,,,,,,,,,,,,,,734.3955757757649,None,735.510706317611,None,736.4273427017033,None,1.3957671957671958,0.6492699100635946,736.4273427017033,None,,,,,,,,,,,79,001,2023_Apr_20_1433,SpeechDraft1Carolyn_lessNoise_PlusLocalization,2021.2.3,60.020579655306854,
,,,,,,,,nearRight,6.5,0,ch1Sound_localizationTask.wav,6.5,"(1047, 878)","(87, -202)",95,-338,,,,,,,,,4,1,29,4,,,,,,,,,,,,,,,,,,,,,,,,,,,,,,,,,,,,,,,,,,,,737.0788606298156,None,738.1941575147212,None,739.1108404919505,None,1.511111111111111,0.6330879088491201,739.1108404919505,None,,,,,,,,,,,79,001,2023_Apr_20_1433,SpeechDraft1Carolyn_lessNoise_PlusLocalization,2021.2.3,60.020579655306854,
,,,,,,,,midRight,13.0,3,ch1Sound_localizationTask.wav,13.0,"(1142, 878)","(182, -202)",190,-338,,,,,,,,,4,2,30,5,,,,,,,,,,,,,,,,,,,,,,,,,,,,,,,,,,,,,,,,,,,,739.7455849219114,None,740.860873254016,None,741.7775015868247,None,1.6164021164021163,0.5158178149722517,741.7775015868247,None,,,,,,,,,,,79,001,2023_Apr_20_1433,SpeechDraft1Carolyn_lessNoise_PlusLocalization,2021.2.3,60.020579655306854,
,,,,,,,,midLeft,-13.0,2,ch1Sound_localizationTask.wav,-13.0,"(762, 878)","(-198,-202)",-190,-338,,,,,,,,,4,3,31,1,,,,,,,,,,,,,,,,,,,,,,,,,,,,,,,,,,,,,,,,,,,,742.2952145328745,None,743.3940385826863,None,744.3274060767144,None,1.411111111111111,0.7676120330579579,744.3274060767144,None,,,,,,,,,,,79,001,2023_Apr_20_1433,SpeechDraft1Carolyn_lessNoise_PlusLocalization,2021.2.3,60.020579655306854,
,,,,,,,,center,0.0,6,ch1Sound_localizationTask.wav,0.0,"(952, 878)","(-8,-202)",0,-338,,,,,,,,,4,4,32,3,,,,,,,,,,,,,,,,,,,,,,,,,,,,,,,,,,,,,,,,,,,,745.1110847778618,None,746.2107256446034,None,747.1441279817373,None,1.502116402116402,0.7335985926911235,747.1441279817373,None,,,,,,,,,,,79,001,2023_Apr_20_1433,SpeechDraft1Carolyn_lessNoise_PlusLocalization,2021.2.3,60.020579655306854,
,,,,,,,,farLeft,-19.1,5,ch1Sound_localizationTask.wav,-19.1,"(667, 878)","(-293,-202)",-285,-338,,,,,,,,,4,5,33,0,,,,,,,,,,,,,,,,,,,,,,,,,,,,,,,,,,,,,,,,,,,,747.8793392707594,None,748.9942191597074,None,749.9105666340329,None,1.3645502645502645,0.5980041059665382,749.9105666340329,None,,,,,,,,,,,79,001,2023_Apr_20_1433,SpeechDraft1Carolyn_lessNoise_PlusLocalization,2021.2.3,60.020579655306854,
,,,,,,,,center,0.0,6,ch1Sound_localizationTask.wav,0.0,"(952, 878)","(-8,-202)",0,-338,,,,,,,,,4,6,34,3,,,,,,,,,,,,,,,,,,,,,,,,,,,,,,,,,,,,,,,,,,,,750.5113447397016,None,751.6109188380651,None,752.5442085536197,None,1.4973544973544972,0.7162023009732366,752.5442085536197,None,,,,,,,,,,,79,001,2023_Apr_20_1433,SpeechDraft1Carolyn_lessNoise_PlusLocalization,2021.2.3,60.020579655306854,
,,,,,,,,midLeft,-13.0,2,ch1Sound_localizationTask.wav,-13.0,"(762, 878)","(-198,-202)",-190,-338,,,,,,,,,5,0,35,1,,,,,,,,,,,,,,,,,,,,,,,,,,,,,,,,,,,,,,,,,,,,753.2620265758596,None,754.360904391855,None,755.2940916186199,None,1.3883597883597885,0.8161884169094265,755.2940916186199,None,,,,,,,,,,,79,001,2023_Apr_20_1433,SpeechDraft1Carolyn_lessNoise_PlusLocalization,2021.2.3,60.020579655306854,
,,,,,,,,farRight,19.1,4,ch1Sound_localizationTask.wav,19.1,"(1237, 878)","(277,-202)",285,-338,,,,,,,,,5,1,36,6,,,,,,,,,,,,,,,,,,,,,,,,,,,,,,,,,,,,,,,,,,,,756.1121146529913,None,757.2109831678681,None,758.1444855309092,None,1.6169312169312169,1.083477279637009,758.1444855309092,None,,,,,,,,,,,79,001,2023_Apr_20_1433,SpeechDraft1Carolyn_lessNoise_PlusLocalization,2021.2.3,60.020579655306854,
,,,,,,,,midRight,13.0,3,ch1Sound_localizationTask.wav,13.0,"(1142, 878)","(182, -202)",190,-338,,,,,,,,,5,2,37,5,,,,,,,,,,,,,,,,,,,,,,,,,,,,,,,,,,,,,,,,,,,,759.2445183219388,None,760.3440714348108,None,761.2774281296879,None,1.538095238095238,0.6997159207239747,761.2774281296879,None,,,,,,,,,,,79,001,2023_Apr_20_1433,SpeechDraft1Carolyn_lessNoise_PlusLocalization,2021.2.3,60.020579655306854,
,,,,,,,,nearLeft,-6.5,1,ch1Sound_localizationTask.wav,-6.5,"(857, 878)","(-103,-202)",-95,-338,,,,,,,,,5,3,38,2,,,,,,,,,,,,,,,,,,,,,,,,,,,,,,,,,,,,,,,,,,,,761.9790743337944,None,763.0941155320033,None,764.0107322568074,None,1.4291005291005292,0.7999502252787352,764.0107322568074,None,,,,,,,,,,,79,001,2023_Apr_20_1433,SpeechDraft1Carolyn_lessNoise_PlusLocalization,2021.2.3,60.020579655306854,
,,,,,,,,farLeft,-19.1,5,ch1Sound_localizationTask.wav,-19.1,"(667, 878)","(-293,-202)",-285,-338,,,,,,,,,5,4,39,0,,,,,,,,,,,,,,,,,,,,,,,,,,,,,,,,,,,,,,,,,,,,764.8116734600626,None,765.9107881998643,None,766.8444055770524,None,1.374074074074074,0.9001352158375084,766.8444055770524,None,,,,,,,,,,,79,001,2023_Apr_20_1433,SpeechDraft1Carolyn_lessNoise_PlusLocalization,2021.2.3,60.020579655306854,
,,,,,,,,center,0.0,6,ch1Sound_localizationTask.wav,0.0,"(952, 878)","(-8,-202)",0,-338,,,,,,,,,5,5,40,3,,,,,,,,,,,,,,,,,,,,,,,,,,,,,,,,,,,,,,,,,,,,767.7611675849184,None,768.861272636801,None,769.7941737179644,None,1.5132275132275133,0.7834295490756631,769.7941737179644,None,,,,,,,,,,,79,001,2023_Apr_20_1433,SpeechDraft1Carolyn_lessNoise_PlusLocalization,2021.2.3,60.020579655306854,
,,,,,,,,midRight,13.0,3,ch1Sound_localizationTask.wav,13.0,"(1142, 878)","(182, -202)",190,-338,,,,,,,,,5,6,41,5,,,,,,,,,,,,,,,,,,,,,,,,,,,,,,,,,,,,,,,,,,,,770.5792164546438,None,771.6941759549081,None,772.6108830668963,None,1.5597883597883597,0.4835726493038237,772.6108830668963,None,,,,,,,,,,,79,001,2023_Apr_20_1433,SpeechDraft1Carolyn_lessNoise_PlusLocalization,2021.2.3,60.020579655306854,
,,,,,,,,nearRight,6.5,0,ch1Sound_localizationTask.wav,6.5,"(1047, 878)","(87, -202)",95,-338,,,,,,,,,6,0,42,4,,,,,,,,,,,,,,,,,,,,,,,,,,,,,,,,,,,,,,,,,,,,773.0956728118472,None,774.2108401977457,None,775.1274454919621,None,1.4915343915343915,0.6660606637597084,775.1274454919621,None,,,,,,,,,,,79,001,2023_Apr_20_1433,SpeechDraft1Carolyn_lessNoise_PlusLocalization,2021.2.3,60.020579655306854,
,,,,,,,,farRight,19.1,4,ch1Sound_localizationTask.wav,19.1,"(1237, 878)","(277,-202)",285,-338,,,,,,,,,6,1,43,6,,,,,,,,,,,,,,,,,,,,,,,,,,,,,,,,,,,,,,,,,,,,775.7949564997107,None,776.8941656299867,None,777.8274600338191,None,1.6132275132275131,0.7158721899613738,777.8274600338191,None,,,,,,,,,,,79,001,2023_Apr_20_1433,SpeechDraft1Carolyn_lessNoise_PlusLocalization,2021.2.3,60.020579655306854,
,,,,,,,,midLeft,-13.0,2,ch1Sound_localizationTask.wav,-13.0,"(762, 878)","(-198,-202)",-190,-338,,,,,,,,,6,2,44,1,,,,,,,,,,,,,,,,,,,,,,,,,,,,,,,,,,,,,,,,,,,,778.5451301448047,None,779.6441803807393,None,780.5777216507122,None,1.3931216931216932,0.9659721637144685,780.5777216507122,None,,,,,,,,,,,79,001,2023_Apr_20_1433,SpeechDraft1Carolyn_lessNoise_PlusLocalization,2021.2.3,60.020579655306854,
,,,,,,,,nearLeft,-6.5,1,ch1Sound_localizationTask.wav,-6.5,"(857, 878)","(-103,-202)",-95,-338,,,,,,,,,6,3,45,2,,,,,,,,,,,,,,,,,,,,,,,,,,,,,,,,,,,,,,,,,,,,781.545327831991,None,782.6443259967491,None,783.5776009326801,None,1.4661375661375662,0.6485524922609329,783.5776009326801,None,,,,,,,,,,,79,001,2023_Apr_20_1433,SpeechDraft1Carolyn_lessNoise_PlusLocalization,2021.2.3,60.020579655306854,
,,,,,,,,nearRight,6.5,0,ch1Sound_localizationTask.wav,6.5,"(1047, 878)","(87, -202)",95,-338,,,,,,,,,6,4,46,4,,,,,,,,,,,,,,,,,,,,,,,,,,,,,,,,,,,,,,,,,,,,784.2290162337013,None,785.3441758127883,None,786.2607424650341,None,1.5566137566137566,0.5489451996982098,786.2607424650341,None,,,,,,,,,,,79,001,2023_Apr_20_1433,SpeechDraft1Carolyn_lessNoise_PlusLocalization,2021.2.3,60.020579655306854,
,,,,,,,,farLeft,-19.1,5,ch1Sound_localizationTask.wav,-19.1,"(667, 878)","(-293,-202)",-285,-338,,,,,,,,,6,5,47,0,,,,,,,,,,,,,,,,,,,,,,,,,,,,,,,,,,,,,,,,,,,,786.8116806168109,None,787.9109426899813,None,788.844118387904,None,1.3587301587301588,0.9985961872152984,788.844118387904,None,,,,,,,,,,,79,001,2023_Apr_20_1433,SpeechDraft1Carolyn_lessNoise_PlusLocalization,2021.2.3,60.020579655306854,
,,,,,,,,midRight,13.0,3,ch1Sound_localizationTask.wav,13.0,"(1142, 878)","(182, -202)",190,-338,,,,,,,,,6,6,48,5,,,,,,,,,,,,,,,,,,,,,,,,,,,,,,,,,,,,,,,,,,,,789.8460587318987,None,790.9609870240092,None,791.8775315657258,None,1.6904761904761905,0.800408479757607,791.8775315657258,None,,,,,,,,,,,79,001,2023_Apr_20_1433,SpeechDraft1Carolyn_lessNoise_PlusLocalization,2021.2.3,60.020579655306854,
,,,,,,,,nearRight,6.5,0,ch1Sound_localizationTask.wav,6.5,"(1047, 878)","(87, -202)",95,-338,,,,,,,,,7,0,49,4,,,,,,,,,,,,,,,,,,,,,,,,,,,,,,,,,,,,,,,,,,,,792.679731706623,None,793.7941623637453,None,794.7106807529926,None,1.5031746031746032,0.816597075201571,794.7106807529926,None,,,,,,,,,,,79,001,2023_Apr_20_1433,SpeechDraft1Carolyn_lessNoise_PlusLocalization,2021.2.3,60.020579655306854,
,,,,,,,,nearLeft,-6.5,1,ch1Sound_localizationTask.wav,-6.5,"(857, 878)","(-103,-202)",-95,-338,,,,,,,,,7,1,50,2,,,,,,,,,,,,,,,,,,,,,,,,,,,,,,,,,,,,,,,,,,,,795.5448828586377,None,796.6442195829004,None,797.5775749199092,None,1.4253968253968254,0.7328833229839802,797.5775749199092,None,,,,,,,,,,,79,001,2023_Apr_20_1433,SpeechDraft1Carolyn_lessNoise_PlusLocalization,2021.2.3,60.020579655306854,
,,,,,,,,midLeft,-13.0,2,ch1Sound_localizationTask.wav,-13.0,"(762, 878)","(-198,-202)",-190,-338,,,,,,,,,7,2,51,1,,,,,,,,,,,,,,,,,,,,,,,,,,,,,,,,,,,,,,,,,,,,798.3125316179357,None,799.4277071459219,None,800.3441359847784,None,1.3693121693121693,0.582278517074883,800.3441359847784,None,,,,,,,,,,,79,001,2023_Apr_20_1433,SpeechDraft1Carolyn_lessNoise_PlusLocalization,2021.2.3,60.020579655306854,
,,,,,,,,farRight,19.1,4,ch1Sound_localizationTask.wav,19.1,"(1237, 878)","(277,-202)",285,-338,,,,,,,,,7,3,52,6,,,,,,,,,,,,,,,,,,,,,,,,,,,,,,,,,,,,,,,,,,,,800.9297174876556,None,802.0443728608079,None,802.960876843892,None,1.6502645502645503,0.6998121291399002,802.960876843892,None,,,,,,,,,,,79,001,2023_Apr_20_1433,SpeechDraft1Carolyn_lessNoise_PlusLocalization,2021.2.3,60.020579655306854,
,,,,,,,,midLeft,-13.0,2,ch1Sound_localizationTask.wav,-13.0,"(762, 878)","(-198,-202)",-190,-338,,,,,,,,,7,4,53,1,,,,,,,,,,,,,,,,,,,,,,,,,,,,,,,,,,,,,,,,,,,,803.6779250339605,None,804.7777510257438,None,805.7107464680448,None,1.392063492063492,0.5996340271085501,805.7107464680448,None,,,,,,,,,,,79,001,2023_Apr_20_1433,SpeechDraft1Carolyn_lessNoise_PlusLocalization,2021.2.3,60.020579655306854,
,,,,,,,,nearLeft,-6.5,1,ch1Sound_localizationTask.wav,-6.5,"(857, 878)","(-103,-202)",-95,-338,,,,,,,,,7,5,54,2,,,,,,,,,,,,,,,,,,,,,,,,,,,,,,,,,,,,,,,,,,,,806.3122859620489,None,807.4274424319156,None,808.3443683376536,None,1.4645502645502646,0.7505842740647495,808.3443683376536,None,,,,,,,,,,,79,001,2023_Apr_20_1433,SpeechDraft1Carolyn_lessNoise_PlusLocalization,2021.2.3,60.020579655306854,
,,,,,,,,farLeft,-19.1,5,ch1Sound_localizationTask.wav,-19.1,"(667, 878)","(-293,-202)",-285,-338,,,,,,,,,7,6,55,0,,,,,,,,,,,,,,,,,,,,,,,,,,,,,,,,,,,,,,,,,,,,809.1112864199094,None,810.2109475377947,None,811.1441287337802,None,1.3820105820105821,0.5830682651139796,811.1441287337802,None,,,,,,,,,,,79,001,2023_Apr_20_1433,SpeechDraft1Carolyn_lessNoise_PlusLocalization,2021.2.3,60.020579655306854,
,,,,,,,,,,,,,,,,,,,,,,,,,,,,,,,,,,,,,,,,,,,,,,,,,,,,,,,,,,,,,,,,,,,,,,,,,,,,,,,,,,space,6.955740605015308,811.8112443177961,None,,,,,,,79,001,2023_Apr_20_1433,SpeechDraft1Carolyn_lessNoise_PlusLocalization,2021.2.3,60.020579655306854,
,,,,,,,,midLeft,-13.0,2,ch1Sound_localizationTask.wav,-13.0,"(762, 878)","(-198,-202)",-190,-338,,,,,,,,,,,,,0,0,0,1,,,,,,,,,,,,,,,,,,,,,,,,,,,,,,,,,,,,,,,,818.8109521516599,None,,,821.8440692927688,None,1.4243386243386245,0.8390126400627196,821.8440692927688,None,,,,,811.8112443177961,None,819.8110474809073,None,819.9946118630469,820.0110750328749,79,001,2023_Apr_20_1433,SpeechDraft1Carolyn_lessNoise_PlusLocalization,2021.2.3,60.020579655306854,
,,,,,,,,farRight,19.1,4,ch1Sound_localizationTask.wav,19.1,"(1237, 878)","(277,-202)",285,-338,,,,,,,,,,,,,0,1,1,6,,,,,,,,,,,,,,,,,,,,,,,,,,,,,,,,,,,,,,,,822.6947258589789,None,,,825.7109123938717,None,1.6365079365079365,0.9826596230268478,825.7109123938717,None,,,,,,,823.6944611528888,None,823.8778170207515,823.8946318440139,79,001,2023_Apr_20_1433,SpeechDraft1Carolyn_lessNoise_PlusLocalization,2021.2.3,60.020579655306854,
,,,,,,,,midRight,13.0,3,ch1Sound_localizationTask.wav,13.0,"(1142, 878)","(182, -202)",190,-338,,,,,,,,,,,,,0,2,2,5,,,,,,,,,,,,,,,,,,,,,,,,,,,,,,,,,,,,,,,,826.6950691780075,None,,,829.7109152958728,None,1.6031746031746033,1.099700246937573,829.7109152958728,None,,,,,,,827.6945355837233,None,827.8778347279876,827.8945389706641,79,001,2023_Apr_20_1433,SpeechDraft1Carolyn_lessNoise_PlusLocalization,2021.2.3,60.020579655306854,
,,,,,,,,nearRight,6.5,0,ch1Sound_localizationTask.wav,6.5,"(1047, 878)","(87, -202)",95,-338,,,,,,,,,,,,,0,3,3,4,,,,,,,,,,,,,,,,,,,,,,,,,,,,,,,,,,,,,,,,830.8117099786177,None,,,833.8275638730265,None,1.5518518518518518,1.0999367916956544,833.8275638730265,None,,,,,,,831.8112517190166,None,831.9946959107183,832.0111621278338,79,001,2023_Apr_20_1433,SpeechDraft1Carolyn_lessNoise_PlusLocalization,2021.2.3,60.020579655306854,
,,,,,,,,nearLeft,-6.5,1,ch1Sound_localizationTask.wav,-6.5,"(857, 878)","(-103,-202)",-95,-338,,,,,,,,,,,,,0,4,4,2,,,,,,,,,,,,,,,,,,,,,,,,,,,,,,,,,,,,,,,,834.929334260989,None,,,837.9609342478216,None,1.4518518518518517,0.7825351958163083,837.9609342478216,None,,,,,,,835.9444278967567,None,836.1279549729079,836.1444556126371,79,001,2023_Apr_20_1433,SpeechDraft1Carolyn_lessNoise_PlusLocalization,2021.2.3,60.020579655306854,
,,,,,,,,farLeft,-19.1,5,ch1Sound_localizationTask.wav,-19.1,"(667, 878)","(-293,-202)",-285,-338,,,,,,,,,,,,,0,5,5,0,,,,,,,,,,,,,,,,,,,,,,,,,,,,,,,,,,,,,,,,838.7613478689454,None,,,841.7775460998528,None,1.355026455026455,0.7500464110635221,841.7775460998528,None,,,,,,,839.7611761046574,None,839.9444714556448,839.9611734719947,79,001,2023_Apr_20_1433,SpeechDraft1Carolyn_lessNoise_PlusLocalization,2021.2.3,60.020579655306854,
,,,,,,,,farRight,19.1,4,ch1Sound_localizationTask.wav,19.1,"(1237, 878)","(277,-202)",285,-338,,,,,,,,,,,,,0,6,6,6,,,,,,,,,,,,,,,,,,,,,,,,,,,,,,,,,,,,,,,,842.5445152837783,None,,,845.5610568206757,None,1.6539682539682539,0.9153055320493877,845.5610568206757,None,,,,,,,843.5445963707753,None,843.7278461768292,843.7445737537928,79,001,2023_Apr_20_1433,SpeechDraft1Carolyn_lessNoise_PlusLocalization,2021.2.3,60.020579655306854,
,,,,,,,,center,0.0,6,ch1Sound_localizationTask.wav,0.0,"(952, 878)","(-8,-202)",0,-338,,,,,,,,,,,,,1,0,7,3,,,,,,,,,,,,,,,,,,,,,,,,,,,,,,,,,,,,,,,,846.4793096138164,None,,,849.5108281336725,None,1.5047619047619047,1.067258555907756,849.5108281336725,None,,,,,,,847.4944846346043,None,847.6780175017193,847.694459439721,79,001,2023_Apr_20_1433,SpeechDraft1Carolyn_lessNoise_PlusLocalization,2021.2.3,60.020579655306854,
,,,,,,,,center,0.0,6,ch1Sound_localizationTask.wav,0.0,"(952, 878)","(-8,-202)",0,-338,,,,,,,,,,,,,1,1,8,3,,,,,,,,,,,,,,,,,,,,,,,,,,,,,,,,,,,,,,,,850.5945700090379,None,,,853.6111125038005,None,1.498941798941799,0.9661665828898549,853.6111125038005,None,,,,,,,851.5945770540275,None,851.7778637688607,851.7945695677772,79,001,2023_Apr_20_1433,SpeechDraft1Carolyn_lessNoise_PlusLocalization,2021.2.3,60.020579655306854,
,,,,,,,,midRight,13.0,3,ch1Sound_localizationTask.wav,13.0,"(1142, 878)","(182, -202)",190,-338,,,,,,,,,,,,,1,2,9,5,,,,,,,,,,,,,,,,,,,,,,,,,,,,,,,,,,,,,,,,854.5786787839606,None,,,857.5943481470458,None,1.6222222222222222,1.1660897838883102,857.5943481470458,None,,,,,,,855.5779618928209,None,855.7613104777411,855.7778358468786,79,001,2023_Apr_20_1433,SpeechDraft1Carolyn_lessNoise_PlusLocalization,2021.2.3,60.020579655306854,
,,,,,,,,farRight,19.1,4,ch1Sound_localizationTask.wav,19.1,"(1237, 878)","(277,-202)",285,-338,,,,,,,,,,,,,1,3,10,6,,,,,,,,,,,,,,,,,,,,,,,,,,,,,,,,,,,,,,,,858.7620693319477,None,,,861.7775534270331,None,1.6544973544973545,1.2818800858221948,861.7775534270331,None,,,,,,,859.7612324436195,None,859.9446505079977,859.9612343669869,79,001,2023_Apr_20_1433,SpeechDraft1Carolyn_lessNoise_PlusLocalization,2021.2.3,60.020579655306854,
,,,,,,,,nearLeft,-6.5,1,ch1Sound_localizationTask.wav,-6.5,"(857, 878)","(-103,-202)",-95,-338,,,,,,,,,,,,,1,4,11,2,,,,,,,,,,,,,,,,,,,,,,,,,,,,,,,,,,,,,,,,863.0629411377013,None,,,866.0942851789296,None,1.4417989417989419,1.0994342877529562,866.0942851789296,None,,,,,,,864.0779040846974,None,864.2612837119959,864.2780110388994,79,001,2023_Apr_20_1433,SpeechDraft1Carolyn_lessNoise_PlusLocalization,2021.2.3,60.020579655306854,
,,,,,,,,center,0.0,6,ch1Sound_localizationTask.wav,0.0,"(952, 878)","(-8,-202)",0,-338,,,,,,,,,,,,,1,5,12,3,,,,,,,,,,,,,,,,,,,,,,,,,,,,,,,,,,,,,,,,867.1959577999078,None,,,870.2276288149878,None,1.5047619047619047,1.333381860051304,870.2276288149878,None,,,,,,,868.2112088669091,None,868.3945173276588,868.4112535608001,79,001,2023_Apr_20_1433,SpeechDraft1Carolyn_lessNoise_PlusLocalization,2021.2.3,60.020579655306854,
,,,,,,,,nearRight,6.5,0,ch1Sound_localizationTask.wav,6.5,"(1047, 878)","(87, -202)",95,-338,,,,,,,,,,,,,1,6,13,4,,,,,,,,,,,,,,,,,,,,,,,,,,,,,,,,,,,,,,,,871.5628019487485,None,,,874.5943248188123,None,1.566137566137566,0.9996256018057466,874.5943248188123,None,,,,,,,872.5778587409295,None,872.761276668869,872.777916810941,79,001,2023_Apr_20_1433,SpeechDraft1Carolyn_lessNoise_PlusLocalization,2021.2.3,60.020579655306854,
,,,,,,,,midRight,13.0,3,ch1Sound_localizationTask.wav,13.0,"(1142, 878)","(182, -202)",190,-338,,,,,,,,,,,,,2,0,14,5,,,,,,,,,,,,,,,,,,,,,,,,,,,,,,,,,,,,,,,,875.5955074406229,None,,,878.6111478358507,None,1.6116402116402115,1.0497631640173495,878.6111478358507,None,,,,,,,876.594585432671,None,876.7778999418952,876.794573399704,79,001,2023_Apr_20_1433,SpeechDraft1Carolyn_lessNoise_PlusLocalization,2021.2.3,60.020579655306854,
,,,,,,,,nearLeft,-6.5,1,ch1Sound_localizationTask.wav,-6.5,"(857, 878)","(-103,-202)",-95,-338,,,,,,,,,,,,,2,1,15,2,,,,,,,,,,,,,,,,,,,,,,,,,,,,,,,,,,,,,,,,879.6625525578856,None,,,882.6942554968409,None,1.4370370370370371,1.3656817022711039,882.6942554968409,None,,,,,,,880.6779803587124,None,880.8612729576416,880.8779620816931,79,001,2023_Apr_20_1433,SpeechDraft1Carolyn_lessNoise_PlusLocalization,2021.2.3,60.020579655306854,
,,,,,,,,nearLeft,-6.5,1,ch1Sound_localizationTask.wav,-6.5,"(857, 878)","(-103,-202)",-95,-338,,,,,,,,,,,,,2,2,16,2,,,,,,,,,,,,,,,,,,,,,,,,,,,,,,,,,,,,,,,,884.0622258950025,None,,,887.077696938999,None,1.464021164021164,1.1496506687253714,887.077696938999,None,,,,,,,885.0611959118396,None,885.2447294737212,885.2612082529813,79,001,2023_Apr_20_1433,SpeechDraft1Carolyn_lessNoise_PlusLocalization,2021.2.3,60.020579655306854,
,,,,,,,,farRight,19.1,4,ch1Sound_localizationTask.wav,19.1,"(1237, 878)","(277,-202)",285,-338,,,,,,,,,,,,,2,3,17,6,,,,,,,,,,,,,,,,,,,,,,,,,,,,,,,,,,,,,,,,888.2289179568179,None,,,891.244398095645,None,1.6677248677248677,1.249311103951186,891.244398095645,None,,,,,,,889.2278925809078,None,889.4112691050395,889.4279357669875,79,001,2023_Apr_20_1433,SpeechDraft1Carolyn_lessNoise_PlusLocalization,2021.2.3,60.020579655306854,
,,,,,,,,midRight,13.0,3,ch1Sound_localizationTask.wav,13.0,"(1142, 878)","(182, -202)",190,-338,,,,,,,,,,,,,2,4,18,5,,,,,,,,,,,,,,,,,,,,,,,,,,,,,,,,,,,,,,,,892.4949824786745,None,,,895.51094688382,None,1.601058201058201,1.082154667004943,895.51094688382,None,,,,,,,893.4945402787998,None,893.6780291460454,893.6945299650542,79,001,2023_Apr_20_1433,SpeechDraft1Carolyn_lessNoise_PlusLocalization,2021.2.3,60.020579655306854,
,,,,,,,,farLeft,-19.1,5,ch1Sound_localizationTask.wav,-19.1,"(667, 878)","(-293,-202)",-285,-338,,,,,,,,,,,,,2,5,19,0,,,,,,,,,,,,,,,,,,,,,,,,,,,,,,,,,,,,,,,,896.5957280518487,None,,,899.6277101128362,None,1.3465608465608465,1.299764993134886,899.6277101128362,None,,,,,,,897.6113289678469,None,897.7946916767396,897.8112357589416,79,001,2023_Apr_20_1433,SpeechDraft1Carolyn_lessNoise_PlusLocalization,2021.2.3,60.020579655306854,
,,,,,,,,center,0.0,6,ch1Sound_localizationTask.wav,0.0,"(952, 878)","(-8,-202)",0,-338,,,,,,,,,,,,,2,6,20,3,,,,,,,,,,,,,,,,,,,,,,,,,,,,,,,,,,,,,,,,900.9288658699952,None,,,903.9443385526538,None,1.5126984126984127,1.116253952961415,903.9443385526538,None,,,,,,,901.9281124337576,None,902.1113071669824,902.1280113118701,79,001,2023_Apr_20_1433,SpeechDraft1Carolyn_lessNoise_PlusLocalization,2021.2.3,60.020579655306854,
,,,,,,,,farRight,19.1,4,ch1Sound_localizationTask.wav,19.1,"(1237, 878)","(277,-202)",285,-338,,,,,,,,,,,,,3,0,21,6,,,,,,,,,,,,,,,,,,,,,,,,,,,,,,,,,,,,,,,,905.0624538478442,None,,,908.0942299789749,None,1.6523809523809523,1.068347840104252,908.0942299789749,None,,,,,,,906.0781682678498,None,906.2613874310628,906.2779990476556,79,001,2023_Apr_20_1433,SpeechDraft1Carolyn_lessNoise_PlusLocalization,2021.2.3,60.020579655306854,
,,,,,,,,farLeft,-19.1,5,ch1Sound_localizationTask.wav,-19.1,"(667, 878)","(-293,-202)",-285,-338,,,,,,,,,,,,,3,1,22,0,,,,,,,,,,,,,,,,,,,,,,,,,,,,,,,,,,,,,,,,909.1778617287055,None,,,912.194365805015,None,1.343915343915344,1.4663667511194944,912.194365805015,None,,,,,,,910.1779029378667,None,910.3612608937547,910.377877080813,79,001,2023_Apr_20_1433,SpeechDraft1Carolyn_lessNoise_PlusLocalization,2021.2.3,60.020579655306854,
,,,,,,,,midRight,13.0,3,ch1Sound_localizationTask.wav,13.0,"(1142, 878)","(182, -202)",190,-338,,,,,,,,,,,,,3,2,23,5,,,,,,,,,,,,,,,,,,,,,,,,,,,,,,,,,,,,,,,,913.6624702247791,None,,,916.694334548898,None,1.635978835978836,0.9985595070756972,916.694334548898,None,,,,,,,914.6781771378592,None,914.861306683626,914.8780236877501,79,001,2023_Apr_20_1433,SpeechDraft1Carolyn_lessNoise_PlusLocalization,2021.2.3,60.020579655306854,
,,,,,,,,midLeft,-13.0,2,ch1Sound_localizationTask.wav,-13.0,"(762, 878)","(-198,-202)",-190,-338,,,,,,,,,,,,,3,3,24,1,,,,,,,,,,,,,,,,,,,,,,,,,,,,,,,,,,,,,,,,917.6949395360425,None,,,920.7109861699864,None,1.3835978835978837,1.1495360769331455,920.7109861699864,None,,,,,,,918.6948549170047,None,918.8779775169678,918.8946384936571,79,001,2023_Apr_20_1433,SpeechDraft1Carolyn_lessNoise_PlusLocalization,2021.2.3,60.020579655306854,
,,,,,,,,center,0.0,6,ch1Sound_localizationTask.wav,0.0,"(952, 878)","(-8,-202)",0,-338,,,,,,,,,,,,,3,4,25,3,,,,,,,,,,,,,,,,,,,,,,,,,,,,,,,,,,,,,,,,921.8627133849077,None,,,924.8944232556969,None,1.4798941798941798,1.4663194669410586,924.8944232556969,None,,,,,,,922.8779656500556,None,923.0613759499975,923.0779894096777,79,001,2023_Apr_20_1433,SpeechDraft1Carolyn_lessNoise_PlusLocalization,2021.2.3,60.020579655306854,
,,,,,,,,farLeft,-19.1,5,ch1Sound_localizationTask.wav,-19.1,"(667, 878)","(-293,-202)",-285,-338,,,,,,,,,,,,,3,5,26,0,,,,,,,,,,,,,,,,,,,,,,,,,,,,,,,,,,,,,,,,926.3622925346717,None,,,929.3943513226695,None,1.3243386243386244,1.0824783723801374,929.3943513226695,None,,,,,,,927.3780355066992,None,927.5615524239838,927.5780054889619,79,001,2023_Apr_20_1433,SpeechDraft1Carolyn_lessNoise_PlusLocalization,2021.2.3,60.020579655306854,
,,,,,,,,farRight,19.1,4,ch1Sound_localizationTask.wav,19.1,"(1237, 878)","(277,-202)",285,-338,,,,,,,,,,,,,3,6,27,6,,,,,,,,,,,,,,,,,,,,,,,,,,,,,,,,,,,,,,,,930.4787261337042,None,,,933.4943324117921,None,1.6465608465608466,1.0482252440415323,933.4943324117921,None,,,,,,,931.4779595066793,None,931.6613732706755,931.6779945986345,79,001,2023_Apr_20_1433,SpeechDraft1Carolyn_lessNoise_PlusLocalization,2021.2.3,60.020579655306854,
,,,,,,,,midRight,13.0,3,ch1Sound_localizationTask.wav,13.0,"(1142, 878)","(182, -202)",190,-338,,,,,,,,,,,,,4,0,28,5,,,,,,,,,,,,,,,,,,,,,,,,,,,,,,,,,,,,,,,,934.5455999327824,None,,,937.5612101657316,None,1.5841269841269843,0.7663220171816647,937.5612101657316,None,,,,,,,935.5447503458709,None,935.7282479028217,935.7445663027465,79,001,2023_Apr_20_1433,SpeechDraft1Carolyn_lessNoise_PlusLocalization,2021.2.3,60.020579655306854,
,,,,,,,,nearRight,6.5,0,ch1Sound_localizationTask.wav,6.5,"(1047, 878)","(87, -202)",95,-338,,,,,,,,,,,,,4,1,29,4,,,,,,,,,,,,,,,,,,,,,,,,,,,,,,,,,,,,,,,,938.3446990158409,None,,,941.3610434886068,None,1.543915343915344,0.8998520970344543,941.3610434886068,None,,,,,,,939.3447247426957,None,939.5284121949226,939.5447790808976,79,001,2023_Apr_20_1433,SpeechDraft1Carolyn_lessNoise_PlusLocalization,2021.2.3,60.020579655306854,
,,,,,,,,farLeft,-19.1,5,ch1Sound_localizationTask.wav,-19.1,"(667, 878)","(-293,-202)",-285,-338,,,,,,,,,,,,,4,2,30,0,,,,,,,,,,,,,,,,,,,,,,,,,,,,,,,,,,,,,,,,942.2621233076788,None,,,945.2777502546087,None,1.3486772486772487,1.720954628661275,945.2777502546087,None,,,,,,,943.2614176897332,None,943.4450313276611,943.4616090198979,79,001,2023_Apr_20_1433,SpeechDraft1Carolyn_lessNoise_PlusLocalization,2021.2.3,60.020579655306854,
,,,,,,,,midRight,13.0,3,ch1Sound_localizationTask.wav,13.0,"(1142, 878)","(182, -202)",190,-338,,,,,,,,,,,,,4,3,31,5,,,,,,,,,,,,,,,,,,,,,,,,,,,,,,,,,,,,,,,,947.011374306865,None,,,950.027659222018,None,1.5920634920634922,1.0318454150110483,950.027659222018,None,,,,,,,948.0114029138349,None,948.194806762971,948.2114244997501,79,001,2023_Apr_20_1433,SpeechDraft1Carolyn_lessNoise_PlusLocalization,2021.2.3,60.020579655306854,
,,,,,,,,nearLeft,-6.5,1,ch1Sound_localizationTask.wav,-6.5,"(857, 878)","(-103,-202)",-95,-338,,,,,,,,,,,,,4,4,32,2,,,,,,,,,,,,,,,,,,,,,,,,,,,,,,,,,,,,,,,,951.061688228976,None,,,954.0777279259637,None,1.4190476190476191,1.2497179568745196,954.0777279259637,None,,,,,,,952.0613641799428,None,952.2449259557761,952.2613679217175,79,001,2023_Apr_20_1433,SpeechDraft1Carolyn_lessNoise_PlusLocalization,2021.2.3,60.020579655306854,
,,,,,,,,center,0.0,6,ch1Sound_localizationTask.wav,0.0,"(952, 878)","(-8,-202)",0,-338,,,,,,,,,,,,,4,5,33,3,,,,,,,,,,,,,,,,,,,,,,,,,,,,,,,,,,,,,,,,955.3292516567744,None,,,958.361120864749,None,1.505820105820106,0.7665244438685477,958.361120864749,None,,,,,,,956.3447139170021,None,956.5281726839021,956.5446472638287,79,001,2023_Apr_20_1433,SpeechDraft1Carolyn_lessNoise_PlusLocalization,2021.2.3,60.020579655306854,
,,,,,,,,farLeft,-19.1,5,ch1Sound_localizationTask.wav,-19.1,"(667, 878)","(-293,-202)",-285,-338,,,,,,,,,,,,,4,6,34,0,,,,,,,,,,,,,,,,,,,,,,,,,,,,,,,,,,,,,,,,959.1291394489817,None,,,962.161033031065,None,1.364021164021164,1.2831037300638855,962.161033031065,None,,,,,,,960.1447200300172,None,960.3280604858883,960.3447107546963,79,001,2023_Apr_20_1433,SpeechDraft1Carolyn_lessNoise_PlusLocalization,2021.2.3,60.020579655306854,
,,,,,,,,midLeft,-13.0,2,ch1Sound_localizationTask.wav,-13.0,"(762, 878)","(-198,-202)",-190,-338,,,,,,,,,,,,,5,0,35,1,,,,,,,,,,,,,,,,,,,,,,,,,,,,,,,,,,,,,,,,963.4457420208491,None,,,966.4777975068428,None,1.4042328042328043,0.9004966192878783,966.4777975068428,None,,,,,,,964.4614402516745,None,964.6447751689702,964.6614970858209,79,001,2023_Apr_20_1433,SpeechDraft1Carolyn_lessNoise_PlusLocalization,2021.2.3,60.020579655306854,
,,,,,,,,nearRight,6.5,0,ch1Sound_localizationTask.wav,6.5,"(1047, 878)","(87, -202)",95,-338,,,,,,,,,,,,,5,1,36,4,,,,,,,,,,,,,,,,,,,,,,,,,,,,,,,,,,,,,,,,967.3948117899708,None,,,970.4112230888568,None,1.5576719576719578,1.2325502252206206,970.4112230888568,None,,,,,,,968.3947133929469,None,968.5779304560274,968.5947684720159,79,001,2023_Apr_20_1433,SpeechDraft1Carolyn_lessNoise_PlusLocalization,2021.2.3,60.020579655306854,
,,,,,,,,center,0.0,6,ch1Sound_localizationTask.wav,0.0,"(952, 878)","(-8,-202)",0,-338,,,,,,,,,,,,,5,2,37,3,,,,,,,,,,,,,,,,,,,,,,,,,,,,,,,,,,,,,,,,971.6457567559555,None,,,974.677639179863,None,1.5126984126984127,0.7654314562678337,974.677639179863,None,,,,,,,972.6614408418536,None,972.8447182136588,972.8615389396437,79,001,2023_Apr_20_1433,SpeechDraft1Carolyn_lessNoise_PlusLocalization,2021.2.3,60.020579655306854,
,,,,,,,,center,0.0,6,ch1Sound_localizationTask.wav,0.0,"(952, 878)","(-8,-202)",0,-338,,,,,,,,,,,,,5,3,38,3,,,,,,,,,,,,,,,,,,,,,,,,,,,,,,,,,,,,,,,,975.4451750088483,None,,,978.4610928366892,None,1.4952380952380953,1.116079583298415,978.4610928366892,None,,,,,,,976.4448470659554,None,976.6281656497158,976.6447226498276,79,001,2023_Apr_20_1433,SpeechDraft1Carolyn_lessNoise_PlusLocalization,2021.2.3,60.020579655306854,
,,,,,,,,midLeft,-13.0,2,ch1Sound_localizationTask.wav,-13.0,"(762, 878)","(-198,-202)",-190,-338,,,,,,,,,,,,,5,4,39,1,,,,,,,,,,,,,,,,,,,,,,,,,,,,,,,,,,,,,,,,979.5788837159052,None,,,982.5944421337917,None,1.3994708994708995,0.8158337851054966,982.5944421337917,None,,,,,,,980.5782102257945,None,980.7613975456916,980.7781244316138,79,001,2023_Apr_20_1433,SpeechDraft1Carolyn_lessNoise_PlusLocalization,2021.2.3,60.020579655306854,
,,,,,,,,nearRight,6.5,0,ch1Sound_localizationTask.wav,6.5,"(1047, 878)","(87, -202)",95,-338,,,,,,,,,,,,,5,5,40,4,,,,,,,,,,,,,,,,,,,,,,,,,,,,,,,,,,,,,,,,983.412216105964,None,,,986.4276961758733,None,1.5788359788359787,1.0152666354551911,986.4276961758733,None,,,,,,,984.4113774849102,None,984.5948729920201,984.6112956497818,79,001,2023_Apr_20_1433,SpeechDraft1Carolyn_lessNoise_PlusLocalization,2021.2.3,60.020579655306854,
,,,,,,,,farLeft,-19.1,5,ch1Sound_localizationTask.wav,-19.1,"(667, 878)","(-293,-202)",-285,-338,,,,,,,,,,,,,5,6,41,0,,,,,,,,,,,,,,,,,,,,,,,,,,,,,,,,,,,,,,,,987.4455938558094,None,,,990.4610656746663,None,1.3285714285714285,1.4998491290025413,990.4610656746663,None,,,,,,,988.4447957999073,None,988.6280869087204,988.6447940468788,79,001,2023_Apr_20_1433,SpeechDraft1Carolyn_lessNoise_PlusLocalization,2021.2.3,60.020579655306854,
,,,,,,,,midLeft,-13.0,2,ch1Sound_localizationTask.wav,-13.0,"(762, 878)","(-198,-202)",-190,-338,,,,,,,,,,,,,6,0,42,1,,,,,,,,,,,,,,,,,,,,,,,,,,,,,,,,,,,,,,,,991.9782247878611,None,,,994.9945531310514,None,1.3767195767195768,1.233172945678234,994.9945531310514,None,,,,,,,992.978080173023,None,993.1613995167427,993.1780247846618,79,001,2023_Apr_20_1433,SpeechDraft1Carolyn_lessNoise_PlusLocalization,2021.2.3,60.020579655306854,
,,,,,,,,farRight,19.1,4,ch1Sound_localizationTask.wav,19.1,"(1237, 878)","(277,-202)",285,-338,,,,,,,,,,,,,6,1,43,6,,,,,,,,,,,,,,,,,,,,,,,,,,,,,,,,,,,,,,,,996.229294073768,None,,,999.2445050789975,None,1.687830687830688,0.8496531271375716,999.2445050789975,None,,,,,,,997.2281754380092,None,997.4114462216385,997.4282481507398,79,001,2023_Apr_20_1433,SpeechDraft1Carolyn_lessNoise_PlusLocalization,2021.2.3,60.020579655306854,
,,,,,,,,midLeft,-13.0,2,ch1Sound_localizationTask.wav,-13.0,"(762, 878)","(-198,-202)",-190,-338,,,,,,,,,,,,,6,2,44,1,,,,,,,,,,,,,,,,,,,,,,,,,,,,,,,,,,,,,,,,1000.1113771479577,None,,,1003.1277074478567,None,1.3883597883597885,0.9162484128028154,1003.1277074478567,None,,,,,,,1001.111410362646,None,1001.294684221968,1001.3113996526226,79,001,2023_Apr_20_1433,SpeechDraft1Carolyn_lessNoise_PlusLocalization,2021.2.3,60.020579655306854,
,,,,,,,,midRight,13.0,3,ch1Sound_localizationTask.wav,13.0,"(1142, 878)","(182, -202)",190,-338,,,,,,,,,,,,,6,3,45,5,,,,,,,,,,,,,,,,,,,,,,,,,,,,,,,,,,,,,,,,1004.0455877776258,None,,,1007.0611595930532,None,1.6185185185185185,0.8320143111050129,1007.0611595930532,None,,,,,,,1005.0449494100176,None,1005.2280983119272,1005.2448414308019,79,001,2023_Apr_20_1433,SpeechDraft1Carolyn_lessNoise_PlusLocalization,2021.2.3,60.020579655306854,
,,,,,,,,nearRight,6.5,0,ch1Sound_localizationTask.wav,6.5,"(1047, 878)","(87, -202)",95,-338,,,,,,,,,,,,,6,4,46,4,,,,,,,,,,,,,,,,,,,,,,,,,,,,,,,,,,,,,,,,1007.8960405606776,None,,,1010.9278488308191,None,1.535978835978836,0.8660018881782889,1010.9278488308191,None,,,,,,,1008.9116370896809,None,1009.0947749488987,1009.1113768089563,79,001,2023_Apr_20_1433,SpeechDraft1Carolyn_lessNoise_PlusLocalization,2021.2.3,60.020579655306854,
,,,,,,,,midLeft,-13.0,2,ch1Sound_localizationTask.wav,-13.0,"(762, 878)","(-198,-202)",-190,-338,,,,,,,,,,,,,6,5,47,1,,,,,,,,,,,,,,,,,,,,,,,,,,,,,,,,,,,,,,,,1011.7955607357435,None,,,1014.8110784217715,None,1.4058201058201059,0.949507680721581,1014.8110784217715,None,,,,,,,1012.7948811650276,None,1012.978096821811,1012.9948453260586,79,001,2023_Apr_20_1433,SpeechDraft1Carolyn_lessNoise_PlusLocalization,2021.2.3,60.020579655306854,
,,,,,,,,midLeft,-13.0,2,ch1Sound_localizationTask.wav,-13.0,"(762, 878)","(-198,-202)",-190,-338,,,,,,,,,,,,,6,6,48,1,,,,,,,,,,,,,,,,,,,,,,,,,,,,,,,,,,,,,,,,1015.7626657616347,None,,,1018.794466863852,None,1.4095238095238094,0.8669480108655989,1018.794466863852,None,,,,,,,1016.778162450064,None,1016.9615142848343,1016.9781682896428,79,001,2023_Apr_20_1433,SpeechDraft1Carolyn_lessNoise_PlusLocalization,2021.2.3,60.020579655306854,
,,,,,,,,nearRight,6.5,0,ch1Sound_localizationTask.wav,6.5,"(1047, 878)","(87, -202)",95,-338,,,,,,,,,,,,,7,0,49,4,,,,,,,,,,,,,,,,,,,,,,,,,,,,,,,,,,,,,,,,1019.6780341160484,None,,,1022.6944653368555,None,1.5026455026455028,1.9824247090145946,1022.6944653368555,None,,,,,,,1020.6780871688388,None,1020.8614875818603,1020.8780934857205,79,001,2023_Apr_20_1433,SpeechDraft1Carolyn_lessNoise_PlusLocalization,2021.2.3,60.020579655306854,
,,,,,,,,nearLeft,-6.5,1,ch1Sound_localizationTask.wav,-6.5,"(857, 878)","(-103,-202)",-95,-338,,,,,,,,,,,,,7,1,50,2,,,,,,,,,,,,,,,,,,,,,,,,,,,,,,,,,,,,,,,,1024.678494996857,None,,,1027.6945602968335,None,1.4285714285714286,0.6821990623138845,1027.6945602968335,None,,,,,,,1025.678204823751,None,1025.8615373149514,1025.8782710968517,79,001,2023_Apr_20_1433,SpeechDraft1Carolyn_lessNoise_PlusLocalization,2021.2.3,60.020579655306854,
,,,,,,,,nearLeft,-6.5,1,ch1Sound_localizationTask.wav,-6.5,"(857, 878)","(-103,-202)",-95,-338,,,,,,,,,,,,,7,2,51,2,,,,,,,,,,,,,,,,,,,,,,,,,,,,,,,,,,,,,,,,1028.378722146619,None,,,1031.3943888149224,None,1.4645502645502646,1.0821651280857623,1031.3943888149224,None,,,,,,,1029.3781513739377,None,1029.561704936903,1029.5780750378035,79,001,2023_Apr_20_1433,SpeechDraft1Carolyn_lessNoise_PlusLocalization,2021.2.3,60.020579655306854,
,,,,,,,,nearRight,6.5,0,ch1Sound_localizationTask.wav,6.5,"(1047, 878)","(87, -202)",95,-338,,,,,,,,,,,,,7,3,52,4,,,,,,,,,,,,,,,,,,,,,,,,,,,,,,,,,,,,,,,,1032.4795763590373,None,,,1035.5110319717787,None,1.5624338624338625,1.049001906067133,1035.5110319717787,None,,,,,,,1033.4948440869339,None,1033.678144178819,1033.6948362328112,79,001,2023_Apr_20_1433,SpeechDraft1Carolyn_lessNoise_PlusLocalization,2021.2.3,60.020579655306854,
,,,,,,,,farRight,19.1,4,ch1Sound_localizationTask.wav,19.1,"(1237, 878)","(277,-202)",285,-338,,,,,,,,,,,,,7,4,53,6,,,,,,,,,,,,,,,,,,,,,,,,,,,,,,,,,,,,,,,,1036.5623526377603,None,,,1039.5778482649475,None,1.6608465608465608,0.6984704807400703,1039.5778482649475,None,,,,,,,1037.5614521489479,None,1037.7448218888603,1037.7614273168147,79,001,2023_Apr_20_1433,SpeechDraft1Carolyn_lessNoise_PlusLocalization,2021.2.3,60.020579655306854,
,,,,,,,,farLeft,-19.1,5,ch1Sound_localizationTask.wav,-19.1,"(667, 878)","(-293,-202)",-285,-338,,,,,,,,,,,,,7,5,54,0,,,,,,,,,,,,,,,,,,,,,,,,,,,,,,,,,,,,,,,,1040.278820185922,None,,,1043.2945088399574,None,1.3238095238095238,0.8826852068305016,1043.2945088399574,None,,,,,,,1041.278165387921,None,1041.4614875377156,1041.4782445379533,79,001,2023_Apr_20_1433,SpeechDraft1Carolyn_lessNoise_PlusLocalization,2021.2.3,60.020579655306854,
,,,,,,,,nearLeft,-6.5,1,ch1Sound_localizationTask.wav,-6.5,"(857, 878)","(-103,-202)",-95,-338,,,,,,,,,,,,,7,6,55,2,,,,,,,,,,,,,,,,,,,,,,,,,,,,,,,,,,,,,,,,1044.179280008655,None,,,1047.1945942980237,None,1.438095238095238,0.9660346927121282,1047.1945942980237,None,,,,,,,1045.178270012606,None,1045.3617235678248,1045.3781845546328,79,001,2023_Apr_20_1433,SpeechDraft1Carolyn_lessNoise_PlusLocalization,2021.2.3,60.020579655306854,
