{"meta_data":{"additional_headers":{},"game_name":"Recollect","version":"2.53.01","user_name":"7","organization":"braingamecenter","study":"mpl2_2022_11","session_number":0,"device_id":"74342D95-EE82-45E3-8ADF-48FB3203C5DD"},"data":[{"trial":0,"action":1,"button_pressed":5,"time_out":false,"dwell_time":64.5,"response_time":1675728350063.62},{"trial":0,"action":1,"button_pressed":3,"time_out":false,"dwell_time":63.674072265625,"response_time":1675728350662.1},{"trial":0,"action":9,"button_pressed":-1,"time_out":false,"dwell_time":92.64111328125,"response_time":1675728352757.24},{"trial":1,"action":1,"button_pressed":7,"time_out":false,"dwell_time":64.985107421875,"response_time":1675728363159.53},{"trial":1,"action":1,"button_pressed":3,"time_out":false,"dwell_time":82.0498046875,"response_time":1675728363676.03},{"trial":1,"action":1,"button_pressed":2,"time_out":false,"dwell_time":65.23193359375,"response_time":1675728364175.81},{"trial":1,"action":9,"button_pressed":-1,"time_out":false,"dwell_time":98.8330078125,"response_time":1675728364742.59},{"trial":2,"action":1,"button_pressed":3,"time_out":false,"dwell_time":64.7041015625,"response_time":1675728377104.36},{"trial":2,"action":1,"button_pressed":5,"time_out":false,"dwell_time":64.427001953125,"response_time":1675728377471.41},{"trial":2,"action":1,"button_pressed":9,"time_out":false,"dwell_time":64.4541015625,"response_time":1675728377971.34},{"trial":2,"action":1,"button_pressed":2,"time_out":false,"dwell_time":63.73095703125,"response_time":1675728378437.16},{"trial":2,"action":9,"button_pressed":-1,"time_out":false,"dwell_time":131.72314453125,"response_time":1675728379171.64},{"trial":3,"action":1,"button_pressed":3,"time_out":false,"dwell_time":81.840087890625,"response_time":1675728393666.46},{"trial":3,"action":1,"button_pressed":8,"time_out":false,"dwell_time":81.655029296875,"response_time":1675728394099.51},{"trial":3,"action":1,"button_pressed":4,"time_out":false,"dwell_time":63.614013671875,"response_time":1675728394581.89},{"trial":3,"action":1,"button_pressed":10,"time_out":false,"dwell_time":65.247802734375,"response_time":1675728394949.42},{"trial":3,"action":1,"button_pressed":11,"time_out":false,"dwell_time":47.447021484375,"response_time":1675728395265.43},{"trial":3,"action":9,"button_pressed":-1,"time_out":false,"dwell_time":64.80419921875,"response_time":1675728396032.62},{"trial":4,"action":1,"button_pressed":3,"time_out":false,"dwell_time":81.984130859375,"response_time":1675728413010.19},{"trial":4,"action":1,"button_pressed":7,"time_out":false,"dwell_time":80.951904296875,"response_time":1675728413476.6},{"trial":4,"action":1,"button_pressed":10,"time_out":false,"dwell_time":97.7529296875,"response_time":1675728415841.84},{"trial":4,"action":1,"button_pressed":4,"time_out":false,"dwell_time":98.756103515625,"response_time":1675728416225.74},{"trial":4,"action":1,"button_pressed":2,"time_out":false,"dwell_time":98.655029296875,"response_time":1675728416692.31},{"trial":4,"action":1,"button_pressed":9,"time_out":false,"dwell_time":48.298095703125,"response_time":1675728416958.58},{"trial":4,"action":9,"button_pressed":-1,"time_out":false,"dwell_time":47.85791015625,"response_time":1675728417658.67},{"trial":5,"action":1,"button_pressed":10,"time_out":false,"dwell_time":64.39501953125,"response_time":1675728434753.1},{"trial":5,"action":1,"button_pressed":2,"time_out":false,"dwell_time":64.369140625,"response_time":1675728435136.17},{"trial":5,"action":1,"button_pressed":9,"time_out":false,"dwell_time":64.425048828125,"response_time":1675728435435.52},{"trial":5,"action":1,"button_pressed":5,"time_out":false,"dwell_time":48.031982421875,"response_time":1675728435785.92},{"trial":5,"action":1,"button_pressed":11,"time_out":false,"dwell_time":81.866943359375,"response_time":1675728436135.99},{"trial":5,"action":1,"button_pressed":0,"time_out":false,"dwell_time":81.966064453125,"response_time":1675728436436.01},{"trial":5,"action":9,"button_pressed":-1,"time_out":false,"dwell_time":47.718994140625,"response_time":1675728437069.14},{"trial":6,"action":1,"button_pressed":7,"time_out":false,"dwell_time":48.057861328125,"response_time":1675728456762.56},{"trial":6,"action":1,"button_pressed":11,"time_out":false,"dwell_time":81.475830078125,"response_time":1675728457195.99},{"trial":6,"action":1,"button_pressed":0,"time_out":false,"dwell_time":64.487060546875,"response_time":1675728457762.51},{"trial":6,"action":1,"button_pressed":3,"time_out":false,"dwell_time":81.951904296875,"response_time":1675728458212.24},{"trial":6,"action":1,"button_pressed":9,"time_out":false,"dwell_time":63.7919921875,"response_time":1675728458628.67},{"trial":6,"action":1,"button_pressed":5,"time_out":false,"dwell_time":65.054931640625,"response_time":1675728459161.78},{"trial":6,"action":1,"button_pressed":6,"time_out":false,"dwell_time":64.988037109375,"response_time":1675728459611.7},{"trial":6,"action":9,"button_pressed":-1,"time_out":false,"dwell_time":64.9609375,"response_time":1675728460278.08},{"trial":7,"action":1,"button_pressed":5,"time_out":false,"dwell_time":81.141845703125,"response_time":1675728482370.79},{"trial":7,"action":1,"button_pressed":4,"time_out":false,"dwell_time":63.66015625,"response_time":1675728483253.59},{"trial":7,"action":1,"button_pressed":11,"time_out":false,"dwell_time":64.40087890625,"response_time":1675728483720.12},{"trial":7,"action":1,"button_pressed":6,"time_out":false,"dwell_time":64.85205078125,"response_time":1675728484120.37},{"trial":7,"action":1,"button_pressed":1,"time_out":false,"dwell_time":115,"response_time":1675728484570.46},{"trial":7,"action":1,"button_pressed":8,"time_out":false,"dwell_time":80.657958984375,"response_time":1675728485502.73},{"trial":7,"action":1,"button_pressed":7,"time_out":false,"dwell_time":64.8798828125,"response_time":1675728486203.39},{"trial":7,"action":1,"button_pressed":0,"time_out":false,"dwell_time":48.109130859375,"response_time":1675728486886.81},{"trial":7,"action":9,"button_pressed":-1,"time_out":false,"dwell_time":64.119873046875,"response_time":1675728487952.51},{"trial":8,"action":1,"button_pressed":6,"time_out":false,"dwell_time":64.47509765625,"response_time":1675728510028.41},{"trial":8,"action":1,"button_pressed":3,"time_out":false,"dwell_time":47.510986328125,"response_time":1675728510495.29},{"trial":8,"action":1,"button_pressed":5,"time_out":false,"dwell_time":48.072021484375,"response_time":1675728511345.62},{"trial":8,"action":1,"button_pressed":0,"time_out":false,"dwell_time":64.6279296875,"response_time":1675728511644.41},{"trial":8,"action":1,"button_pressed":10,"time_out":false,"dwell_time":81.31201171875,"response_time":1675728513394.44},{"trial":8,"action":1,"button_pressed":8,"time_out":false,"dwell_time":79.721923828125,"response_time":1675728516942.31},{"trial":8,"action":1,"button_pressed":7,"time_out":false,"dwell_time":81.06494140625,"response_time":1675728517559.26},{"trial":8,"action":1,"button_pressed":1,"time_out":false,"dwell_time":81.162841796875,"response_time":1675728518309.77},{"trial":8,"action":9,"button_pressed":-1,"time_out":false,"dwell_time":66.60205078125,"response_time":1675728519527.45},{"trial":9,"action":1,"button_pressed":8,"time_out":false,"dwell_time":81.577880859375,"response_time":1675728536936.69},{"trial":9,"action":1,"button_pressed":11,"time_out":false,"dwell_time":81.031982421875,"response_time":1675728537420.28},{"trial":9,"action":1,"button_pressed":4,"time_out":false,"dwell_time":81.23095703125,"response_time":1675728538220.11},{"trial":9,"action":1,"button_pressed":6,"time_out":false,"dwell_time":80.949951171875,"response_time":1675728538586.47},{"trial":9,"action":1,"button_pressed":1,"time_out":false,"dwell_time":64.362060546875,"response_time":1675728538919.6},{"trial":9,"action":1,"button_pressed":10,"time_out":false,"dwell_time":64.262939453125,"response_time":1675728539286.16},{"trial":9,"action":9,"button_pressed":-1,"time_out":false,"dwell_time":81.280029296875,"response_time":1675728539919.59},{"trial":10,"action":1,"button_pressed":5,"time_out":false,"dwell_time":81.93896484375,"response_time":1675728556980.72},{"trial":10,"action":1,"button_pressed":10,"time_out":false,"dwell_time":64.68505859375,"response_time":1675728557480.29},{"trial":10,"action":1,"button_pressed":7,"time_out":false,"dwell_time":63.805908203125,"response_time":1675728558162.94},{"trial":10,"action":1,"button_pressed":4,"time_out":false,"dwell_time":64.2548828125,"response_time":1675728558679.85},{"trial":10,"action":1,"button_pressed":0,"time_out":false,"dwell_time":64.606201171875,"response_time":1675728559113.34},{"trial":10,"action":1,"button_pressed":8,"time_out":false,"dwell_time":64.470947265625,"response_time":1675728559446.62},{"trial":10,"action":9,"button_pressed":-1,"time_out":false,"dwell_time":64.969970703125,"response_time":1675728559979.33},{"trial":11,"action":1,"button_pressed":1,"time_out":false,"dwell_time":63.6630859375,"response_time":1675728579289.51},{"trial":11,"action":1,"button_pressed":9,"time_out":false,"dwell_time":80.9638671875,"response_time":1675728579706.49},{"trial":11,"action":1,"button_pressed":7,"time_out":false,"dwell_time":64.340087890625,"response_time":1675728580072.45},{"trial":11,"action":1,"button_pressed":2,"time_out":false,"dwell_time":47.5390625,"response_time":1675728580672.78},{"trial":11,"action":1,"button_pressed":5,"time_out":false,"dwell_time":65.088134765625,"response_time":1675728581039.52},{"trial":11,"action":1,"button_pressed":11,"time_out":false,"dwell_time":81.007080078125,"response_time":1675728582088.61},{"trial":11,"action":1,"button_pressed":6,"time_out":false,"dwell_time":47.635986328125,"response_time":1675728582856.12},{"trial":11,"action":9,"button_pressed":-1,"time_out":false,"dwell_time":80.929931640625,"response_time":1675728583838.48},{"trial":12,"action":1,"button_pressed":8,"time_out":false,"dwell_time":64.447998046875,"response_time":1675728603181.86},{"trial":12,"action":1,"button_pressed":5,"time_out":false,"dwell_time":65.2939453125,"response_time":1675728603682.26},{"trial":12,"action":1,"button_pressed":6,"time_out":false,"dwell_time":63.776123046875,"response_time":1675728606497.43},{"trial":12,"action":1,"button_pressed":3,"time_out":false,"dwell_time":81.886962890625,"response_time":1675728606997.94},{"trial":12,"action":1,"button_pressed":0,"time_out":false,"dwell_time":97.998046875,"response_time":1675728607730.27},{"trial":12,"action":1,"button_pressed":4,"time_out":false,"dwell_time":47.765869140625,"response_time":1675728607963.99},{"trial":12,"action":1,"button_pressed":11,"time_out":false,"dwell_time":48.175048828125,"response_time":1675728608581.03},{"trial":12,"action":9,"button_pressed":-1,"time_out":false,"dwell_time":64.858154296875,"response_time":1675728609230.3}]}