{"meta_data":{"additional_headers":{},"game_name":"Recollect","version":"2.53.01","user_name":"7","organization":"braingamecenter","study":"mpl2_2022_11","session_number":0,"device_id":"74342D95-EE82-45E3-8ADF-48FB3203C5DD"},"data":[{"stage":"Practice","trial":0,"sequence":"6F","letter_input":"F","number_input":"6","is_correct":true,"presentation_start_time":1675728641401.88,"presentation_end_time":1675728644402.3,"response_time":1675728655483.98},{"stage":"Practice","trial":1,"sequence":"G4","letter_input":"G","number_input":"4","is_correct":true,"presentation_start_time":1675728657013.51,"presentation_end_time":1675728660013.75,"response_time":1675728664544.5},{"stage":"Practice","trial":2,"sequence":"3W5","letter_input":"W","number_input":"35","is_correct":true,"presentation_start_time":1675728666077.22,"presentation_end_time":1675728670577.08,"response_time":1675728675940.82},{"stage":"Practice","trial":3,"sequence":"T7L","letter_input":"LT","number_input":"7","is_correct":true,"presentation_start_time":1675728677473.53,"presentation_end_time":1675728681973.44,"response_time":1675728695684.46},{"stage":"Practice","trial":4,"sequence":"9J1","letter_input":"J","number_input":"19","is_correct":true,"presentation_start_time":1675728697217.18,"presentation_end_time":1675728701717.05,"response_time":1675728707847.25},{"stage":"Calibration","trial":0,"sequence":"9S","letter_input":"S","number_input":"9","is_correct":true,"presentation_start_time":1675728715444.71,"presentation_end_time":1675728718444.98,"response_time":1675728722659.15},{"stage":"Calibration","trial":1,"sequence":"T6","letter_input":"T","number_input":"6","is_correct":true,"presentation_start_time":1675728724191.91,"presentation_end_time":1675728727192.14,"response_time":1675728731739.52},{"stage":"Calibration","trial":2,"sequence":"8M4","letter_input":"M","number_input":"48","is_correct":true,"presentation_start_time":1675728733272.33,"presentation_end_time":1675728737772.13,"response_time":1675728741619.74},{"stage":"Calibration","trial":3,"sequence":"Z2R","letter_input":"RZ","number_input":"2","is_correct":true,"presentation_start_time":1675728743152.51,"presentation_end_time":1675728747652.33,"response_time":1675728752999.38},{"stage":"Calibration","trial":4,"sequence":"7W4C","letter_input":"CW","number_input":"47","is_correct":true,"presentation_start_time":1675728754532.1,"presentation_end_time":1675728760531.42,"response_time":1675728769144.21},{"stage":"Calibration","trial":5,"sequence":"M5A2","letter_input":"AM","number_input":"25","is_correct":true,"presentation_start_time":1675728770676.92,"presentation_end_time":1675728776676.28,"response_time":1675728788854.57},{"stage":"Calibration","trial":6,"sequence":"6J4F9","letter_input":"FJ","number_input":"469","is_correct":true,"presentation_start_time":1675728790387.35,"presentation_end_time":1675728797886.15,"response_time":1675728828841.66},{"stage":"Calibration","trial":7,"sequence":"M8B1P","letter_input":"BMP","number_input":"18","is_correct":true,"presentation_start_time":1675728830374.45,"presentation_end_time":1675728837873.3,"response_time":1675728858015.64},{"stage":"Calibration","trial":8,"sequence":"4G9S7N","letter_input":"G","number_input":"47","is_correct":false,"presentation_start_time":1675728859548.42,"presentation_end_time":1675728868546.67,"response_time":1675728889088.99},{"stage":"Calibration","trial":9,"sequence":"Q6E1C8","letter_input":"CQ","number_input":"168","is_correct":false,"presentation_start_time":1675728890621.67,"presentation_end_time":1675728899619.98,"response_time":1675728911315.15}]}