Audio_Only_Files,Video_Files,Original_Word_List,noiseLevelCode,conditionCodes,noiseLevelFile1,noiseLevelFile2,InstrTextVar,practiceTrials.thisRepN,practiceTrials.thisTrialN,practiceTrials.thisN,practiceTrials.thisIndex,trials.thisRepN,trials.thisTrialN,trials.thisN,trials.thisIndex,letsGoAlready.keys,letsGoAlready.rt,letsGoAlready.started,letsGoAlready.stopped,text_2.started,text_2.stopped,text_3.started,text_3.stopped,key_resp_2.keys,key_resp_2.rt,key_resp_2.started,key_resp_2.stopped,text_5.started,text_5.stopped,fixCross.started,fixCross.stopped,fixCross2.started,fixCross2.stopped,answerPrompt.started,answerPrompt.stopped,getAnswer.text,getAnswer.started,getAnswer.stopped,goToNext.keys,goToNext.rt,goToNext.started,goToNext.stopped,stretchBreakTxrt.started,stretchBreakTxrt.stopped,key_resp_3.keys,key_resp_3.rt,key_resp_3.started,key_resp_3.stopped,participant,session,date,expName,psychopyVersion,frameRate,
,,,,,,,,,,,,,,,,space,1.196842537028715,7.715447164024226,None,,,,,,,,,,,,,,,,,,,,,,,,,,,,,,7,001,2022_Nov_10_1435,SpeechDraft1Carolyn_lessNoise,2021.2.3,59.874210853024714,
,,,,,,,,,,,,,,,,,,,,7.715447164024226,None,8.932057922997046,None,space,0.24540701799560338,9.098929323023185,None,,,,,,,,,,,,,,,,,,,,,,7,001,2022_Nov_10_1435,SpeechDraft1Carolyn_lessNoise,2021.2.3,59.874210853024714,
ash.wav,ash.mpg,ash,1,A,Pink_Noise_1_1.wav,Pink_Noise_1_2.wav,"This is an example of an

AUDIO trial",0,0,0,0,,,,,,,,,,,,,,,,,9.398317883023992,None,10.382322442019358,None,12.515376201015897,None,13.915077351033688,None,"ash
",13.915077351033688,None,return,12.433353283035103,13.999011420994066,None,,,,,,,7,001,2022_Nov_10_1435,SpeechDraft1Carolyn_lessNoise,2021.2.3,59.874210853024714,
ash.wav,ash.mpg,ash,1,AV,Pink_Noise_1_1.wav,Pink_Noise_1_2.wav,"This is an example of an

AUDIO + VIDEO  trial",0,1,1,1,,,,,,,,,,,,,,,,,26.4815940100234,None,27.482096794003155,None,28.981854451005347,None,30.365472951030824,None,ash,30.365472951030824,None,return,3.4954144739895128,30.448925368022174,None,,,,,,,7,001,2022_Nov_10_1435,SpeechDraft1Carolyn_lessNoise,2021.2.3,59.874210853024714,
,,,,,,,,,,,,,,,,,,,,,,,,,,,,,,,,,,,,,,,,,,,33.98179563198937,None,space,10.731268592004199,34.16510422702413,None,7,001,2022_Nov_10_1435,SpeechDraft1Carolyn_lessNoise,2021.2.3,59.874210853024714,
shock.wav,shock.mpg,shock,3,A,Pink_Noise_3_1.wav,Pink_Noise_3_2.wav,,,,,,0,0,0,56,,,,,,,,,,,,,,,44.948000262025744,None,46.48194956599036,None,47.84875204402488,None,shock,47.84875204402488,None,return,4.563758058997337,47.93266367499018,None,,,,,,,7,001,2022_Nov_10_1435,SpeechDraft1Carolyn_lessNoise,2021.2.3,59.874210853024714,
glass.wav,glass.mpg,glass,6,A,Pink_Noise_6_1.wav,Pink_Noise_6_2.wav,,,,,,0,1,1,9,,,,,,,,,,,,,,,52.51581376499962,None,54.03166512103053,None,55.41570478997892,None,play,55.41570478997892,None,return,6.293519939004909,55.49877474998357,None,,,,,,,7,001,2022_Nov_10_1435,SpeechDraft1Carolyn_lessNoise,2021.2.3,59.874210853024714,
farm.wav,farm.mpg,farm,4,A,Pink_Noise_4_1.wav,Pink_Noise_4_2.wav,,,,,,0,2,2,44,,,,,,,,,,,,,,,61.81583941302961,None,63.332199095981196,None,64.71525988198118,None,far,64.71525988198118,None,return,5.961607114004437,64.79875673598144,None,,,,,,,7,001,2022_Nov_10_1435,SpeechDraft1Carolyn_lessNoise,2021.2.3,59.874210853024714,
awe.wav,awe.mpg,awe,4,AV,Pink_Noise_4_1.wav,Pink_Noise_4_2.wav,,,,,,0,3,3,86,,,,,,,,,,,,,,,70.78252260701265,None,72.33136306802044,None,73.71589720499469,None,are,73.71589720499469,None,return,3.793391777027864,73.79897497902857,None,,,,,,,7,001,2022_Nov_10_1435,SpeechDraft1Carolyn_lessNoise,2021.2.3,59.874210853024714,
clap.wav,clap.mpg,clap,5,A,Pink_Noise_5_1.wav,Pink_Noise_5_2.wav,,,,,,0,4,4,6,,,,,,,,,,,,,,,77.61568146001082,None,79.19883789401501,None,80.58225716702873,None,class,80.58225716702873,None,return,3.6231079419958405,80.66530161700211,None,,,,,,,7,001,2022_Nov_10_1435,SpeechDraft1Carolyn_lessNoise,2021.2.3,59.874210853024714,
claim.wav,claim.mpg,claim,1,A,Pink_Noise_1_1.wav,Pink_Noise_1_2.wav,,,,,,0,5,5,52,,,,,,,,,,,,,,,84.31530489400029,None,85.84860894503072,None,87.23236701101996,None,claim,87.23236701101996,None,return,4.532770432007965,87.31563101999927,None,,,,,,,7,001,2022_Nov_10_1435,SpeechDraft1Carolyn_lessNoise,2021.2.3,59.874210853024714,
gulf.wav,gulf.mpg,gulf,2,A,Pink_Noise_2_1.wav,Pink_Noise_2_2.wav,,,,,,0,6,6,27,,,,,,,,,,,,,,,91.86546686198562,None,93.41562309802976,None,94.79932899802225,None,"ghost
",94.79932899802225,None,return,4.670154748018831,94.88216944498708,None,,,,,,,7,001,2022_Nov_10_1435,SpeechDraft1Carolyn_lessNoise,2021.2.3,59.874210853024714,
bible.wav,bible.mpg,bible,4,AV,Pink_Noise_4_1.wav,Pink_Noise_4_2.wav,,,,,,0,7,7,83,,,,,,,,,,,,,,,99.58226725098211,None,101.11583589098882,None,102.49901864200365,None,bible,102.49901864200365,None,return,2.730432272015605,102.58192816301016,None,,,,,,,7,001,2022_Nov_10_1435,SpeechDraft1Carolyn_lessNoise,2021.2.3,59.874210853024714,
grape.wav,grape.mpg,grape,6,A,Pink_Noise_6_1.wav,Pink_Noise_6_2.wav,,,,,,0,8,8,10,,,,,,,,,,,,,,,105.33226029598154,None,106.8488219580031,None,108.21485575300176,None,grace,108.21485575300176,None,return,5.733483807009179,108.29888260201551,None,,,,,,,7,001,2022_Nov_10_1435,SpeechDraft1Carolyn_lessNoise,2021.2.3,59.874210853024714,
bail.wav,bail.mpg,bail,5,A,Pink_Noise_5_1.wav,Pink_Noise_5_2.wav,,,,,,0,9,9,24,,,,,,,,,,,,,,,114.04860358702717,None,115.56521473202156,None,116.94845345400972,None,"dare
",116.94845345400972,None,return,8.384006325039081,117.03233843197813,None,,,,,,,7,001,2022_Nov_10_1435,SpeechDraft1Carolyn_lessNoise,2021.2.3,59.874210853024714,
grace.wav,grace.mpg,grace,6,AV,Pink_Noise_6_1.wav,Pink_Noise_6_2.wav,,,,,,0,10,10,103,,,,,,,,,,,,,,,125.44848294497933,None,126.99918703502044,None,128.3651143030147,None,trace,128.3651143030147,None,return,7.047306889027823,128.44912734098034,None,,,,,,,7,001,2022_Nov_10_1435,SpeechDraft1Carolyn_lessNoise,2021.2.3,59.874210853024714,
bad.wav,bad.mpg,bad,2,AV,Pink_Noise_2_1.wav,Pink_Noise_2_2.wav,,,,,,0,11,11,69,,,,,,,,,,,,,,,135.51564332499402,None,137.0480009780149,None,138.4319885619916,None,bed,138.4319885619916,None,return,6.748776816006284,138.51563460601028,None,,,,,,,7,001,2022_Nov_10_1435,SpeechDraft1Carolyn_lessNoise,2021.2.3,59.874210853024714,
fetch.wav,fetch.mpg,fetch,5,A,Pink_Noise_5_1.wav,Pink_Noise_5_2.wav,,,,,,0,12,12,58,,,,,,,,,,,,,,,145.28236982302042,None,146.84911704598926,None,148.23235393501818,None,"touch
",148.23235393501818,None,return,3.0522839459590614,148.31605011498323,None,,,,,,,7,001,2022_Nov_10_1435,SpeechDraft1Carolyn_lessNoise,2021.2.3,59.874210853024714,
bib.wav,bib.mpg,bib,6,AV,Pink_Noise_6_1.wav,Pink_Noise_6_2.wav,,,,,,0,13,13,112,,,,,,,,,,,,,,,151.39936978300102,None,152.91476503602462,None,154.29895739798667,None,bay,154.29895739798667,None,return,18.11423967697192,154.382150045014,None,,,,,,,7,001,2022_Nov_10_1435,SpeechDraft1Carolyn_lessNoise,2021.2.3,59.874210853024714,
cow.wav,cow.mpg,cow,1,AV,Pink_Noise_1_1.wav,Pink_Noise_1_2.wav,,,,,,0,14,14,110,,,,,,,,,,,,,,,172.5157213769853,None,174.03167959401617,None,175.4161434060079,None,cow,175.4161434060079,None,return,4.260744536004495,175.49953790102154,None,,,,,,,7,001,2022_Nov_10_1435,SpeechDraft1Carolyn_lessNoise,2021.2.3,59.874210853024714,
fable.wav,fable.mpg,fable,2,AV,Pink_Noise_2_1.wav,Pink_Noise_2_2.wav,,,,,,0,15,15,96,,,,,,,,,,,,,,,179.7826435730094,None,181.29927981400397,None,182.6825632560067,None,"favor
",182.6825632560067,None,return,13.851123441010714,182.76519378297962,None,,,,,,,7,001,2022_Nov_10_1435,SpeechDraft1Carolyn_lessNoise,2021.2.3,59.874210853024714,
card.wav,card.mpg,card,1,AV,Pink_Noise_1_1.wav,Pink_Noise_1_2.wav,,,,,,0,16,16,119,,,,,,,,,,,,,,,196.6492074939888,None,198.18184352101525,None,199.56544109300012,None,card,199.56544109300012,None,return,2.6629318579798564,199.64940779999597,None,,,,,,,7,001,2022_Nov_10_1435,SpeechDraft1Carolyn_lessNoise,2021.2.3,59.874210853024714,
duck.wav,duck.mpg,duck,1,AV,Pink_Noise_1_1.wav,Pink_Noise_1_2.wav,,,,,,0,17,17,76,,,,,,,,,,,,,,,202.33237888501026,None,203.8486578980228,None,205.23260617500637,None,duck,205.23260617500637,None,return,2.028588449000381,205.31576236197725,None,,,,,,,7,001,2022_Nov_10_1435,SpeechDraft1Carolyn_lessNoise,2021.2.3,59.874210853024714,
cop.wav,cop.mpg,cop,1,AV,Pink_Noise_1_1.wav,Pink_Noise_1_2.wav,,,,,,0,18,18,82,,,,,,,,,,,,,,,207.3656018570182,None,208.88244811201002,None,210.2491227000137,None,cup,210.2491227000137,None,return,3.0438300470123067,210.3325279210112,None,,,,,,,7,001,2022_Nov_10_1435,SpeechDraft1Carolyn_lessNoise,2021.2.3,59.874210853024714,
croak.wav,croak.mpg,croak,2,A,Pink_Noise_2_1.wav,Pink_Noise_2_2.wav,,,,,,0,19,19,36,,,,,,,,,,,,,,,213.39931008202257,None,214.91567432699958,None,216.29890986002283,None,"crate
",216.29890986002283,None,return,36.017681550991256,216.38264952902682,None,,,,,,,7,001,2022_Nov_10_1435,SpeechDraft1Carolyn_lessNoise,2021.2.3,59.874210853024714,
chin.wav,chin.mpg,chin,3,A,Pink_Noise_3_1.wav,Pink_Noise_3_2.wav,,,,,,0,20,20,4,,,,,,,,,,,,,,,252.43190721300198,None,253.98167969699716,None,255.36605685699033,None,chef,255.36605685699033,None,return,10.01536193001084,255.4491220189957,None,,,,,,,7,001,2022_Nov_10_1435,SpeechDraft1Carolyn_lessNoise,2021.2.3,59.874210853024714,
cuff.wav,cuff.mpg,cuff,3,AV,Pink_Noise_3_1.wav,Pink_Noise_3_2.wav,,,,,,0,21,21,66,,,,,,,,,,,,,,,265.48243876500055,None,266.99885447201086,None,268.38220211397856,None,cost,268.38220211397856,None,return,3.4062912489753217,268.46613874600735,None,,,,,,,7,001,2022_Nov_10_1435,SpeechDraft1Carolyn_lessNoise,2021.2.3,59.874210853024714,
shed.wav,shed.mpg,shed,2,A,Pink_Noise_2_1.wav,Pink_Noise_2_2.wav,,,,,,0,22,22,1,,,,,,,,,,,,,,,271.8993160619866,None,273.39927494100993,None,274.78256659099134,None,shed,274.78256659099134,None,return,2.998869590985123,274.865597637021,None,,,,,,,7,001,2022_Nov_10_1435,SpeechDraft1Carolyn_lessNoise,2021.2.3,59.874210853024714,
crowd.wav,crowd.mpg,crowd,3,AV,Pink_Noise_3_1.wav,Pink_Noise_3_2.wav,,,,,,0,23,23,118,,,,,,,,,,,,,,,277.88246213598177,None,279.4158086440293,None,280.7992225679918,None,crowd,280.7992225679918,None,return,4.621883163054008,280.882560189988,None,,,,,,,7,001,2022_Nov_10_1435,SpeechDraft1Carolyn_lessNoise,2021.2.3,59.874210853024714,
bed.wav,bed.mpg,bed,6,A,Pink_Noise_6_1.wav,Pink_Noise_6_2.wav,,,,,,0,24,24,26,,,,,,,,,,,,,,,285.531885607983,None,287.0488774779951,None,288.4152964579989,None,thank,288.4152964579989,None,return,10.389773250964936,288.49864668701775,None,,,,,,,7,001,2022_Nov_10_1435,SpeechDraft1Carolyn_lessNoise,2021.2.3,59.874210853024714,
blond.wav,blond.mpg,blond,2,A,Pink_Noise_2_1.wav,Pink_Noise_2_2.wav,,,,,,0,25,25,42,,,,,,,,,,,,,,,298.9154815240181,None,300.46601141802967,None,301.8489439120167,None,blood,301.8489439120167,None,return,2.763311570044607,301.9330770050292,None,,,,,,,7,001,2022_Nov_10_1435,SpeechDraft1Carolyn_lessNoise,2021.2.3,59.874210853024714,
thorn.wav,thorn.mpg,thorn,3,A,Pink_Noise_3_1.wav,Pink_Noise_3_2.wav,,,,,,0,26,26,47,,,,,,,,,,,,,,,304.715579479991,None,306.21601750701666,None,307.59953074197983,None,dorm,307.59953074197983,None,return,2.445543864974752,307.68278743402334,None,,,,,,,7,001,2022_Nov_10_1435,SpeechDraft1Carolyn_lessNoise,2021.2.3,59.874210853024714,
strike.wav,strike.mpg,strike,1,AV,Pink_Noise_1_1.wav,Pink_Noise_1_2.wav,,,,,,0,27,27,68,,,,,,,,,,,,,,,310.14956754702143,None,311.64928538899403,None,313.0326115540229,None,"strike
",313.0326115540229,None,return,3.8358943429775536,313.11643495300086,None,,,,,,,7,001,2022_Nov_10_1435,SpeechDraft1Carolyn_lessNoise,2021.2.3,59.874210853024714,
brag.wav,brag.mpg,brag,2,AV,Pink_Noise_2_1.wav,Pink_Noise_2_2.wav,,,,,,0,28,28,89,,,,,,,,,,,,,,,316.98294777801493,None,318.5330653830315,None,319.9158274870133,None,"brag
",319.9158274870133,None,return,3.985227717028465,319.99910453602206,None,,,,,,,7,001,2022_Nov_10_1435,SpeechDraft1Carolyn_lessNoise,2021.2.3,59.874210853024714,
fed.wav,fed.mpg,fed,5,A,Pink_Noise_5_1.wav,Pink_Noise_5_2.wav,,,,,,0,29,29,33,,,,,,,,,,,,,,,324.0154105310212,None,325.5327725249808,None,326.9159401769866,None,"bath
",326.9159401769866,None,return,9.616859628004022,326.99947043601424,None,,,,,,,7,001,2022_Nov_10_1435,SpeechDraft1Carolyn_lessNoise,2021.2.3,59.874210853024714,
vest.wav,vest.mpg,vest,2,A,Pink_Noise_2_1.wav,Pink_Noise_2_2.wav,,,,,,0,30,30,18,,,,,,,,,,,,,,,336.6491283309879,None,338.1487173259957,None,339.5329465550021,None,best,339.5329465550021,None,return,2.4727027519838884,339.6157519550179,None,,,,,,,7,001,2022_Nov_10_1435,SpeechDraft1Carolyn_lessNoise,2021.2.3,59.874210853024714,
chef.wav,chef.mpg,chef,2,AV,Pink_Noise_2_1.wav,Pink_Noise_2_2.wav,,,,,,0,31,31,67,,,,,,,,,,,,,,,342.11530817102175,None,343.64915082399966,None,345.0325979120098,None,chef,345.0325979120098,None,return,2.3163292120443657,345.116074029007,None,,,,,,,7,001,2022_Nov_10_1435,SpeechDraft1Carolyn_lessNoise,2021.2.3,59.874210853024714,
chip.wav,chip.mpg,chip,6,AV,Pink_Noise_6_1.wav,Pink_Noise_6_2.wav,,,,,,0,32,32,98,,,,,,,,,,,,,,,347.44924819201697,None,348.9661624589935,None,350.3493101670174,None,chip,350.3493101670174,None,return,2.488070758001413,350.4322759300121,None,,,,,,,7,001,2022_Nov_10_1435,SpeechDraft1Carolyn_lessNoise,2021.2.3,59.874210853024714,
fifth.wav,fifth.mpg,fifth,2,AV,Pink_Noise_2_1.wav,Pink_Noise_2_2.wav,,,,,,0,33,33,60,,,,,,,,,,,,,,,352.9493974830257,None,354.4655546799768,None,355.849221787008,None,"faith
",355.849221787008,None,return,5.603815943002701,355.9325169019867,None,,,,,,,7,001,2022_Nov_10_1435,SpeechDraft1Carolyn_lessNoise,2021.2.3,59.874210853024714,
damp.wav,damp.mpg,damp,3,A,Pink_Noise_3_1.wav,Pink_Noise_3_2.wav,,,,,,0,34,34,12,,,,,,,,,,,,,,,361.5659887990332,None,363.1159644770087,None,364.4995153970085,None,depth,364.4995153970085,None,return,2.481831300945487,364.5826367000118,None,,,,,,,7,001,2022_Nov_10_1435,SpeechDraft1Carolyn_lessNoise,2021.2.3,59.874210853024714,
gone.wav,gone.mpg,gone,2,AV,Pink_Noise_2_1.wav,Pink_Noise_2_2.wav,,,,,,0,35,35,64,,,,,,,,,,,,,,,367.0826089750044,None,368.5822550620069,None,369.96617692598375,None,gone,369.96617692598375,None,return,4.623307283036411,370.04904632398393,None,,,,,,,7,001,2022_Nov_10_1435,SpeechDraft1Carolyn_lessNoise,2021.2.3,59.874210853024714,
dig.wav,dig.mpg,dig,4,AV,Pink_Noise_4_1.wav,Pink_Noise_4_2.wav,,,,,,0,36,36,104,,,,,,,,,,,,,,,374.69915132201277,None,376.19928856601473,None,377.582466397027,None,day,377.582466397027,None,return,2.8222803249955177,377.66613783099456,None,,,,,,,7,001,2022_Nov_10_1435,SpeechDraft1Carolyn_lessNoise,2021.2.3,59.874210853024714,
broke.wav,broke.mpg,broke,1,AV,Pink_Noise_1_1.wav,Pink_Noise_1_2.wav,,,,,,0,37,37,63,,,,,,,,,,,,,,,380.51602244301466,None,382.03226655197795,None,383.4154983930057,None,broke,383.4154983930057,None,return,1.7490012650378048,383.4994081259938,None,,,,,,,7,001,2022_Nov_10_1435,SpeechDraft1Carolyn_lessNoise,2021.2.3,59.874210853024714,
fork.wav,fork.mpg,fork,6,A,Pink_Noise_6_1.wav,Pink_Noise_6_2.wav,,,,,,0,38,38,30,,,,,,,,,,,,,,,385.2656911180238,None,386.78211639699293,None,388.1659538500244,None,sport,388.1659538500244,None,return,6.198925095028244,388.24950089800404,None,,,,,,,7,001,2022_Nov_10_1435,SpeechDraft1Carolyn_lessNoise,2021.2.3,59.874210853024714,
base.wav,base.mpg,base,6,AV,Pink_Noise_6_1.wav,Pink_Noise_6_2.wav,,,,,,0,39,39,106,,,,,,,,,,,,,,,394.46608113503316,None,396.03228007798316,None,397.41554613102926,None,paste,397.41554613102926,None,return,4.196863436023705,397.4994859250146,None,,,,,,,7,001,2022_Nov_10_1435,SpeechDraft1Carolyn_lessNoise,2021.2.3,59.874210853024714,
cake.wav,cake.mpg,cake,4,A,Pink_Noise_4_1.wav,Pink_Noise_4_2.wav,,,,,,0,40,40,48,,,,,,,,,,,,,,,401.7157063439954,None,403.2321842270321,None,404.6162859949982,None,cake,404.6162859949982,None,return,1.789265041006729,404.69927565200487,None,,,,,,,7,001,2022_Nov_10_1435,SpeechDraft1Carolyn_lessNoise,2021.2.3,59.874210853024714,
bleed.wav,bleed.mpg,bleed,4,A,Pink_Noise_4_1.wav,Pink_Noise_4_2.wav,,,,,,0,41,41,57,,,,,,,,,,,,,,,406.51638805802213,None,408.0159458760172,None,409.3992859059945,None,"leaf
",409.3992859059945,None,return,2.9015125820296817,409.48281008302,None,,,,,,,7,001,2022_Nov_10_1435,SpeechDraft1Carolyn_lessNoise,2021.2.3,59.874210853024714,
blot.wav,blot.mpg,blot,5,AV,Pink_Noise_5_1.wav,Pink_Noise_5_2.wav,,,,,,0,42,42,105,,,,,,,,,,,,,,,412.41640328097856,None,413.9320046469802,None,415.3160851849825,None,"bright
",415.3160851849825,None,return,2.617274258984253,415.39898187998915,None,,,,,,,7,001,2022_Nov_10_1435,SpeechDraft1Carolyn_lessNoise,2021.2.3,59.874210853024714,
chew.wav,chew.mpg,chew,3,AV,Pink_Noise_3_1.wav,Pink_Noise_3_2.wav,,,,,,0,43,43,87,,,,,,,,,,,,,,,418.04875614400953,None,419.56574620702304,None,420.9489230060135,None,should,420.9489230060135,None,return,3.4556878639850765,421.0327442769776,None,,,,,,,7,001,2022_Nov_10_1435,SpeechDraft1Carolyn_lessNoise,2021.2.3,59.874210853024714,
brain.wav,brain.mpg,brain,1,AV,Pink_Noise_1_1.wav,Pink_Noise_1_2.wav,,,,,,0,44,44,109,,,,,,,,,,,,,,,424.5156140300096,None,426.01679285097634,None,427.3993005200173,None,"brain
",427.3993005200173,None,return,2.1340837439638563,427.482242433005,None,,,,,,,7,001,2022_Nov_10_1435,SpeechDraft1Carolyn_lessNoise,2021.2.3,59.874210853024714,
tear.wav,tear.mpg,tear,5,A,Pink_Noise_5_1.wav,Pink_Noise_5_2.wav,,,,,,0,45,45,23,,,,,,,,,,,,,,,429.64924676000373,None,431.16559632198187,None,432.5496629549889,None,problem,432.5496629549889,None,return,8.81577509699855,432.6326317029889,None,,,,,,,7,001,2022_Nov_10_1435,SpeechDraft1Carolyn_lessNoise,2021.2.3,59.874210853024714,
fit.wav,fit.mpg,fit,5,AV,Pink_Noise_5_1.wav,Pink_Noise_5_2.wav,,,,,,0,46,46,80,,,,,,,,,,,,,,,441.46591614198405,None,442.99958542501554,None,444.38217924599303,None,feast,444.38217924599303,None,return,8.470044068992138,444.4662798300269,None,,,,,,,7,001,2022_Nov_10_1435,SpeechDraft1Carolyn_lessNoise,2021.2.3,59.874210853024714,
gray.wav,gray.mpg,gray,3,A,Pink_Noise_3_1.wav,Pink_Noise_3_2.wav,,,,,,0,47,47,37,,,,,,,,,,,,,,,452.96542404103093,None,454.5001138540101,None,455.88240398297785,None,great,455.88240398297785,None,return,3.314356521004811,455.9659926259774,None,,,,,,,7,001,2022_Nov_10_1435,SpeechDraft1Carolyn_lessNoise,2021.2.3,59.874210853024714,
box.wav,box.mpg,box,5,AV,Pink_Noise_5_1.wav,Pink_Noise_5_2.wav,,,,,,0,48,48,99,,,,,,,,,,,,,,,459.29923486401094,None,460.81607054302003,None,462.19913715001894,None,bite,462.19913715001894,None,return,2.773472846020013,462.2829566739965,None,,,,,,,7,001,2022_Nov_10_1435,SpeechDraft1Carolyn_lessNoise,2021.2.3,59.874210853024714,
bottle.wav,bottle.mpg,bottle,4,A,Pink_Noise_4_1.wav,Pink_Noise_4_2.wav,,,,,,0,49,49,13,,,,,,,,,,,,,,,465.0824620699859,None,466.599495337985,None,467.9830092380289,None,bottle,467.9830092380289,None,return,3.1583303789957426,468.0660315169953,None,,,,,,,7,001,2022_Nov_10_1435,SpeechDraft1Carolyn_lessNoise,2021.2.3,59.874210853024714,
tank.wav,tank.mpg,tank,4,A,Pink_Noise_4_1.wav,Pink_Noise_4_2.wav,,,,,,0,50,50,34,,,,,,,,,,,,,,,471.2495712710079,None,472.7489061860251,None,474.13312411197694,None,pen,474.13312411197694,None,return,1.8801976389950141,474.21613729698583,None,,,,,,,7,001,2022_Nov_10_1435,SpeechDraft1Carolyn_lessNoise,2021.2.3,59.874210853024714,
chart.wav,chart.mpg,chart,2,A,Pink_Noise_2_1.wav,Pink_Noise_2_2.wav,,,,,,0,51,51,15,,,,,,,,,,,,,,,476.11651982797775,None,477.63246501999674,None,479.0156914870022,None,"chart
",479.0156914870022,None,return,2.7014531679451466,479.09886625100626,None,,,,,,,7,001,2022_Nov_10_1435,SpeechDraft1Carolyn_lessNoise,2021.2.3,59.874210853024714,
feast.wav,feast.mpg,feast,6,A,Pink_Noise_6_1.wav,Pink_Noise_6_2.wav,,,,,,0,52,52,21,,,,,,,,,,,,,,,481.8330711000017,None,483.34961632598424,None,484.7324692659895,None,beast,484.7324692659895,None,return,5.416801687970292,484.81565421802225,None,,,,,,,7,001,2022_Nov_10_1435,SpeechDraft1Carolyn_lessNoise,2021.2.3,59.874210853024714,
pact.wav,pact.mpg,pact,5,AV,Pink_Noise_5_1.wav,Pink_Noise_5_2.wav,,,,,,0,53,53,115,,,,,,,,,,,,,,,490.24885559797985,None,491.749078437977,None,493.13296600198373,None,pet,493.13296600198373,None,return,1.9282137770205736,493.2161406680243,None,,,,,,,7,001,2022_Nov_10_1435,SpeechDraft1Carolyn_lessNoise,2021.2.3,59.874210853024714,
coach.wav,coach.mpg,coach,1,A,Pink_Noise_1_1.wav,Pink_Noise_1_2.wav,,,,,,0,54,54,39,,,,,,,,,,,,,,,495.16594256903045,None,496.6995755429962,None,498.08230040897615,None,coach,498.08230040897615,None,return,15.977796736988239,498.166526090994,None,,,,,,,7,001,2022_Nov_10_1435,SpeechDraft1Carolyn_lessNoise,2021.2.3,59.874210853024714,
spire.wav,spire.mpg,spire,6,A,Pink_Noise_6_1.wav,Pink_Noise_6_2.wav,,,,,,0,55,55,14,,,,,,,,,,,,,,,514.1657777689979,None,515.7156186759821,None,517.099595925014,None,bible,517.099595925014,None,return,3.3612246210104786,517.1831384510151,None,,,,,,,7,001,2022_Nov_10_1435,SpeechDraft1Carolyn_lessNoise,2021.2.3,59.874210853024714,
dune.wav,dune.mpg,dune,3,AV,Pink_Noise_3_1.wav,Pink_Noise_3_2.wav,,,,,,0,56,56,78,,,,,,,,,,,,,,,520.5661393949995,None,522.0825204690336,None,523.4659140430158,None,due,523.4659140430158,None,return,2.610478852991946,523.5498670050292,None,,,,,,,7,001,2022_Nov_10_1435,SpeechDraft1Carolyn_lessNoise,2021.2.3,59.874210853024714,
fluent.wav,fluent.mpg,fluent,6,A,Pink_Noise_6_1.wav,Pink_Noise_6_2.wav,,,,,,0,57,57,49,,,,,,,,,,,,,,,526.1832652480225,None,527.6989330489887,None,529.0827557219891,None,lean,529.0827557219891,None,return,5.522158231004141,529.1662825940293,None,,,,,,,7,001,2022_Nov_10_1435,SpeechDraft1Carolyn_lessNoise,2021.2.3,59.874210853024714,
blank.wav,blank.mpg,blank,4,AV,Pink_Noise_4_1.wav,Pink_Noise_4_2.wav,,,,,,0,58,58,101,,,,,,,,,,,,,,,534.7163336410304,None,536.2327712589758,None,537.6163663900224,None,blight,537.6163663900224,None,return,4.325100269983523,537.6992391709937,None,,,,,,,7,001,2022_Nov_10_1435,SpeechDraft1Carolyn_lessNoise,2021.2.3,59.874210853024714,
den.wav,den.mpg,den,6,A,Pink_Noise_6_1.wav,Pink_Noise_6_2.wav,,,,,,0,59,59,7,,,,,,,,,,,,,,,542.0496317130164,None,543.5659917829907,None,544.9502137280069,None,dense,544.9502137280069,None,return,5.311114436015487,545.0332227930194,None,,,,,,,7,001,2022_Nov_10_1435,SpeechDraft1Carolyn_lessNoise,2021.2.3,59.874210853024714,
curl.wav,curl.mpg,curl,1,A,Pink_Noise_1_1.wav,Pink_Noise_1_2.wav,,,,,,0,60,60,3,,,,,,,,,,,,,,,550.3662793679978,None,551.8834032419836,None,553.2659239050117,None,crowl,553.2659239050117,None,return,10.84286668599816,553.3494625089807,None,,,,,,,7,001,2022_Nov_10_1435,SpeechDraft1Carolyn_lessNoise,2021.2.3,59.874210853024714,
leapt.wav,leapt.mpg,leapt,4,A,Pink_Noise_4_1.wav,Pink_Noise_4_2.wav,,,,,,0,61,61,25,,,,,,,,,,,,,,,564.2160291650216,None,565.7328475600225,None,567.0989671680145,None,left,567.0989671680145,None,return,2.1611577189760283,567.1831614029943,None,,,,,,,7,001,2022_Nov_10_1435,SpeechDraft1Carolyn_lessNoise,2021.2.3,59.874210853024714,
beach.wav,beach.mpg,beach,5,A,Pink_Noise_5_1.wav,Pink_Noise_5_2.wav,,,,,,0,62,62,11,,,,,,,,,,,,,,,569.3658015970141,None,570.8993214670336,None,572.2833802269888,None,inch,572.2833802269888,None,return,1.8740113630192354,572.3663562019938,None,,,,,,,7,001,2022_Nov_10_1435,SpeechDraft1Carolyn_lessNoise,2021.2.3,59.874210853024714,
wheat.wav,wheat.mpg,wheat,1,A,Pink_Noise_1_1.wav,Pink_Noise_1_2.wav,,,,,,0,63,63,8,,,,,,,,,,,,,,,574.266545623017,None,575.7831957829767,None,577.1664921820047,None,weight,577.1664921820047,None,return,2.7593320790329017,577.2490271379938,None,,,,,,,7,001,2022_Nov_10_1435,SpeechDraft1Carolyn_lessNoise,2021.2.3,59.874210853024714,
goat.wav,goat.mpg,goat,3,AV,Pink_Noise_3_1.wav,Pink_Noise_3_2.wav,,,,,,0,64,64,79,,,,,,,,,,,,,,,580.0331097010057,None,581.5493130640243,None,582.932598525018,None,"goat
",582.932598525018,None,return,2.1359266199870035,583.0164052839973,None,,,,,,,7,001,2022_Nov_10_1435,SpeechDraft1Carolyn_lessNoise,2021.2.3,59.874210853024714,
coil.wav,coil.mpg,coil,5,A,Pink_Noise_5_1.wav,Pink_Noise_5_2.wav,,,,,,0,65,65,46,,,,,,,,,,,,,,,585.182906053029,None,586.6998926840024,None,588.0831518199993,None,queen,588.0831518199993,None,return,2.290034230973106,588.1664527350222,None,,,,,,,7,001,2022_Nov_10_1435,SpeechDraft1Carolyn_lessNoise,2021.2.3,59.874210853024714,
gust.wav,gust.mpg,gust,6,AV,Pink_Noise_6_1.wav,Pink_Noise_6_2.wav,,,,,,0,66,66,100,,,,,,,,,,,,,,,590.4833504449925,None,591.9998021899955,None,593.3826143640326,None,dust,593.3826143640326,None,return,1.8785805759835057,593.465750036994,None,,,,,,,7,001,2022_Nov_10_1435,SpeechDraft1Carolyn_lessNoise,2021.2.3,59.874210853024714,
due.wav,due.mpg,due,2,AV,Pink_Noise_2_1.wav,Pink_Noise_2_2.wav,,,,,,0,67,67,102,,,,,,,,,,,,,,,595.3665722539881,None,596.8823709120043,None,598.2664167769835,None,due,598.2664167769835,None,return,1.7310284239938483,598.3494295889977,None,,,,,,,7,001,2022_Nov_10_1435,SpeechDraft1Carolyn_lessNoise,2021.2.3,59.874210853024714,
fad.wav,fad.mpg,fad,3,AV,Pink_Noise_3_1.wav,Pink_Noise_3_2.wav,,,,,,0,68,68,77,,,,,,,,,,,,,,,600.099549962033,None,601.6156681340071,None,602.9998217599932,None,fair,602.9998217599932,None,return,6.421614341961686,603.0827253279858,None,,,,,,,7,001,2022_Nov_10_1435,SpeechDraft1Carolyn_lessNoise,2021.2.3,59.874210853024714,
blame.wav,blame.mpg,blame,1,A,Pink_Noise_1_1.wav,Pink_Noise_1_2.wav,,,,,,0,69,69,17,,,,,,,,,,,,,,,609.5333180699963,None,611.0829677029978,None,612.4666811950156,None,blame,612.4666811950156,None,return,2.4745158510049805,612.5498726270162,None,,,,,,,7,001,2022_Nov_10_1435,SpeechDraft1Carolyn_lessNoise,2021.2.3,59.874210853024714,
lie.wav,lie.mpg,lie,5,AV,Pink_Noise_5_1.wav,Pink_Noise_5_2.wav,,,,,,0,70,70,88,,,,,,,,,,,,,,,615.0496766049764,None,616.5655348239816,None,617.9328826389974,None,;ife,617.9328826389974,None,return,3.240425672964193,618.0159860170097,None,,,,,,,7,001,2022_Nov_10_1435,SpeechDraft1Carolyn_lessNoise,2021.2.3,59.874210853024714,
flog.wav,flog.mpg,flog,3,AV,Pink_Noise_3_1.wav,Pink_Noise_3_2.wav,,,,,,0,71,71,73,,,,,,,,,,,,,,,621.2835993740009,None,622.7991900329944,None,624.183307675994,None,block,624.183307675994,None,return,3.1981966700404882,624.266167949012,None,,,,,,,7,001,2022_Nov_10_1435,SpeechDraft1Carolyn_lessNoise,2021.2.3,59.874210853024714,
pants.wav,pants.mpg,pants,6,AV,Pink_Noise_6_1.wav,Pink_Noise_6_2.wav,,,,,,0,72,72,74,,,,,,,,,,,,,,,627.4830338080064,None,628.982145928021,None,630.3664323390112,None,"pet
",630.3664323390112,None,return,2.3027038389700465,630.4496204030002,None,,,,,,,7,001,2022_Nov_10_1435,SpeechDraft1Carolyn_lessNoise,2021.2.3,59.874210853024714,
shrimp.wav,shrimp.mpg,shrimp,6,AV,Pink_Noise_6_1.wav,Pink_Noise_6_2.wav,,,,,,0,73,73,108,,,,,,,,,,,,,,,632.7823895399924,None,634.282557494007,None,635.6667561180075,None,shrimp,635.6667561180075,None,return,4.042529631988145,635.7497857330018,None,,,,,,,7,001,2022_Nov_10_1435,SpeechDraft1Carolyn_lessNoise,2021.2.3,59.874210853024714,
funk.wav,funk.mpg,funk,1,A,Pink_Noise_1_1.wav,Pink_Noise_1_2.wav,,,,,,0,74,74,28,,,,,,,,,,,,,,,639.8330045990297,None,641.3833289829781,None,642.7662640099879,None,funk,642.7662640099879,None,return,3.846310997963883,642.8500264799804,None,,,,,,,7,001,2022_Nov_10_1435,SpeechDraft1Carolyn_lessNoise,2021.2.3,59.874210853024714,
dive.wav,dive.mpg,dive,5,AV,Pink_Noise_5_1.wav,Pink_Noise_5_2.wav,,,,,,0,75,75,111,,,,,,,,,,,,,,,646.7165263339994,None,648.2324806739925,None,649.5995126970229,None,dive,649.5995126970229,None,return,4.3814731579623185,649.6829113200074,None,,,,,,,7,001,2022_Nov_10_1435,SpeechDraft1Carolyn_lessNoise,2021.2.3,59.874210853024714,
fuss.wav,fuss.mpg,fuss,5,A,Pink_Noise_5_1.wav,Pink_Noise_5_2.wav,,,,,,0,76,76,54,,,,,,,,,,,,,,,654.0833264859975,None,655.6163953790092,None,656.999390929006,None,boss,656.999390929006,None,return,4.604810972989071,657.0835750860278,None,,,,,,,7,001,2022_Nov_10_1435,SpeechDraft1Carolyn_lessNoise,2021.2.3,59.874210853024714,
drink.wav,drink.mpg,drink,1,AV,Pink_Noise_1_1.wav,Pink_Noise_1_2.wav,,,,,,0,77,77,85,,,,,,,,,,,,,,,661.7165833670297,None,663.2324230539962,None,664.6168220100226,None,"drink
",664.6168220100226,None,return,2.068567841022741,664.6997649989789,None,,,,,,,7,001,2022_Nov_10_1435,SpeechDraft1Carolyn_lessNoise,2021.2.3,59.874210853024714,
fail.wav,fail.mpg,fail,4,AV,Pink_Noise_4_1.wav,Pink_Noise_4_2.wav,,,,,,0,78,78,81,,,,,,,,,,,,,,,666.8000081399805,None,668.3159253670019,None,669.6990652289824,None,"fail
",669.6990652289824,None,return,5.537090933998115,669.7832378189778,None,,,,,,,7,001,2022_Nov_10_1435,SpeechDraft1Carolyn_lessNoise,2021.2.3,59.874210853024714,
bag.wav,bag.mpg,bag,4,A,Pink_Noise_4_1.wav,Pink_Noise_4_2.wav,,,,,,0,79,79,40,,,,,,,,,,,,,,,675.3496440959862,None,676.8667771390174,None,678.2495439600316,None,"bag
",678.2495439600316,None,return,1.6666604460333474,678.3336261389777,None,,,,,,,7,001,2022_Nov_10_1435,SpeechDraft1Carolyn_lessNoise,2021.2.3,59.874210853024714,
boil.wav,boil.mpg,boil,4,AV,Pink_Noise_4_1.wav,Pink_Noise_4_2.wav,,,,,,0,80,80,62,,,,,,,,,,,,,,,680.033167755988,None,681.5664862099802,None,682.932509293023,None,boil,682.932509293023,None,return,4.4476719130179845,683.0167533149943,None,,,,,,,7,001,2022_Nov_10_1435,SpeechDraft1Carolyn_lessNoise,2021.2.3,59.874210853024714,
bark.wav,bark.mpg,bark,6,AV,Pink_Noise_6_1.wav,Pink_Noise_6_2.wav,,,,,,0,81,81,107,,,,,,,,,,,,,,,687.4831160089816,None,689.0001633170177,None,690.3833080540062,None,bart,690.3833080540062,None,return,7.974094764969777,690.4661751060048,None,,,,,,,7,001,2022_Nov_10_1435,SpeechDraft1Carolyn_lessNoise,2021.2.3,59.874210853024714,
fill.wav,fill.mpg,fill,5,AV,Pink_Noise_5_1.wav,Pink_Noise_5_2.wav,,,,,,0,82,82,70,,,,,,,,,,,,,,,698.4661655179807,None,700.0164716970176,None,701.399533718999,None,feel,701.399533718999,None,return,4.941682709031738,701.4826356730191,None,,,,,,,7,001,2022_Nov_10_1435,SpeechDraft1Carolyn_lessNoise,2021.2.3,59.874210853024714,
bee.wav,bee.mpg,bee,3,A,Pink_Noise_3_1.wav,Pink_Noise_3_2.wav,,,,,,0,83,83,0,,,,,,,,,,,,,,,706.4498386600171,None,707.966169049032,None,709.3493978460319,None,easy,709.3493978460319,None,return,13.655759316985495,709.4326452370151,None,,,,,,,7,001,2022_Nov_10_1435,SpeechDraft1Carolyn_lessNoise,2021.2.3,59.874210853024714,
dice.wav,dice.mpg,dice,6,AV,Pink_Noise_6_1.wav,Pink_Noise_6_2.wav,,,,,,0,84,84,65,,,,,,,,,,,,,,,723.116336837993,None,724.6660670199781,None,726.0496919560246,None,dense,726.0496919560246,None,return,2.987033726007212,726.1332995429984,None,,,,,,,7,001,2022_Nov_10_1435,SpeechDraft1Carolyn_lessNoise,2021.2.3,59.874210853024714,
flu.wav,flu.mpg,flu,1,A,Pink_Noise_1_1.wav,Pink_Noise_1_2.wav,,,,,,0,85,85,5,,,,,,,,,,,,,,,729.150020674977,None,730.6657611720148,None,732.0497988800053,None,"flu
",732.0497988800053,None,return,6.251043122028932,732.1332776229829,None,,,,,,,7,001,2022_Nov_10_1435,SpeechDraft1Carolyn_lessNoise,2021.2.3,59.874210853024714,
truce.wav,truce.mpg,truce,4,A,Pink_Noise_4_1.wav,Pink_Noise_4_2.wav,,,,,,0,86,86,41,,,,,,,,,,,,,,,738.4167117479956,None,739.9332778960234,None,741.2999718040228,None,"truth
",741.2999718040228,None,return,6.600836786965374,741.3835066470201,None,,,,,,,7,001,2022_Nov_10_1435,SpeechDraft1Carolyn_lessNoise,2021.2.3,59.874210853024714,
slush.wav,slush.mpg,slush,1,AV,Pink_Noise_1_1.wav,Pink_Noise_1_2.wav,,,,,,0,87,87,114,,,,,,,,,,,,,,,748.0167759709875,None,749.5169206919963,None,750.9002486860263,None,"slash
",750.9002486860263,None,return,3.217313428991474,750.9830171060166,None,,,,,,,7,001,2022_Nov_10_1435,SpeechDraft1Carolyn_lessNoise,2021.2.3,59.874210853024714,
dump.wav,dump.mpg,dump,5,A,Pink_Noise_5_1.wav,Pink_Noise_5_2.wav,,,,,,0,88,88,22,,,,,,,,,,,,,,,754.232751086005,None,755.7832159969839,None,757.1664066340309,None,dark,757.1664066340309,None,return,2.526023277954664,757.2503148980322,None,,,,,,,7,001,2022_Nov_10_1435,SpeechDraft1Carolyn_lessNoise,2021.2.3,59.874210853024714,
fund.wav,fund.mpg,fund,5,AV,Pink_Noise_5_1.wav,Pink_Noise_5_2.wav,,,,,,0,89,89,72,,,,,,,,,,,,,,,759.7999011820066,None,761.315799553995,None,762.7004062670167,None,fast,762.7004062670167,None,return,4.6491639480227605,762.783343343006,None,,,,,,,7,001,2022_Nov_10_1435,SpeechDraft1Carolyn_lessNoise,2021.2.3,59.874210853024714,
feed.wav,feed.mpg,feed,4,AV,Pink_Noise_4_1.wav,Pink_Noise_4_2.wav,,,,,,0,90,90,117,,,,,,,,,,,,,,,767.4498572950251,None,768.9659773249878,None,770.3497378809843,None,feast,770.3497378809843,None,return,3.879413785994984,770.432878786989,None,,,,,,,7,001,2022_Nov_10_1435,SpeechDraft1Carolyn_lessNoise,2021.2.3,59.874210853024714,
buzz.wav,buzz.mpg,buzz,3,A,Pink_Noise_3_1.wav,Pink_Noise_3_2.wav,,,,,,0,91,91,43,,,,,,,,,,,,,,,774.3336415879894,None,775.8662603460252,None,777.2498604930006,None,bus,777.2498604930006,None,return,3.507108766993042,777.3333601719933,None,,,,,,,7,001,2022_Nov_10_1435,SpeechDraft1Carolyn_lessNoise,2021.2.3,59.874210853024714,
craft.wav,craft.mpg,craft,1,A,Pink_Noise_1_1.wav,Pink_Noise_1_2.wav,,,,,,0,92,92,53,,,,,,,,,,,,,,,780.866700477025,None,782.3833428689977,None,783.7669588020071,None,craft,783.7669588020071,None,return,9.150667108013295,783.8497539859964,None,,,,,,,7,001,2022_Nov_10_1435,SpeechDraft1Carolyn_lessNoise,2021.2.3,59.874210853024714,
blimp.wav,blimp.mpg,blimp,3,A,Pink_Noise_3_1.wav,Pink_Noise_3_2.wav,,,,,,0,93,93,35,,,,,,,,,,,,,,,793.0167530950275,None,794.5663233990199,None,795.9497676659958,None,"lip
",795.9497676659958,None,return,2.534943587030284,796.0334431889933,None,,,,,,,7,001,2022_Nov_10_1435,SpeechDraft1Carolyn_lessNoise,2021.2.3,59.874210853024714,
grass.wav,grass.mpg,grass,2,A,Pink_Noise_2_1.wav,Pink_Noise_2_2.wav,,,,,,0,94,94,50,,,,,,,,,,,,,,,798.6009482379886,None,800.2999302740209,None,801.6830723760067,None,grass,801.6830723760067,None,return,3.0412481779931113,801.7671128389775,None,,,,,,,7,001,2022_Nov_10_1435,SpeechDraft1Carolyn_lessNoise,2021.2.3,59.874210853024714,
fierce.wav,fierce.mpg,fierce,4,AV,Pink_Noise_4_1.wav,Pink_Noise_4_2.wav,,,,,,0,95,95,113,,,,,,,,,,,,,,,804.8337792630191,None,806.3663019670057,None,807.7331239490304,None,first,807.7331239490304,None,return,2.8484602679964155,807.8159771150094,None,,,,,,,7,001,2022_Nov_10_1435,SpeechDraft1Carolyn_lessNoise,2021.2.3,59.874210853024714,
batch.wav,batch.mpg,batch,2,A,Pink_Noise_2_1.wav,Pink_Noise_2_2.wav,,,,,,0,96,96,20,,,,,,,,,,,,,,,810.6836483129882,None,812.200165939983,None,813.5835179500282,None,batch,813.5835179500282,None,return,10.357651193975471,813.6668490829761,None,,,,,,,7,001,2022_Nov_10_1435,SpeechDraft1Carolyn_lessNoise,2021.2.3,59.874210853024714,
bloat.wav,bloat.mpg,bloat,5,AV,Pink_Noise_5_1.wav,Pink_Noise_5_2.wav,,,,,,0,97,97,116,,,,,,,,,,,,,,,824.0500910389819,None,825.5842843949795,None,826.9671091380296,None,brought,826.9671091380296,None,return,5.310739387001377,827.0496154020075,None,,,,,,,7,001,2022_Nov_10_1435,SpeechDraft1Carolyn_lessNoise,2021.2.3,59.874210853024714,
bald.wav,bald.mpg,bald,3,A,Pink_Noise_3_1.wav,Pink_Noise_3_2.wav,,,,,,0,98,98,31,,,,,,,,,,,,,,,832.3833152970183,None,833.8997883920092,None,835.2831209700089,None,bold,835.2831209700089,None,return,2.2901159069733694,835.3663642139873,None,,,,,,,7,001,2022_Nov_10_1435,SpeechDraft1Carolyn_lessNoise,2021.2.3,59.874210853024714,
pipe.wav,pipe.mpg,pipe,6,A,Pink_Noise_6_1.wav,Pink_Noise_6_2.wav,,,,,,0,99,99,38,,,,,,,,,,,,,,,837.6833587280125,None,839.1833110299776,None,840.5663278099964,None,egg,840.5663278099964,None,return,2.3819490870228037,840.6504675670294,None,,,,,,,7,001,2022_Nov_10_1435,SpeechDraft1Carolyn_lessNoise,2021.2.3,59.874210853024714,
drug.wav,drug.mpg,drug,1,AV,Pink_Noise_1_1.wav,Pink_Noise_1_2.wav,,,,,,0,100,100,90,,,,,,,,,,,,,,,843.0504259220324,None,844.6164254390169,None,845.9993880330003,None,"drug
",845.9993880330003,None,return,2.268604041018989,846.0837062440114,None,,,,,,,7,001,2022_Nov_10_1435,SpeechDraft1Carolyn_lessNoise,2021.2.3,59.874210853024714,
dare.wav,dare.mpg,dare,4,AV,Pink_Noise_4_1.wav,Pink_Noise_4_2.wav,,,,,,0,101,101,61,,,,,,,,,,,,,,,848.3834894080064,None,849.9003149280325,None,851.2835378490272,None,dare,851.2835378490272,None,return,2.609539269004017,851.3667825019802,None,,,,,,,7,001,2022_Nov_10_1435,SpeechDraft1Carolyn_lessNoise,2021.2.3,59.874210853024714,
cup.wav,cup.mpg,cup,1,A,Pink_Noise_1_1.wav,Pink_Noise_1_2.wav,,,,,,0,102,102,29,,,,,,,,,,,,,,,854.0000831669895,None,855.5163172170287,None,856.883660189982,None,cup,856.883660189982,None,return,2.209383354987949,856.9669638110208,None,,,,,,,7,001,2022_Nov_10_1435,SpeechDraft1Carolyn_lessNoise,2021.2.3,59.874210853024714,
care.wav,care.mpg,care,4,A,Pink_Noise_4_1.wav,Pink_Noise_4_2.wav,,,,,,0,103,103,16,,,,,,,,,,,,,,,859.2000915899989,None,860.7327745259972,None,862.1161879680003,None,care,862.1161879680003,None,return,2.496086399012711,862.2002411460271,None,,,,,,,7,001,2022_Nov_10_1435,SpeechDraft1Carolyn_lessNoise,2021.2.3,59.874210853024714,
quart.wav,quart.mpg,quart,2,AV,Pink_Noise_2_1.wav,Pink_Noise_2_2.wav,,,,,,0,104,104,97,,,,,,,,,,,,,,,864.7168746829848,None,866.2334985529887,None,867.6165137140197,None,"quart
",867.6165137140197,None,return,5.852109831001144,867.7002173900255,None,,,,,,,7,001,2022_Nov_10_1435,SpeechDraft1Carolyn_lessNoise,2021.2.3,59.874210853024714,
flight.wav,flight.mpg,flight,3,A,Pink_Noise_3_1.wav,Pink_Noise_3_2.wav,,,,,,0,105,105,45,,,,,,,,,,,,,,,873.5837216509972,None,875.1177438420127,None,876.4997734929784,None,light,876.4997734929784,None,return,2.576983127044514,876.5833429080085,None,,,,,,,7,001,2022_Nov_10_1435,SpeechDraft1Carolyn_lessNoise,2021.2.3,59.874210853024714,
cent.wav,cent.mpg,cent,2,A,Pink_Noise_2_1.wav,Pink_Noise_2_2.wav,,,,,,0,106,106,59,,,,,,,,,,,,,,,879.1830689100316,None,880.6999660709989,None,882.0833196520107,None,set,882.0833196520107,None,return,2.2412755209952593,882.167054030986,None,,,,,,,7,001,2022_Nov_10_1435,SpeechDraft1Carolyn_lessNoise,2021.2.3,59.874210853024714,
damn.wav,damn.mpg,damn,6,AV,Pink_Noise_6_1.wav,Pink_Noise_6_2.wav,,,,,,0,107,107,93,,,,,,,,,,,,,,,884.4334087119787,None,885.9498850119999,None,887.3330237509799,None,dam,887.3330237509799,None,return,4.615523935004603,887.4168826059904,None,,,,,,,7,001,2022_Nov_10_1435,SpeechDraft1Carolyn_lessNoise,2021.2.3,59.874210853024714,
count.wav,count.mpg,count,1,A,Pink_Noise_1_1.wav,Pink_Noise_1_2.wav,,,,,,0,108,108,55,,,,,,,,,,,,,,,892.049711301981,None,893.5666651959764,None,894.9496642490267,None,"coat
",894.9496642490267,None,return,2.2869357069721445,895.03338991903,None,,,,,,,7,001,2022_Nov_10_1435,SpeechDraft1Carolyn_lessNoise,2021.2.3,59.874210853024714,
four.wav,four.mpg,four,2,A,Pink_Noise_2_1.wav,Pink_Noise_2_2.wav,,,,,,0,109,109,19,,,,,,,,,,,,,,,897.3498945360188,None,898.866603197006,None,900.2501999670058,None,or,900.2501999670058,None,return,1.7308591359760612,900.3335459770169,None,,,,,,,7,001,2022_Nov_10_1435,SpeechDraft1Carolyn_lessNoise,2021.2.3,59.874210853024714,
file.wav,file.mpg,file,2,AV,Pink_Noise_2_1.wav,Pink_Noise_2_2.wav,,,,,,0,110,110,94,,,,,,,,,,,,,,,902.0834584690165,None,903.5997147909948,None,904.9835468410165,None,"fire
",904.9835468410165,None,return,1.8855175549979322,905.0668041559984,None,,,,,,,7,001,2022_Nov_10_1435,SpeechDraft1Carolyn_lessNoise,2021.2.3,59.874210853024714,
cult.wav,cult.mpg,cult,5,AV,Pink_Noise_5_1.wav,Pink_Noise_5_2.wav,,,,,,0,111,111,91,,,,,,,,,,,,,,,906.9834915979882,None,908.4995360720204,None,909.8830134220188,None,"ghost
",909.8830134220188,None,return,7.369209438038524,909.9671244830242,None,,,,,,,7,001,2022_Nov_10_1435,SpeechDraft1Carolyn_lessNoise,2021.2.3,59.874210853024714,
golf.wav,golf.mpg,golf,2,AV,Pink_Noise_2_1.wav,Pink_Noise_2_2.wav,,,,,,0,112,112,71,,,,,,,,,,,,,,,917.3664315679925,None,918.8836950859986,None,920.267013855977,None,gulf,920.267013855977,None,return,3.090503107989207,920.3499093580176,None,,,,,,,7,001,2022_Nov_10_1435,SpeechDraft1Carolyn_lessNoise,2021.2.3,59.874210853024714,
grown.wav,grown.mpg,grown,3,AV,Pink_Noise_3_1.wav,Pink_Noise_3_2.wav,,,,,,0,113,113,75,,,,,,,,,,,,,,,923.4668698700261,None,924.9668473420315,None,926.3503174040234,None,grow,926.3503174040234,None,return,2.1986696100211702,926.4338018620037,None,,,,,,,7,001,2022_Nov_10_1435,SpeechDraft1Carolyn_lessNoise,2021.2.3,59.874210853024714,
cure.wav,cure.mpg,cure,4,AV,Pink_Noise_4_1.wav,Pink_Noise_4_2.wav,,,,,,0,114,114,95,,,,,,,,,,,,,,,928.6504768889863,None,930.1828638900188,None,931.5662418000284,None,true,931.5662418000284,None,return,3.046092991018668,931.6502386939828,None,,,,,,,7,001,2022_Nov_10_1435,SpeechDraft1Carolyn_lessNoise,2021.2.3,59.874210853024714,
cook.wav,cook.mpg,cook,4,A,Pink_Noise_4_1.wav,Pink_Noise_4_2.wav,,,,,,0,115,115,2,,,,,,,,,,,,,,,934.7174112449866,None,936.2330352829886,None,937.6172416069894,None,clock,937.6172416069894,None,return,2.244181429967284,937.7001605990226,None,,,,,,,7,001,2022_Nov_10_1435,SpeechDraft1Carolyn_lessNoise,2021.2.3,59.874210853024714,
grief.wav,grief.mpg,grief,6,A,Pink_Noise_6_1.wav,Pink_Noise_6_2.wav,,,,,,0,116,116,51,,,,,,,,,,,,,,,939.9673052810249,None,941.483040681982,None,942.866454796982,None,feed,942.866454796982,None,return,9.809837180015165,942.950482323009,None,,,,,,,7,001,2022_Nov_10_1435,SpeechDraft1Carolyn_lessNoise,2021.2.3,59.874210853024714,
mars.wav,mars.mpg,mars,3,AV,Pink_Noise_3_1.wav,Pink_Noise_3_2.wav,,,,,,0,117,117,92,,,,,,,,,,,,,,,952.7836733100121,None,954.3005995230051,None,955.6834712179843,None,mars,955.6834712179843,None,return,2.3933870350010693,955.7669206360006,None,,,,,,,7,001,2022_Nov_10_1435,SpeechDraft1Carolyn_lessNoise,2021.2.3,59.874210853024714,
pledge.wav,pledge.mpg,pledge,5,A,Pink_Noise_5_1.wav,Pink_Noise_5_2.wav,,,,,,0,118,118,32,,,,,,,,,,,,,,,958.183251059032,None,959.699790409999,None,961.0670994819957,None,pledge,961.0670994819957,None,return,9.177980892010964,961.1503527329769,None,,,,,,,7,001,2022_Nov_10_1435,SpeechDraft1Carolyn_lessNoise,2021.2.3,59.874210853024714,
flea.wav,flea.mpg,flea,3,AV,Pink_Noise_3_1.wav,Pink_Noise_3_2.wav,,,,,,0,119,119,84,,,,,,,,,,,,,,,970.3499079130124,None,971.9002395319985,None,973.2833153670072,None,flee,973.2833153670072,None,return,1.6894825259805657,973.3669284079806,None,,,,,,,7,001,2022_Nov_10_1435,SpeechDraft1Carolyn_lessNoise,2021.2.3,59.874210853024714,
