{"meta_data":{"additional_headers":{},"game_name":"Recollect","version":"2.53.01","user_name":"80","organization":"braingamecenter","study":"mpl2_2022_11","session_number":0,"device_id":"74342D95-EE82-45E3-8ADF-48FB3203C5DD"},"data":[{"stage":"Practice","trial":0,"sequence":"6F","letter_input":"F","number_input":"6","is_correct":true,"presentation_start_time":1682033879942.51,"presentation_end_time":1682033882943.82,"response_time":1682033888607.93},{"stage":"Practice","trial":1,"sequence":"G4","letter_input":"G","number_input":"4","is_correct":true,"presentation_start_time":1682033890139.11,"presentation_end_time":1682033893140.46,"response_time":1682033897486.82},{"stage":"Practice","trial":2,"sequence":"3W5","letter_input":"W","number_input":"35","is_correct":true,"presentation_start_time":1682033899019.55,"presentation_end_time":1682033903520.42,"response_time":1682033907916.75},{"stage":"Practice","trial":3,"sequence":"T7L","letter_input":"LT","number_input":"7","is_correct":true,"presentation_start_time":1682033909449.48,"presentation_end_time":1682033913950.13,"response_time":1682033918479.97},{"stage":"Practice","trial":4,"sequence":"9J1","letter_input":"J","number_input":"19","is_correct":true,"presentation_start_time":1682033920012.65,"presentation_end_time":1682033924513.42,"response_time":1682033928959.87},{"stage":"Calibration","trial":0,"sequence":"K6","letter_input":"K","number_input":"6","is_correct":true,"presentation_start_time":1682033932475.29,"presentation_end_time":1682033935476.61,"response_time":1682033938540.08},{"stage":"Calibration","trial":1,"sequence":"9V","letter_input":"V","number_input":"9","is_correct":true,"presentation_start_time":1682033940072.78,"presentation_end_time":1682033943074.11,"response_time":1682033947703.69},{"stage":"Calibration","trial":2,"sequence":"R8H","letter_input":"HR","number_input":"8","is_correct":true,"presentation_start_time":1682033949236.43,"presentation_end_time":1682033953737.27,"response_time":1682033957883.75},{"stage":"Calibration","trial":3,"sequence":"5E2","letter_input":"E","number_input":"25","is_correct":true,"presentation_start_time":1682033959416.37,"presentation_end_time":1682033963917.24,"response_time":1682033967330.62},{"stage":"Calibration","trial":4,"sequence":"Q9K1","letter_input":"KQ","number_input":"19","is_correct":true,"presentation_start_time":1682033968863.33,"presentation_end_time":1682033974863.52,"response_time":1682033978476.87},{"stage":"Calibration","trial":5,"sequence":"7Y2W","letter_input":"WY","number_input":"27","is_correct":true,"presentation_start_time":1682033980009.58,"presentation_end_time":1682033986009.89,"response_time":1682033990806.24},{"stage":"Calibration","trial":6,"sequence":"F8B6Q","letter_input":"BFQ","number_input":"68","is_correct":true,"presentation_start_time":1682033992338.9,"presentation_end_time":1682033999838.64,"response_time":1682034005101.56},{"stage":"Calibration","trial":7,"sequence":"7V5K3","letter_input":"KV","number_input":"357","is_correct":true,"presentation_start_time":1682034006634.24,"presentation_end_time":1682034014133.83,"response_time":1682034025578.09},{"stage":"Calibration","trial":8,"sequence":"L4J2B6","letter_input":"JL","number_input":"246","is_correct":false,"presentation_start_time":1682034027110.88,"presentation_end_time":1682034036110.21,"response_time":1682034048920.56},{"stage":"Calibration","trial":9,"sequence":"5S3K1D","letter_input":"DKS","number_input":"135","is_correct":true,"presentation_start_time":1682034050453.16,"presentation_end_time":1682034059452.43,"response_time":1682034071512.99},{"stage":"Calibration","trial":10,"sequence":"V7B4T2R","letter_input":"BRTV","number_input":"247","is_correct":true,"presentation_start_time":1682034073045.74,"presentation_end_time":1682034083544.46,"response_time":1682034108800.72},{"stage":"Calibration","trial":11,"sequence":"3W1G9E6","letter_input":"GVW","number_input":"139","is_correct":false,"presentation_start_time":1682034110333.49,"presentation_end_time":1682034120832.34,"response_time":1682034134508.99},{"stage":"Calibration","trial":12,"sequence":"D2Q8L6F5","letter_input":"DLQ","number_input":"2568","is_correct":false,"presentation_start_time":1682034136041.72,"presentation_end_time":1682034148040.09,"response_time":1682034191956.89},{"stage":"Calibration","trial":13,"sequence":"1R9K7T4N","letter_input":"NRT","number_input":"1479","is_correct":false,"presentation_start_time":1682034193489.4,"presentation_end_time":1682034205487.96,"response_time":1682034226611.99}]}