{"meta_data":{"additional_headers":{},"game_name":"Recollect","version":"2.53.01","user_name":"81","organization":"braingamecenter","study":"mpl2_2022_11","session_number":0,"device_id":"74342D95-EE82-45E3-8ADF-48FB3203C5DD"},"data":[{"trial":0,"action":1,"button_pressed":3,"time_out":false,"dwell_time":64.39990234375,"response_time":1682361891895.44},{"trial":0,"action":1,"button_pressed":2,"time_out":false,"dwell_time":64.87890625,"response_time":1682361892429.08},{"trial":0,"action":9,"button_pressed":-1,"time_out":false,"dwell_time":58.231201171875,"response_time":1682361892856.37},{"trial":1,"action":1,"button_pressed":10,"time_out":false,"dwell_time":81.046142578125,"response_time":1682361902442.67},{"trial":1,"action":1,"button_pressed":0,"time_out":false,"dwell_time":80.472900390625,"response_time":1682361902808.21},{"trial":1,"action":1,"button_pressed":6,"time_out":false,"dwell_time":64.26416015625,"response_time":1682361903174.97},{"trial":1,"action":9,"button_pressed":-1,"time_out":false,"dwell_time":132.218017578125,"response_time":1682361904492.27},{"trial":2,"action":1,"button_pressed":8,"time_out":false,"dwell_time":63.56298828125,"response_time":1682361916370.65},{"trial":2,"action":1,"button_pressed":1,"time_out":false,"dwell_time":81.56689453125,"response_time":1682361917104.14},{"trial":2,"action":1,"button_pressed":3,"time_out":false,"dwell_time":47.1611328125,"response_time":1682361917520.4},{"trial":2,"action":1,"button_pressed":11,"time_out":false,"dwell_time":47.916015625,"response_time":1682361917970.46},{"trial":2,"action":9,"button_pressed":-1,"time_out":false,"dwell_time":48.27099609375,"response_time":1682361918787.25},{"trial":3,"action":1,"button_pressed":4,"time_out":false,"dwell_time":97.97998046875,"response_time":1682361933082.65},{"trial":3,"action":1,"button_pressed":11,"time_out":false,"dwell_time":64.333984375,"response_time":1682361933698.22},{"trial":3,"action":1,"button_pressed":5,"time_out":false,"dwell_time":80.35693359375,"response_time":1682361934381.13},{"trial":3,"action":1,"button_pressed":3,"time_out":false,"dwell_time":80.125,"response_time":1682361934947.66},{"trial":3,"action":1,"button_pressed":9,"time_out":false,"dwell_time":97.867919921875,"response_time":1682361935331.23},{"trial":3,"action":9,"button_pressed":-1,"time_out":false,"dwell_time":98.035888671875,"response_time":1682361935981.79},{"trial":4,"action":1,"button_pressed":3,"time_out":false,"dwell_time":64.126953125,"response_time":1682361952859.13},{"trial":4,"action":1,"button_pressed":7,"time_out":false,"dwell_time":47.759033203125,"response_time":1682361953342.64},{"trial":4,"action":1,"button_pressed":10,"time_out":false,"dwell_time":81.22802734375,"response_time":1682361954375.12},{"trial":4,"action":1,"button_pressed":4,"time_out":false,"dwell_time":81.573974609375,"response_time":1682361954741.72},{"trial":4,"action":1,"button_pressed":2,"time_out":false,"dwell_time":48.73095703125,"response_time":1682361955142.1},{"trial":4,"action":1,"button_pressed":9,"time_out":false,"dwell_time":64.0859375,"response_time":1682361955640.71},{"trial":4,"action":9,"button_pressed":-1,"time_out":false,"dwell_time":65.336181640625,"response_time":1682361956458.19},{"trial":5,"action":1,"button_pressed":1,"time_out":false,"dwell_time":80.34814453125,"response_time":1682361974068.14},{"trial":5,"action":1,"button_pressed":9,"time_out":false,"dwell_time":114.444091796875,"response_time":1682361976217.87},{"trial":5,"action":1,"button_pressed":10,"time_out":false,"dwell_time":79.700927734375,"response_time":1682361980199.17},{"trial":5,"action":1,"button_pressed":5,"time_out":false,"dwell_time":80.89404296875,"response_time":1682361980882.21},{"trial":5,"action":1,"button_pressed":6,"time_out":false,"dwell_time":81.469970703125,"response_time":1682361981732.71},{"trial":5,"action":1,"button_pressed":5,"time_out":false,"dwell_time":80.135009765625,"response_time":1682361983947.94},{"trial":5,"action":0,"button_pressed":-1,"time_out":false,"dwell_time":131.3251953125,"response_time":1682361985498.59},{"trial":5,"action":1,"button_pressed":1,"time_out":false,"dwell_time":47.952880859375,"response_time":1682361986248.33},{"trial":5,"action":1,"button_pressed":9,"time_out":false,"dwell_time":63.22998046875,"response_time":1682361986763.66},{"trial":5,"action":1,"button_pressed":10,"time_out":false,"dwell_time":97.636962890625,"response_time":1682361987296.88},{"trial":5,"action":1,"button_pressed":6,"time_out":false,"dwell_time":81.364990234375,"response_time":1682361988447.05},{"trial":5,"action":1,"button_pressed":7,"time_out":false,"dwell_time":80.776123046875,"response_time":1682361988713},{"trial":5,"action":1,"button_pressed":2,"time_out":false,"dwell_time":114.911865234375,"response_time":1682361989513.42},{"trial":5,"action":0,"button_pressed":-1,"time_out":false,"dwell_time":16.485107421875,"response_time":1682361997893.41},{"trial":5,"action":1,"button_pressed":1,"time_out":false,"dwell_time":31.387939453125,"response_time":1682361998427.76},{"trial":5,"action":1,"button_pressed":10,"time_out":false,"dwell_time":46.616943359375,"response_time":1682361998943.41},{"trial":5,"action":1,"button_pressed":5,"time_out":false,"dwell_time":63.416015625,"response_time":1682361999342.83},{"trial":5,"action":1,"button_pressed":6,"time_out":false,"dwell_time":81.343017578125,"response_time":1682361999826.69},{"trial":5,"action":1,"button_pressed":7,"time_out":false,"dwell_time":30.76904296875,"response_time":1682362000043.23},{"trial":5,"action":1,"button_pressed":2,"time_out":false,"dwell_time":48.628173828125,"response_time":1682362000460.21},{"trial":5,"action":9,"button_pressed":-1,"time_out":false,"dwell_time":65.5361328125,"response_time":1682362000893.44},{"trial":6,"action":1,"button_pressed":5,"time_out":false,"dwell_time":49.031982421875,"response_time":1682362013139.46},{"trial":6,"action":1,"button_pressed":1,"time_out":false,"dwell_time":63.532958984375,"response_time":1682362016237.22},{"trial":6,"action":1,"button_pressed":7,"time_out":false,"dwell_time":31.348876953125,"response_time":1682362016654.21},{"trial":6,"action":1,"button_pressed":9,"time_out":false,"dwell_time":64.00390625,"response_time":1682362017237.49},{"trial":6,"action":9,"button_pressed":-1,"time_out":false,"dwell_time":297.905029296875,"response_time":1682362018554.21},{"trial":7,"action":1,"button_pressed":10,"time_out":false,"dwell_time":64.216064453125,"response_time":1682362030765.73},{"trial":7,"action":1,"button_pressed":3,"time_out":false,"dwell_time":48.64794921875,"response_time":1682362031083.38},{"trial":7,"action":1,"button_pressed":6,"time_out":false,"dwell_time":64.740966796875,"response_time":1682362031349.5},{"trial":7,"action":1,"button_pressed":8,"time_out":false,"dwell_time":48.0029296875,"response_time":1682362031782.51},{"trial":7,"action":9,"button_pressed":-1,"time_out":false,"dwell_time":49.111083984375,"response_time":1682362032350.81},{"trial":8,"action":1,"button_pressed":9,"time_out":false,"dwell_time":47.300048828125,"response_time":1682362047060.71},{"trial":8,"action":1,"button_pressed":0,"time_out":false,"dwell_time":48.10205078125,"response_time":1682362047460.42},{"trial":8,"action":1,"button_pressed":2,"time_out":false,"dwell_time":81.0361328125,"response_time":1682362047893.38},{"trial":8,"action":1,"button_pressed":1,"time_out":false,"dwell_time":48.11181640625,"response_time":1682362048411.13},{"trial":8,"action":1,"button_pressed":6,"time_out":false,"dwell_time":64.699951171875,"response_time":1682362048710.47},{"trial":8,"action":9,"button_pressed":-1,"time_out":false,"dwell_time":81.138916015625,"response_time":1682362049326.48},{"trial":9,"action":1,"button_pressed":2,"time_out":false,"dwell_time":64.758056640625,"response_time":1682362066121.22},{"trial":9,"action":1,"button_pressed":6,"time_out":false,"dwell_time":64.7490234375,"response_time":1682362066704.39},{"trial":9,"action":1,"button_pressed":10,"time_out":false,"dwell_time":63.343994140625,"response_time":1682362067153.54},{"trial":9,"action":1,"button_pressed":7,"time_out":false,"dwell_time":31.297119140625,"response_time":1682362067620.57},{"trial":9,"action":1,"button_pressed":9,"time_out":false,"dwell_time":31.26904296875,"response_time":1682362068087.7},{"trial":9,"action":1,"button_pressed":3,"time_out":false,"dwell_time":47.931884765625,"response_time":1682362068437.48},{"trial":9,"action":9,"button_pressed":-1,"time_out":false,"dwell_time":47.847900390625,"response_time":1682362068853.91},{"trial":10,"action":1,"button_pressed":6,"time_out":false,"dwell_time":47.343017578125,"response_time":1682362088380.46},{"trial":10,"action":1,"button_pressed":10,"time_out":false,"dwell_time":63.701904296875,"response_time":1682362088797.01},{"trial":10,"action":1,"button_pressed":11,"time_out":false,"dwell_time":63.375,"response_time":1682362089162.87},{"trial":10,"action":1,"button_pressed":4,"time_out":false,"dwell_time":64.925048828125,"response_time":1682362089813.27},{"trial":10,"action":1,"button_pressed":8,"time_out":false,"dwell_time":80.677978515625,"response_time":1682362090229.12},{"trial":10,"action":1,"button_pressed":3,"time_out":false,"dwell_time":48.046875,"response_time":1682362090596.25},{"trial":10,"action":1,"button_pressed":5,"time_out":false,"dwell_time":65.140869140625,"response_time":1682362090979.61},{"trial":10,"action":9,"button_pressed":-1,"time_out":false,"dwell_time":31.572998046875,"response_time":1682362092695.93},{"trial":11,"action":1,"button_pressed":3,"time_out":false,"dwell_time":48.72802734375,"response_time":1682362114838.75},{"trial":11,"action":1,"button_pressed":11,"time_out":false,"dwell_time":81.291015625,"response_time":1682362115321.35},{"trial":11,"action":1,"button_pressed":9,"time_out":false,"dwell_time":80.0380859375,"response_time":1682362115753.94},{"trial":11,"action":1,"button_pressed":7,"time_out":false,"dwell_time":97.55810546875,"response_time":1682362117036.94},{"trial":11,"action":1,"button_pressed":5,"time_out":false,"dwell_time":97.60302734375,"response_time":1682362122068.47},{"trial":11,"action":1,"button_pressed":2,"time_out":false,"dwell_time":64.27001953125,"response_time":1682362122385.12},{"trial":11,"action":1,"button_pressed":10,"time_out":false,"dwell_time":64.84912109375,"response_time":1682362122852.23},{"trial":11,"action":1,"button_pressed":1,"time_out":false,"dwell_time":14.592041015625,"response_time":1682362123302.59},{"trial":11,"action":9,"button_pressed":-1,"time_out":false,"dwell_time":49.1201171875,"response_time":1682362124136.08},{"trial":12,"action":1,"button_pressed":6,"time_out":false,"dwell_time":80.718017578125,"response_time":1682362146361.42},{"trial":12,"action":1,"button_pressed":5,"time_out":false,"dwell_time":47.1259765625,"response_time":1682362146844.01},{"trial":12,"action":1,"button_pressed":0,"time_out":false,"dwell_time":31.1728515625,"response_time":1682362147278.11},{"trial":12,"action":1,"button_pressed":3,"time_out":false,"dwell_time":114.531005859375,"response_time":1682362147643.86},{"trial":12,"action":1,"button_pressed":10,"time_out":false,"dwell_time":114.2548828125,"response_time":1682362148077.56},{"trial":12,"action":1,"button_pressed":8,"time_out":false,"dwell_time":81.74609375,"response_time":1682362148644.12},{"trial":12,"action":1,"button_pressed":1,"time_out":false,"dwell_time":48.152099609375,"response_time":1682362149010.93},{"trial":12,"action":1,"button_pressed":7,"time_out":false,"dwell_time":30.31591796875,"response_time":1682362149326.62},{"trial":12,"action":9,"button_pressed":-1,"time_out":false,"dwell_time":47.4228515625,"response_time":1682362149893.52}]}