{"meta_data":{"additional_headers":{},"game_name":"Recollect","version":"2.53.01","user_name":"81","organization":"braingamecenter","study":"mpl2_2022_11","session_number":0,"device_id":"74342D95-EE82-45E3-8ADF-48FB3203C5DD"},"data":[{"stage":"Practice","trial":0,"sequence":"6F","letter_input":"F","number_input":"6","is_correct":true,"presentation_start_time":1682362171184.45,"presentation_end_time":1682362174185.7,"response_time":1682362183082.19},{"stage":"Practice","trial":1,"sequence":"G4","letter_input":"G","number_input":"4","is_correct":true,"presentation_start_time":1682362184613.28,"presentation_end_time":1682362187614.56,"response_time":1682362193077.24},{"stage":"Practice","trial":2,"sequence":"3W5","letter_input":"W","number_input":"35","is_correct":true,"presentation_start_time":1682362194609.94,"presentation_end_time":1682362199110.73,"response_time":1682362206272.86},{"stage":"Practice","trial":3,"sequence":"T7L","letter_input":"LT","number_input":"7","is_correct":true,"presentation_start_time":1682362207805.52,"presentation_end_time":1682362212306.31,"response_time":1682362219001.87},{"stage":"Practice","trial":4,"sequence":"9J1","letter_input":"J","number_input":"19","is_correct":true,"presentation_start_time":1682362220534.58,"presentation_end_time":1682362225035.34,"response_time":1682362228632},{"stage":"Calibration","trial":0,"sequence":"V2","letter_input":"V","number_input":"2","is_correct":true,"presentation_start_time":1682362235779.56,"presentation_end_time":1682362238780.78,"response_time":1682362242310.8},{"stage":"Calibration","trial":1,"sequence":"8F","letter_input":"F","number_input":"8","is_correct":true,"presentation_start_time":1682362243843.52,"presentation_end_time":1682362246844.71,"response_time":1682362250857.9},{"stage":"Calibration","trial":2,"sequence":"Z4L","letter_input":"LZ","number_input":"4","is_correct":true,"presentation_start_time":1682362252390.6,"presentation_end_time":1682362256891.37,"response_time":1682362266269.42},{"stage":"Calibration","trial":3,"sequence":"7J3","letter_input":"J","number_input":"37","is_correct":true,"presentation_start_time":1682362267802.13,"presentation_end_time":1682362272302.96,"response_time":1682362275699.66},{"stage":"Calibration","trial":4,"sequence":"W6M2","letter_input":"MW","number_input":"26","is_correct":true,"presentation_start_time":1682362277232.29,"presentation_end_time":1682362283232.68,"response_time":1682362288378.74},{"stage":"Calibration","trial":5,"sequence":"9Z4T","letter_input":"TZ","number_input":"49","is_correct":true,"presentation_start_time":1682362289911.38,"presentation_end_time":1682362295911.7,"response_time":1682362299974.85},{"stage":"Calibration","trial":6,"sequence":"A7M5E","letter_input":"AEZ","number_input":"57","is_correct":false,"presentation_start_time":1682362301507.5,"presentation_end_time":1682362309007.38,"response_time":1682362319768.14},{"stage":"Calibration","trial":7,"sequence":"9G3B1","letter_input":"BG","number_input":"139","is_correct":true,"presentation_start_time":1682362321300.89,"presentation_end_time":1682362328800.6,"response_time":1682362335096.45},{"stage":"Calibration","trial":8,"sequence":"M7J4V2","letter_input":"MJV","number_input":"247","is_correct":false,"presentation_start_time":1682362336629.08,"presentation_end_time":1682362345628.3,"response_time":1682362364886.47},{"stage":"Calibration","trial":9,"sequence":"1T8R6P","letter_input":"RT","number_input":"168","is_correct":false,"presentation_start_time":1682362366419.18,"presentation_end_time":1682362375418.34,"response_time":1682362387878.92}]}