{"meta_data":{"additional_headers":{},"game_name":"Recollect","version":"2.53.01","user_name":"82","organization":"braingamecenter","study":"mpl2_2022_11","session_number":0,"device_id":"74342D95-EE82-45E3-8ADF-48FB3203C5DD"},"data":[{"stage":"Practice","trial":0,"sequence":"6F","letter_input":"F","number_input":"6","is_correct":true,"presentation_start_time":1682376573215,"presentation_end_time":1682376576216.17,"response_time":1682376583080.08},{"stage":"Practice","trial":1,"sequence":"G4","letter_input":"G","number_input":"4","is_correct":true,"presentation_start_time":1682376584611.12,"presentation_end_time":1682376587612.4,"response_time":1682376592292.07},{"stage":"Practice","trial":2,"sequence":"3W5","letter_input":"W","number_input":"35","is_correct":true,"presentation_start_time":1682376593824.79,"presentation_end_time":1682376598325.74,"response_time":1682376603238.53},{"stage":"Practice","trial":3,"sequence":"T7L","letter_input":"LT","number_input":"7","is_correct":true,"presentation_start_time":1682376604771.15,"presentation_end_time":1682376609271.86,"response_time":1682376616767.25},{"stage":"Practice","trial":4,"sequence":"9J1","letter_input":"J","number_input":"19","is_correct":true,"presentation_start_time":1682376618299.99,"presentation_end_time":1682376622800.74,"response_time":1682376627946.85},{"stage":"Calibration","trial":0,"sequence":"S1","letter_input":"S","number_input":"1","is_correct":true,"presentation_start_time":1682376635577.58,"presentation_end_time":1682376638578.79,"response_time":1682376642791.92},{"stage":"Calibration","trial":1,"sequence":"2E","letter_input":"E","number_input":"2","is_correct":true,"presentation_start_time":1682376644324.62,"presentation_end_time":1682376647325.94,"response_time":1682376651172.43},{"stage":"Calibration","trial":2,"sequence":"R1M","letter_input":"MR","number_input":"1","is_correct":true,"presentation_start_time":1682376652705.13,"presentation_end_time":1682376657205.98,"response_time":1682376665334.43},{"stage":"Calibration","trial":3,"sequence":"9Y7","letter_input":"Y","number_input":"79","is_correct":true,"presentation_start_time":1682376666867.09,"presentation_end_time":1682376671367.98,"response_time":1682376675814.26},{"stage":"Calibration","trial":4,"sequence":"R8D5","letter_input":"DR","number_input":"58","is_correct":true,"presentation_start_time":1682376677346.97,"presentation_end_time":1682376683347.29,"response_time":1682376691442.41},{"stage":"Calibration","trial":5,"sequence":"4V1L","letter_input":"LV","number_input":"14","is_correct":true,"presentation_start_time":1682376692975.15,"presentation_end_time":1682376698975.26,"response_time":1682376704004.91},{"stage":"Calibration","trial":6,"sequence":"Q9M5K","letter_input":"KMQ","number_input":"59","is_correct":true,"presentation_start_time":1682376705537.63,"presentation_end_time":1682376713037.42,"response_time":1682376721515.72},{"stage":"Calibration","trial":7,"sequence":"2T8F4","letter_input":"FT","number_input":"248","is_correct":true,"presentation_start_time":1682376723048.47,"presentation_end_time":1682376730548.25,"response_time":1682376736360.76},{"stage":"Calibration","trial":8,"sequence":"R3L7E5","letter_input":"ERL","number_input":"375","is_correct":false,"presentation_start_time":1682376737893.46,"presentation_end_time":1682376746892.79,"response_time":1682376753238.51},{"stage":"Calibration","trial":9,"sequence":"6C4Z9S","letter_input":"CEL","number_input":"349","is_correct":false,"presentation_start_time":1682376754771.16,"presentation_end_time":1682376763770.54,"response_time":1682376787493.75}]}