{"meta_data":{"additional_headers":{},"game_name":"Recollect","version":"2.53.01","user_name":"82","organization":"braingamecenter","study":"mpl2_2022_11","session_number":0,"device_id":"74342D95-EE82-45E3-8ADF-48FB3203C5DD"},"data":[{"trial":0,"action":1,"button_pressed":6,"time_out":false,"dwell_time":47.947998046875,"response_time":1682376273933.51},{"trial":0,"action":1,"button_pressed":10,"time_out":false,"dwell_time":64.847900390625,"response_time":1682376274482.76},{"trial":0,"action":9,"button_pressed":-1,"time_out":false,"dwell_time":58.0439453125,"response_time":1682376275158.81},{"trial":1,"action":1,"button_pressed":1,"time_out":false,"dwell_time":47.5400390625,"response_time":1682376284812.68},{"trial":1,"action":1,"button_pressed":6,"time_out":false,"dwell_time":47.151123046875,"response_time":1682376285112.35},{"trial":1,"action":1,"button_pressed":8,"time_out":false,"dwell_time":47.98486328125,"response_time":1682376285645.49},{"trial":1,"action":9,"button_pressed":-1,"time_out":false,"dwell_time":65.26904296875,"response_time":1682376286212.48},{"trial":2,"action":1,"button_pressed":10,"time_out":false,"dwell_time":47.914794921875,"response_time":1682376298258.82},{"trial":2,"action":1,"button_pressed":3,"time_out":false,"dwell_time":31.469970703125,"response_time":1682376298641.99},{"trial":2,"action":1,"button_pressed":6,"time_out":false,"dwell_time":47.8759765625,"response_time":1682376298941.99},{"trial":2,"action":1,"button_pressed":8,"time_out":false,"dwell_time":48.528076171875,"response_time":1682376299391.54},{"trial":2,"action":9,"button_pressed":-1,"time_out":false,"dwell_time":30.81494140625,"response_time":1682376299957.65},{"trial":3,"action":1,"button_pressed":10,"time_out":false,"dwell_time":63.807861328125,"response_time":1682376315219.21},{"trial":3,"action":1,"button_pressed":5,"time_out":false,"dwell_time":81.60498046875,"response_time":1682376315519.07},{"trial":3,"action":1,"button_pressed":3,"time_out":false,"dwell_time":64.76904296875,"response_time":1682376316068.81},{"trial":3,"action":1,"button_pressed":6,"time_out":false,"dwell_time":47.7880859375,"response_time":1682376316319.24},{"trial":3,"action":1,"button_pressed":2,"time_out":false,"dwell_time":47.779052734375,"response_time":1682376316835.05},{"trial":3,"action":9,"button_pressed":-1,"time_out":false,"dwell_time":31.838134765625,"response_time":1682376317435.37},{"trial":4,"action":1,"button_pressed":6,"time_out":false,"dwell_time":47.833984375,"response_time":1682376335013.02},{"trial":4,"action":1,"button_pressed":5,"time_out":false,"dwell_time":47.296875,"response_time":1682376335528.78},{"trial":4,"action":1,"button_pressed":0,"time_out":false,"dwell_time":64.762939453125,"response_time":1682376335995.49},{"trial":4,"action":1,"button_pressed":11,"time_out":false,"dwell_time":48.5087890625,"response_time":1682376338111.88},{"trial":4,"action":1,"button_pressed":8,"time_out":false,"dwell_time":46.719970703125,"response_time":1682376338761.06},{"trial":4,"action":1,"button_pressed":4,"time_out":false,"dwell_time":48.0810546875,"response_time":1682376339094.25},{"trial":4,"action":9,"button_pressed":-1,"time_out":false,"dwell_time":81.380126953125,"response_time":1682376340977.91},{"trial":5,"action":1,"button_pressed":3,"time_out":false,"dwell_time":81.2109375,"response_time":1682376361520.66},{"trial":5,"action":1,"button_pressed":0,"time_out":false,"dwell_time":64.98095703125,"response_time":1682376361786.92},{"trial":5,"action":1,"button_pressed":10,"time_out":false,"dwell_time":63.81103515625,"response_time":1682376362152.95},{"trial":5,"action":1,"button_pressed":5,"time_out":false,"dwell_time":47.944091796875,"response_time":1682376362520.57},{"trial":5,"action":1,"button_pressed":1,"time_out":false,"dwell_time":48.10986328125,"response_time":1682376363753.54},{"trial":5,"action":1,"button_pressed":4,"time_out":false,"dwell_time":63.927978515625,"response_time":1682376364286.08},{"trial":5,"action":1,"button_pressed":2,"time_out":false,"dwell_time":65.010986328125,"response_time":1682376364685.98},{"trial":5,"action":9,"button_pressed":-1,"time_out":false,"dwell_time":47.806884765625,"response_time":1682376365369.37},{"trial":6,"action":1,"button_pressed":6,"time_out":false,"dwell_time":81.005859375,"response_time":1682376385812.87},{"trial":6,"action":1,"button_pressed":4,"time_out":false,"dwell_time":80.68994140625,"response_time":1682376386162.29},{"trial":6,"action":1,"button_pressed":2,"time_out":false,"dwell_time":47.325927734375,"response_time":1682376386528.74},{"trial":6,"action":1,"button_pressed":1,"time_out":false,"dwell_time":64.843994140625,"response_time":1682376387128.59},{"trial":6,"action":1,"button_pressed":9,"time_out":false,"dwell_time":64.06298828125,"response_time":1682376388378.41},{"trial":6,"action":1,"button_pressed":8,"time_out":false,"dwell_time":64.140869140625,"response_time":1682376388760.86},{"trial":6,"action":1,"button_pressed":0,"time_out":false,"dwell_time":47.349853515625,"response_time":1682376389394.39},{"trial":6,"action":9,"button_pressed":-1,"time_out":false,"dwell_time":49.69287109375,"response_time":1682376390279.52},{"trial":7,"action":1,"button_pressed":9,"time_out":false,"dwell_time":81.4638671875,"response_time":1682376404989.6},{"trial":7,"action":1,"button_pressed":6,"time_out":false,"dwell_time":64.763916015625,"response_time":1682376405256.08},{"trial":7,"action":1,"button_pressed":5,"time_out":false,"dwell_time":64.18310546875,"response_time":1682376405789.25},{"trial":7,"action":1,"button_pressed":8,"time_out":false,"dwell_time":64.81201171875,"response_time":1682376406105.86},{"trial":7,"action":1,"button_pressed":7,"time_out":false,"dwell_time":47.7919921875,"response_time":1682376407305.77},{"trial":7,"action":1,"button_pressed":7,"time_out":false,"dwell_time":64.7919921875,"response_time":1682376408538.29},{"trial":7,"action":0,"button_pressed":-1,"time_out":false,"dwell_time":65.052001953125,"response_time":1682376410937.69},{"trial":7,"action":1,"button_pressed":9,"time_out":false,"dwell_time":81.4208984375,"response_time":1682376411770.55},{"trial":7,"action":1,"button_pressed":5,"time_out":false,"dwell_time":63.998046875,"response_time":1682376412203.67},{"trial":7,"action":1,"button_pressed":8,"time_out":false,"dwell_time":81.27490234375,"response_time":1682376413703.19},{"trial":7,"action":1,"button_pressed":6,"time_out":false,"dwell_time":63.97216796875,"response_time":1682376414152.41},{"trial":7,"action":1,"button_pressed":7,"time_out":false,"dwell_time":47.7060546875,"response_time":1682376414519.23},{"trial":7,"action":9,"button_pressed":-1,"time_out":false,"dwell_time":99.06494140625,"response_time":1682376417219.07},{"trial":8,"action":1,"button_pressed":1,"time_out":false,"dwell_time":64.52099609375,"response_time":1682376431913.37},{"trial":8,"action":1,"button_pressed":10,"time_out":false,"dwell_time":63.466064453125,"response_time":1682376432579.67},{"trial":8,"action":1,"button_pressed":0,"time_out":false,"dwell_time":64.89208984375,"response_time":1682376432963.38},{"trial":8,"action":1,"button_pressed":9,"time_out":false,"dwell_time":48.52490234375,"response_time":1682376433313.74},{"trial":8,"action":1,"button_pressed":5,"time_out":false,"dwell_time":48.719970703125,"response_time":1682376433880.34},{"trial":8,"action":9,"button_pressed":-1,"time_out":false,"dwell_time":64.81396484375,"response_time":1682376434679.43},{"trial":9,"action":1,"button_pressed":1,"time_out":false,"dwell_time":63.572998046875,"response_time":1682376451673.24},{"trial":9,"action":1,"button_pressed":9,"time_out":false,"dwell_time":63.8701171875,"response_time":1682376452040.34},{"trial":9,"action":1,"button_pressed":5,"time_out":false,"dwell_time":81.692138671875,"response_time":1682376452457.2},{"trial":9,"action":1,"button_pressed":6,"time_out":false,"dwell_time":64.02294921875,"response_time":1682376452856.23},{"trial":9,"action":1,"button_pressed":7,"time_out":false,"dwell_time":30.35302734375,"response_time":1682376453173.19},{"trial":9,"action":1,"button_pressed":2,"time_out":false,"dwell_time":64.256103515625,"response_time":1682376453789.15},{"trial":9,"action":9,"button_pressed":-1,"time_out":false,"dwell_time":64.041015625,"response_time":1682376454272.9},{"trial":10,"action":1,"button_pressed":0,"time_out":false,"dwell_time":63.201171875,"response_time":1682376473849.38},{"trial":10,"action":1,"button_pressed":8,"time_out":false,"dwell_time":79.968017578125,"response_time":1682376474265.75},{"trial":10,"action":1,"button_pressed":5,"time_out":false,"dwell_time":48.78076171875,"response_time":1682376474550.01},{"trial":10,"action":1,"button_pressed":6,"time_out":false,"dwell_time":63.800048828125,"response_time":1682376475032.1},{"trial":10,"action":1,"button_pressed":10,"time_out":false,"dwell_time":64.694091796875,"response_time":1682376475432.66},{"trial":10,"action":1,"button_pressed":2,"time_out":false,"dwell_time":63.822998046875,"response_time":1682376475865.75},{"trial":10,"action":1,"button_pressed":9,"time_out":false,"dwell_time":63.75,"response_time":1682376476298.86},{"trial":10,"action":9,"button_pressed":-1,"time_out":false,"dwell_time":65.18603515625,"response_time":1682376477065.8},{"trial":11,"action":1,"button_pressed":0,"time_out":false,"dwell_time":48.10205078125,"response_time":1682376498824.74},{"trial":11,"action":1,"button_pressed":8,"time_out":false,"dwell_time":64.55712890625,"response_time":1682376499407.92},{"trial":11,"action":1,"button_pressed":5,"time_out":false,"dwell_time":64.18603515625,"response_time":1682376499790.47},{"trial":11,"action":1,"button_pressed":4,"time_out":false,"dwell_time":31.7021484375,"response_time":1682376500857.82},{"trial":11,"action":1,"button_pressed":6,"time_out":false,"dwell_time":64.19580078125,"response_time":1682376501823.21},{"trial":11,"action":1,"button_pressed":9,"time_out":false,"dwell_time":80.652099609375,"response_time":1682376503156.14},{"trial":11,"action":1,"button_pressed":7,"time_out":false,"dwell_time":48.350830078125,"response_time":1682376504006.99},{"trial":11,"action":1,"button_pressed":2,"time_out":false,"dwell_time":48.539794921875,"response_time":1682376504623.42},{"trial":11,"action":9,"button_pressed":-1,"time_out":false,"dwell_time":64.43603515625,"response_time":1682376505739.55},{"trial":12,"action":1,"button_pressed":1,"time_out":false,"dwell_time":81.571044921875,"response_time":1682376527682.03},{"trial":12,"action":1,"button_pressed":6,"time_out":false,"dwell_time":47.01806640625,"response_time":1682376527981.63},{"trial":12,"action":1,"button_pressed":5,"time_out":false,"dwell_time":80.836181640625,"response_time":1682376528664.21},{"trial":12,"action":1,"button_pressed":11,"time_out":false,"dwell_time":64.099853515625,"response_time":1682376529247.45},{"trial":12,"action":1,"button_pressed":4,"time_out":false,"dwell_time":63.97705078125,"response_time":1682376530081.04},{"trial":12,"action":1,"button_pressed":10,"time_out":false,"dwell_time":47.171875,"response_time":1682376530397.52},{"trial":12,"action":1,"button_pressed":7,"time_out":false,"dwell_time":64.805908203125,"response_time":1682376531014.21},{"trial":12,"action":1,"button_pressed":0,"time_out":false,"dwell_time":47.156982421875,"response_time":1682376531563.69},{"trial":12,"action":9,"button_pressed":-1,"time_out":false,"dwell_time":65.10205078125,"response_time":1682376533880.28}]}