{"meta_data":{"additional_headers":{},"game_name":"Recollect","version":"2.53.01","user_name":"83","organization":"braingamecenter","study":"mpl2_2022_11","session_number":0,"device_id":"74342D95-EE82-45E3-8ADF-48FB3203C5DD"},"data":[{"stage":"Practice","trial":0,"sequence":"6F","letter_input":"F","number_input":"6","is_correct":true,"presentation_start_time":1682386424752.97,"presentation_end_time":1682386427754.42,"response_time":1682386434936.08},{"stage":"Practice","trial":1,"sequence":"G4","letter_input":"G","number_input":"4","is_correct":true,"presentation_start_time":1682386436465.84,"presentation_end_time":1682386439467.08,"response_time":1682386443430.19},{"stage":"Practice","trial":2,"sequence":"3W5","letter_input":"W","number_input":"35","is_correct":true,"presentation_start_time":1682386444962.95,"presentation_end_time":1682386449463.78,"response_time":1682386457525.57},{"stage":"Practice","trial":3,"sequence":"T7L","letter_input":"LT","number_input":"7","is_correct":true,"presentation_start_time":1682386459058.26,"presentation_end_time":1682386463559.08,"response_time":1682386481984.11},{"stage":"Practice","trial":4,"sequence":"9J1","letter_input":"J","number_input":"19","is_correct":true,"presentation_start_time":1682386483516.81,"presentation_end_time":1682386488017.72,"response_time":1682386492114.17},{"stage":"Calibration","trial":0,"sequence":"Y7","letter_input":"Y","number_input":"7","is_correct":true,"presentation_start_time":1682386495746.13,"presentation_end_time":1682386498747.38,"response_time":1682386502110.8},{"stage":"Calibration","trial":1,"sequence":"2K","letter_input":"K","number_input":"2","is_correct":true,"presentation_start_time":1682386503643.49,"presentation_end_time":1682386506644.77,"response_time":1682386509958.17},{"stage":"Calibration","trial":2,"sequence":"S1C","letter_input":"CS","number_input":"1","is_correct":true,"presentation_start_time":1682386511490.89,"presentation_end_time":1682386515991.71,"response_time":1682386520604.75},{"stage":"Calibration","trial":3,"sequence":"6A4","letter_input":"A","number_input":"46","is_correct":true,"presentation_start_time":1682386522137.27,"presentation_end_time":1682386526638.26,"response_time":1682386530817.92},{"stage":"Calibration","trial":4,"sequence":"V9J3","letter_input":"JV","number_input":"39","is_correct":true,"presentation_start_time":1682386532350.66,"presentation_end_time":1682386538351.15,"response_time":1682386544763.35},{"stage":"Calibration","trial":5,"sequence":"8K1G","letter_input":"GK","number_input":"18","is_correct":true,"presentation_start_time":1682386546296.1,"presentation_end_time":1682386552296.39,"response_time":1682386557192.51},{"stage":"Calibration","trial":6,"sequence":"Q6H3Z","letter_input":"GHQ","number_input":"36","is_correct":false,"presentation_start_time":1682386558725.21,"presentation_end_time":1682386566225.16,"response_time":1682386588398.79},{"stage":"Calibration","trial":7,"sequence":"5F2D8","letter_input":"DF","number_input":"258","is_correct":true,"presentation_start_time":1682386589931.51,"presentation_end_time":1682386597431.45,"response_time":1682386607925.66},{"stage":"Calibration","trial":8,"sequence":"C3W9L7","letter_input":"CLW","number_input":"379","is_correct":true,"presentation_start_time":1682386609458.37,"presentation_end_time":1682386618457.69,"response_time":1682386633017.42},{"stage":"Calibration","trial":9,"sequence":"1V6N4Y","letter_input":"NVY","number_input":"146","is_correct":true,"presentation_start_time":1682386634550.08,"presentation_end_time":1682386643549.19,"response_time":1682386663923.8},{"stage":"Calibration","trial":10,"sequence":"L7B5R2D","letter_input":"BDLR","number_input":"257","is_correct":true,"presentation_start_time":1682386665456.45,"presentation_end_time":1682386675955.32,"response_time":1682386741747.98},{"stage":"Calibration","trial":11,"sequence":"1Z8T6G4","letter_input":"DGT","number_input":"1468","is_correct":false,"presentation_start_time":1682386743280.69,"presentation_end_time":1682386753779.43,"response_time":1682386792630.93},{"stage":"Calibration","trial":12,"sequence":"J5D2A9V7","letter_input":"ADJV","number_input":"2579","is_correct":true,"presentation_start_time":1682386794163.66,"presentation_end_time":1682386806161.86,"response_time":1682386859458.83},{"stage":"Calibration","trial":13,"sequence":"8F6R4N1B","letter_input":"FNRV","number_input":"1468","is_correct":false,"presentation_start_time":1682386860991.55,"presentation_end_time":1682386872989.86,"response_time":1682386941798.21},{"stage":"Calibration","trial":14,"sequence":"A7K2G9Y5P","letter_input":"AJKPY","number_input":"2579","is_correct":false,"presentation_start_time":1682386943330.72,"presentation_end_time":1682386956828.45,"response_time":1682387042931.11},{"stage":"Calibration","trial":15,"sequence":"8H6W4N1E9","letter_input":"EHW","number_input":"144589","is_correct":false,"presentation_start_time":1682387044463.83,"presentation_end_time":1682387057961.56,"response_time":1682387174054.06}]}