{"meta_data":{"additional_headers":{},"game_name":"Recollect","version":"2.53.01","user_name":"84","organization":"braingamecenter","study":"mpl2_2022_11","session_number":0,"device_id":"74342D95-EE82-45E3-8ADF-48FB3203C5DD"},"data":[{"stage":"Practice","trial":0,"sequence":"6F","letter_input":"F","number_input":"6","is_correct":true,"presentation_start_time":1682457217633.81,"presentation_end_time":1682457220635.12,"response_time":1682457226733.99},{"stage":"Practice","trial":1,"sequence":"G4","letter_input":"G","number_input":"4","is_correct":true,"presentation_start_time":1682457228263.56,"presentation_end_time":1682457231265.07,"response_time":1682457236510.93},{"stage":"Practice","trial":2,"sequence":"3W5","letter_input":"W","number_input":"35","is_correct":true,"presentation_start_time":1682457238043.71,"presentation_end_time":1682457242544.53,"response_time":1682457248973.48},{"stage":"Practice","trial":3,"sequence":"T7L","letter_input":"LT","number_input":"7","is_correct":true,"presentation_start_time":1682457250506.23,"presentation_end_time":1682457255006.99,"response_time":1682457259903.3},{"stage":"Practice","trial":4,"sequence":"9J1","letter_input":"J","number_input":"19","is_correct":true,"presentation_start_time":1682457261435.92,"presentation_end_time":1682457265936.88,"response_time":1682457273532.05},{"stage":"Calibration","trial":0,"sequence":"M8","letter_input":"M","number_input":"8","is_correct":true,"presentation_start_time":1682457285078.05,"presentation_end_time":1682457288079.53,"response_time":1682457294075.28},{"stage":"Calibration","trial":1,"sequence":"3A","letter_input":"A","number_input":"3","is_correct":true,"presentation_start_time":1682457295607.89,"presentation_end_time":1682457298609.28,"response_time":1682457303088.99},{"stage":"Calibration","trial":2,"sequence":"F8D","letter_input":"DF","number_input":"8","is_correct":true,"presentation_start_time":1682457304621.6,"presentation_end_time":1682457309122.5,"response_time":1682457317167.53},{"stage":"Calibration","trial":3,"sequence":"4J1","letter_input":"J","number_input":"14","is_correct":true,"presentation_start_time":1682457318700.28,"presentation_end_time":1682457323201.14,"response_time":1682457328663.86},{"stage":"Calibration","trial":4,"sequence":"R7L2","letter_input":"LR","number_input":"27","is_correct":true,"presentation_start_time":1682457330196.43,"presentation_end_time":1682457336196.91,"response_time":1682457345841.47},{"stage":"Calibration","trial":5,"sequence":"8V5D","letter_input":"DV","number_input":"58","is_correct":true,"presentation_start_time":1682457347374.08,"presentation_end_time":1682457353374.45,"response_time":1682457359037.1},{"stage":"Calibration","trial":6,"sequence":"B7W3F","letter_input":"BFW","number_input":"37","is_correct":true,"presentation_start_time":1682457360569.75,"presentation_end_time":1682457368069.61,"response_time":1682457375231.57},{"stage":"Calibration","trial":7,"sequence":"8Y6R1","letter_input":"RY","number_input":"168","is_correct":true,"presentation_start_time":1682457376764.38,"presentation_end_time":1682457384264.1,"response_time":1682457392342.7},{"stage":"Calibration","trial":8,"sequence":"P5Z3T7","letter_input":"PTZ","number_input":"357","is_correct":true,"presentation_start_time":1682457393875.34,"presentation_end_time":1682457402874.57,"response_time":1682457414468.6},{"stage":"Calibration","trial":9,"sequence":"2Q9B6W","letter_input":"PQW","number_input":"269","is_correct":false,"presentation_start_time":1682457416001.39,"presentation_end_time":1682457425000.59,"response_time":1682457439210.41},{"stage":"Calibration","trial":10,"sequence":"D5V3L8H","letter_input":"DLHV","number_input":"358","is_correct":false,"presentation_start_time":1682457440743.1,"presentation_end_time":1682457451242.03,"response_time":1682457474881.93},{"stage":"Calibration","trial":11,"sequence":"2Z9S7J4","letter_input":"JSZ","number_input":"2479","is_correct":true,"presentation_start_time":1682457476414.6,"presentation_end_time":1682457486913.46,"response_time":1682457498140.88},{"stage":"Calibration","trial":12,"sequence":"W3G1B8T6","letter_input":"GTWZ","number_input":"3168","is_correct":false,"presentation_start_time":1682457499673.51,"presentation_end_time":1682457511671.93,"response_time":1682457528197.62},{"stage":"Calibration","trial":13,"sequence":"5S2J9D7V","letter_input":"DJSV","number_input":"2579","is_correct":true,"presentation_start_time":1682457529730.22,"presentation_end_time":1682457541728.5,"response_time":1682457560603.39},{"stage":"Calibration","trial":14,"sequence":"Q3F8A6N1H","letter_input":"AFHNQ","number_input":"1368","is_correct":true,"presentation_start_time":1682457562136.11,"presentation_end_time":1682457575633.9,"response_time":1682457601173.28},{"stage":"Calibration","trial":15,"sequence":"7Z2L9C4T8","letter_input":"CLTZ","number_input":"24789","is_correct":true,"presentation_start_time":1682457602705.96,"presentation_end_time":1682457616203.91,"response_time":1682457633329.31},{"stage":"Calibration","trial":16,"sequence":"Q3J1H5F9D7","letter_input":"DFHJQ","number_input":"13579","is_correct":true,"presentation_start_time":1682457634862.04,"presentation_end_time":1682457649859.41,"response_time":1682457681696.48},{"stage":"Calibration","trial":17,"sequence":"8W2R6Y5L4T","letter_input":"LRWY","number_input":"24568","is_correct":false,"presentation_start_time":1682457683229.19,"presentation_end_time":1682457698226.75,"response_time":1682457731313.38},{"stage":"Calibration","trial":18,"sequence":"J7Q3E9V1N6B","letter_input":"BJQV","number_input":"1379","is_correct":false,"presentation_start_time":1682457732846.03,"presentation_end_time":1682457749343.02,"response_time":1682457799790.7},{"stage":"Calibration","trial":19,"sequence":"8P5D2A6Z4H1","letter_input":"DHJPZ","number_input":"12568","is_correct":false,"presentation_start_time":1682457801323.34,"presentation_end_time":1682457817820.13,"response_time":1682457843892.69}]}