{"meta_data":{"additional_headers":{},"game_name":"Recollect","version":"2.53.01","user_name":"85","organization":"braingamecenter","study":"mpl2_2022_11","session_number":0,"device_id":"74342D95-EE82-45E3-8ADF-48FB3203C5DD"},"data":[{"stage":"Practice","trial":0,"sequence":"6F","letter_input":"F","number_input":"6","is_correct":true,"presentation_start_time":1682528109907.73,"presentation_end_time":1682528112909.13,"response_time":1682528126272.19},{"stage":"Practice","trial":1,"sequence":"G4","letter_input":"G","number_input":"4","is_correct":true,"presentation_start_time":1682528127801.97,"presentation_end_time":1682528130803.42,"response_time":1682528143613.74},{"stage":"Practice","trial":2,"sequence":"3W5","letter_input":"W","number_input":"35","is_correct":true,"presentation_start_time":1682528145146.57,"presentation_end_time":1682528149647.29,"response_time":1682528156059.7},{"stage":"Practice","trial":3,"sequence":"T7L","letter_input":"LT","number_input":"7","is_correct":true,"presentation_start_time":1682528157592.49,"presentation_end_time":1682528162093.34,"response_time":1682528173237.52},{"stage":"Practice","trial":4,"sequence":"9J1","letter_input":"J","number_input":"19","is_correct":true,"presentation_start_time":1682528174770.25,"presentation_end_time":1682528179271.11,"response_time":1682528187949.4},{"stage":"Calibration","trial":0,"sequence":"Y9","letter_input":"Y","number_input":"9","is_correct":true,"presentation_start_time":1682528196563.18,"presentation_end_time":1682528199564.54,"response_time":1682528205693.69},{"stage":"Calibration","trial":1,"sequence":"6H","letter_input":"H","number_input":"6","is_correct":true,"presentation_start_time":1682528207226.48,"presentation_end_time":1682528210227.9,"response_time":1682528213857.79},{"stage":"Calibration","trial":2,"sequence":"L1G","letter_input":"GL","number_input":"1","is_correct":true,"presentation_start_time":1682528215390.41,"presentation_end_time":1682528219891.42,"response_time":1682528233434.64},{"stage":"Calibration","trial":3,"sequence":"5Q3","letter_input":"Q","number_input":"35","is_correct":true,"presentation_start_time":1682528234967.36,"presentation_end_time":1682528239468.31,"response_time":1682528246297.25},{"stage":"Calibration","trial":4,"sequence":"M9C6","letter_input":"CM","number_input":"69","is_correct":true,"presentation_start_time":1682528247829.9,"presentation_end_time":1682528253830.39,"response_time":1682528264358.06},{"stage":"Calibration","trial":5,"sequence":"5P2D","letter_input":"DP","number_input":"25","is_correct":true,"presentation_start_time":1682528265890.85,"presentation_end_time":1682528271891.07,"response_time":1682528286317.56},{"stage":"Calibration","trial":6,"sequence":"L8E3T","letter_input":"ELT","number_input":"38","is_correct":true,"presentation_start_time":1682528287850.28,"presentation_end_time":1682528295350.17,"response_time":1682528328287.4},{"stage":"Calibration","trial":7,"sequence":"7H4B9","letter_input":"BH","number_input":"479","is_correct":true,"presentation_start_time":1682528329820.1,"presentation_end_time":1682528337319.97,"response_time":1682528355561.84},{"stage":"Calibration","trial":8,"sequence":"E6L2J8","letter_input":"EJL","number_input":"26","is_correct":false,"presentation_start_time":1682528357094.63,"presentation_end_time":1682528366094.11,"response_time":1682528374389.26},{"stage":"Calibration","trial":9,"sequence":"1W9G5B","letter_input":"BGW","number_input":"159","is_correct":true,"presentation_start_time":1682528375921.85,"presentation_end_time":1682528384921.11,"response_time":1682528408011.64},{"stage":"Calibration","trial":10,"sequence":"F7D4Z2K","letter_input":"DFKZ","number_input":"247","is_correct":true,"presentation_start_time":1682528409544.24,"presentation_end_time":1682528420043.12,"response_time":1682528454696.53},{"stage":"Calibration","trial":11,"sequence":"3C8Q1J6","letter_input":"CGQ","number_input":"136","is_correct":false,"presentation_start_time":1682528456229.24,"presentation_end_time":1682528466728.2,"response_time":1682528509678.71},{"stage":"Calibration","trial":12,"sequence":"D2Y9R7H4","letter_input":"CDH","number_input":"1247","is_correct":false,"presentation_start_time":1682528511211.3,"presentation_end_time":1682528523209.83,"response_time":1682528554897.38},{"stage":"Calibration","trial":13,"sequence":"1N8A5Z3Q","letter_input":"CHQZ","number_input":"138","is_correct":false,"presentation_start_time":1682528556430.04,"presentation_end_time":1682528568428.44,"response_time":1682528598583.21}]}