{"meta_data":{"additional_headers":{},"game_name":"Recollect","version":"2.53.01","user_name":"86","organization":"braingamecenter","study":"mpl2_2022_11","session_number":0,"device_id":"74342D95-EE82-45E3-8ADF-48FB3203C5DD"},"data":[{"stage":"Practice","trial":0,"sequence":"6F","letter_input":"F","number_input":"6","is_correct":true,"presentation_start_time":1682536330536.3,"presentation_end_time":1682536333537.8,"response_time":1682536341800.84},{"stage":"Practice","trial":1,"sequence":"G4","letter_input":"G","number_input":"4","is_correct":true,"presentation_start_time":1682536343332.03,"presentation_end_time":1682536346333.25,"response_time":1682536354078.53},{"stage":"Practice","trial":2,"sequence":"3W5","letter_input":"W","number_input":"35","is_correct":true,"presentation_start_time":1682536355611.19,"presentation_end_time":1682536360112.04,"response_time":1682536366607.72},{"stage":"Practice","trial":3,"sequence":"T7L","letter_input":"LT","number_input":"7","is_correct":true,"presentation_start_time":1682536368140.44,"presentation_end_time":1682536372641.33,"response_time":1682536379186.84},{"stage":"Practice","trial":4,"sequence":"9J1","letter_input":"J","number_input":"19","is_correct":true,"presentation_start_time":1682536380719.59,"presentation_end_time":1682536385220.35,"response_time":1682536388983.55},{"stage":"Calibration","trial":0,"sequence":"2A","letter_input":"A","number_input":"2","is_correct":true,"presentation_start_time":1682536396064.46,"presentation_end_time":1682536399065.75,"response_time":1682536402245.84},{"stage":"Calibration","trial":1,"sequence":"Z4","letter_input":"Z","number_input":"4","is_correct":true,"presentation_start_time":1682536403778.53,"presentation_end_time":1682536406779.8,"response_time":1682536410243.16},{"stage":"Calibration","trial":2,"sequence":"7K2","letter_input":"K","number_input":"27","is_correct":true,"presentation_start_time":1682536411775.8,"presentation_end_time":1682536416276.79,"response_time":1682536420006.54},{"stage":"Calibration","trial":3,"sequence":"W5P","letter_input":"PW","number_input":"5","is_correct":true,"presentation_start_time":1682536421539.22,"presentation_end_time":1682536426040.1,"response_time":1682536431286.05},{"stage":"Calibration","trial":4,"sequence":"6Q3D","letter_input":"DQ","number_input":"36","is_correct":true,"presentation_start_time":1682536432818.88,"presentation_end_time":1682536438819.11,"response_time":1682536449579.96},{"stage":"Calibration","trial":5,"sequence":"M8C2","letter_input":"CM","number_input":"28","is_correct":true,"presentation_start_time":1682536451112.71,"presentation_end_time":1682536457113.02,"response_time":1682536464941.55},{"stage":"Calibration","trial":6,"sequence":"4W9S6","letter_input":"SW","number_input":"469","is_correct":true,"presentation_start_time":1682536466474.28,"presentation_end_time":1682536473974.15,"response_time":1682536488250.5},{"stage":"Calibration","trial":7,"sequence":"Z7N1L","letter_input":"LNZ","number_input":"17","is_correct":true,"presentation_start_time":1682536489783.15,"presentation_end_time":1682536497283.03,"response_time":1682536513958.45},{"stage":"Calibration","trial":8,"sequence":"9S6E2B","letter_input":"ES","number_input":"269","is_correct":false,"presentation_start_time":1682536515491.22,"presentation_end_time":1682536524490.6,"response_time":1682536540049.85},{"stage":"Calibration","trial":9,"sequence":"F5W1M8","letter_input":"FW","number_input":"158","is_correct":false,"presentation_start_time":1682536541582.57,"presentation_end_time":1682536550581.95,"response_time":1682536567524.04}]}