{"meta_data":{"additional_headers":{},"game_name":"Recollect","version":"2.53.01","user_name":"86","organization":"braingamecenter","study":"mpl2_2022_11","session_number":0,"device_id":"74342D95-EE82-45E3-8ADF-48FB3203C5DD"},"data":[{"trial":0,"action":1,"button_pressed":0,"time_out":false,"dwell_time":80.713134765625,"response_time":1682536006113.12},{"trial":0,"action":1,"button_pressed":6,"time_out":false,"dwell_time":63.2138671875,"response_time":1682536006295.42},{"trial":0,"action":9,"button_pressed":-1,"time_out":false,"dwell_time":74.705078125,"response_time":1682536006972.37},{"trial":1,"action":1,"button_pressed":0,"time_out":false,"dwell_time":80.175048828125,"response_time":1682536016392.26},{"trial":1,"action":1,"button_pressed":10,"time_out":false,"dwell_time":30.323974609375,"response_time":1682536016575.99},{"trial":1,"action":1,"button_pressed":11,"time_out":false,"dwell_time":63.949951171875,"response_time":1682536016841.91},{"trial":1,"action":9,"button_pressed":-1,"time_out":false,"dwell_time":47.743896484375,"response_time":1682536017509.39},{"trial":2,"action":1,"button_pressed":10,"time_out":false,"dwell_time":63.539794921875,"response_time":1682536029204.67},{"trial":2,"action":1,"button_pressed":3,"time_out":false,"dwell_time":132.0419921875,"response_time":1682536029422.32},{"trial":2,"action":1,"button_pressed":6,"time_out":false,"dwell_time":63.18603515625,"response_time":1682536029637.69},{"trial":2,"action":1,"button_pressed":8,"time_out":false,"dwell_time":64.156005859375,"response_time":1682536029887.73},{"trial":2,"action":9,"button_pressed":-1,"time_out":false,"dwell_time":81.43701171875,"response_time":1682536030887.77},{"trial":3,"action":1,"button_pressed":3,"time_out":false,"dwell_time":80.4140625,"response_time":1682536045016.11},{"trial":3,"action":1,"button_pressed":8,"time_out":false,"dwell_time":63.875,"response_time":1682536045499.74},{"trial":3,"action":1,"button_pressed":4,"time_out":false,"dwell_time":81.7060546875,"response_time":1682536045916.39},{"trial":3,"action":1,"button_pressed":10,"time_out":false,"dwell_time":47.99609375,"response_time":1682536046282.56},{"trial":3,"action":1,"button_pressed":11,"time_out":false,"dwell_time":64.671142578125,"response_time":1682536046665.99},{"trial":3,"action":9,"button_pressed":-1,"time_out":false,"dwell_time":47.81103515625,"response_time":1682536047565.95},{"trial":4,"action":1,"button_pressed":6,"time_out":false,"dwell_time":80.112060546875,"response_time":1682536064292.98},{"trial":4,"action":1,"button_pressed":5,"time_out":false,"dwell_time":48.06103515625,"response_time":1682536064693.22},{"trial":4,"action":1,"button_pressed":0,"time_out":false,"dwell_time":114.462158203125,"response_time":1682536065092.9},{"trial":4,"action":1,"button_pressed":11,"time_out":false,"dwell_time":80.843017578125,"response_time":1682536065609.8},{"trial":4,"action":1,"button_pressed":8,"time_out":false,"dwell_time":80.68896484375,"response_time":1682536066009.66},{"trial":4,"action":1,"button_pressed":4,"time_out":false,"dwell_time":48.1181640625,"response_time":1682536066360.13},{"trial":4,"action":9,"button_pressed":-1,"time_out":false,"dwell_time":81.451171875,"response_time":1682536067276.43},{"trial":5,"action":1,"button_pressed":8,"time_out":false,"dwell_time":97.514892578125,"response_time":1682536086802.75},{"trial":5,"action":1,"button_pressed":5,"time_out":false,"dwell_time":63.22802734375,"response_time":1682536087201.91},{"trial":5,"action":1,"button_pressed":1,"time_out":false,"dwell_time":97.075927734375,"response_time":1682536088335.03},{"trial":5,"action":1,"button_pressed":6,"time_out":false,"dwell_time":80.462890625,"response_time":1682536088767.96},{"trial":5,"action":1,"button_pressed":0,"time_out":false,"dwell_time":80.984130859375,"response_time":1682536089167.98},{"trial":5,"action":1,"button_pressed":7,"time_out":false,"dwell_time":80.760009765625,"response_time":1682536089484.54},{"trial":5,"action":1,"button_pressed":11,"time_out":false,"dwell_time":48.8759765625,"response_time":1682536089869.09},{"trial":5,"action":9,"button_pressed":-1,"time_out":false,"dwell_time":31.841064453125,"response_time":1682536090702.32},{"trial":6,"action":1,"button_pressed":5,"time_out":false,"dwell_time":63.72412109375,"response_time":1682536112676.84},{"trial":6,"action":1,"button_pressed":6,"time_out":false,"dwell_time":98.017822265625,"response_time":1682536112960.7},{"trial":6,"action":1,"button_pressed":11,"time_out":false,"dwell_time":63.39013671875,"response_time":1682536113259.8},{"trial":6,"action":1,"button_pressed":1,"time_out":false,"dwell_time":47.302001953125,"response_time":1682536113743.45},{"trial":6,"action":1,"button_pressed":10,"time_out":false,"dwell_time":47.110107421875,"response_time":1682536114093.28},{"trial":6,"action":1,"button_pressed":4,"time_out":false,"dwell_time":47.8759765625,"response_time":1682536114494.02},{"trial":6,"action":1,"button_pressed":7,"time_out":false,"dwell_time":80.06787109375,"response_time":1682536114709.43},{"trial":6,"action":1,"button_pressed":0,"time_out":false,"dwell_time":64.886962890625,"response_time":1682536114976.71},{"trial":6,"action":9,"button_pressed":-1,"time_out":false,"dwell_time":32.031982421875,"response_time":1682536115810.05},{"trial":7,"action":1,"button_pressed":10,"time_out":false,"dwell_time":130.68896484375,"response_time":1682536138152.4},{"trial":7,"action":1,"button_pressed":2,"time_out":false,"dwell_time":64.22314453125,"response_time":1682536138468.85},{"trial":7,"action":1,"button_pressed":1,"time_out":false,"dwell_time":97.013916015625,"response_time":1682536138801.7},{"trial":7,"action":1,"button_pressed":8,"time_out":false,"dwell_time":80.6337890625,"response_time":1682536139301.8},{"trial":7,"action":1,"button_pressed":11,"time_out":false,"dwell_time":79.882080078125,"response_time":1682536139667.75},{"trial":7,"action":1,"button_pressed":4,"time_out":false,"dwell_time":81.315185546875,"response_time":1682536142817.44},{"trial":7,"action":1,"button_pressed":9,"time_out":false,"dwell_time":63.580078125,"response_time":1682536143033.48},{"trial":7,"action":1,"button_pressed":5,"time_out":false,"dwell_time":114.77001953125,"response_time":1682536143317.31},{"trial":7,"action":9,"button_pressed":-1,"time_out":false,"dwell_time":82.118896484375,"response_time":1682536143850.78},{"trial":8,"action":1,"button_pressed":10,"time_out":false,"dwell_time":97.708984375,"response_time":1682536160894.34},{"trial":8,"action":1,"button_pressed":2,"time_out":false,"dwell_time":80.9140625,"response_time":1682536161144.73},{"trial":8,"action":1,"button_pressed":9,"time_out":false,"dwell_time":30.51611328125,"response_time":1682536162260.78},{"trial":8,"action":1,"button_pressed":5,"time_out":false,"dwell_time":97.674072265625,"response_time":1682536162543.69},{"trial":8,"action":1,"button_pressed":11,"time_out":false,"dwell_time":64.027099609375,"response_time":1682536162793.48},{"trial":8,"action":1,"button_pressed":0,"time_out":false,"dwell_time":30.45703125,"response_time":1682536163276.85},{"trial":8,"action":9,"button_pressed":-1,"time_out":false,"dwell_time":64.818115234375,"response_time":1682536163710.92},{"trial":9,"action":1,"button_pressed":2,"time_out":false,"dwell_time":80.9541015625,"response_time":1682536183087.32},{"trial":9,"action":1,"button_pressed":6,"time_out":false,"dwell_time":63.947998046875,"response_time":1682536183537.01},{"trial":9,"action":1,"button_pressed":9,"time_out":false,"dwell_time":63.4951171875,"response_time":1682536184086.26},{"trial":9,"action":1,"button_pressed":0,"time_out":false,"dwell_time":114.200927734375,"response_time":1682536187068.52},{"trial":9,"action":1,"button_pressed":3,"time_out":false,"dwell_time":98.27978515625,"response_time":1682536187635.71},{"trial":9,"action":1,"button_pressed":10,"time_out":false,"dwell_time":63.18701171875,"response_time":1682536188051.53},{"trial":9,"action":1,"button_pressed":7,"time_out":false,"dwell_time":80.680908203125,"response_time":1682536188285.57},{"trial":9,"action":9,"button_pressed":-1,"time_out":false,"dwell_time":48.407958984375,"response_time":1682536188786.15},{"trial":10,"action":1,"button_pressed":2,"time_out":false,"dwell_time":97.55517578125,"response_time":1682536210694.16},{"trial":10,"action":1,"button_pressed":4,"time_out":false,"dwell_time":64.030029296875,"response_time":1682536211194.45},{"trial":10,"action":1,"button_pressed":11,"time_out":false,"dwell_time":96.343994140625,"response_time":1682536211743.78},{"trial":10,"action":1,"button_pressed":6,"time_out":false,"dwell_time":113.8759765625,"response_time":1682536212843.81},{"trial":10,"action":1,"button_pressed":5,"time_out":false,"dwell_time":114.419921875,"response_time":1682536213559.87},{"trial":10,"action":1,"button_pressed":0,"time_out":false,"dwell_time":63.5791015625,"response_time":1682536214726.04},{"trial":10,"action":1,"button_pressed":10,"time_out":false,"dwell_time":47.1279296875,"response_time":1682536215109.65},{"trial":10,"action":1,"button_pressed":3,"time_out":false,"dwell_time":114.79296875,"response_time":1682536215609.68},{"trial":10,"action":9,"button_pressed":-1,"time_out":false,"dwell_time":98.64990234375,"response_time":1682536216226.61},{"trial":11,"action":1,"button_pressed":0,"time_out":false,"dwell_time":80.349853515625,"response_time":1682536249847.77},{"trial":11,"action":1,"button_pressed":7,"time_out":false,"dwell_time":79.921875,"response_time":1682536250097.45},{"trial":11,"action":1,"button_pressed":1,"time_out":false,"dwell_time":114.069091796875,"response_time":1682536250997.91},{"trial":11,"action":1,"button_pressed":10,"time_out":false,"dwell_time":179.928955078125,"response_time":1682536252096.88},{"trial":11,"action":9,"button_pressed":-1,"time_out":true,"dwell_time":10193.6020507813,"response_time":1682536262110.55},{"trial":12,"action":1,"button_pressed":5,"time_out":false,"dwell_time":81.725830078125,"response_time":1682536286936.06},{"trial":12,"action":1,"button_pressed":11,"time_out":false,"dwell_time":80.591064453125,"response_time":1682536287119.28},{"trial":12,"action":1,"button_pressed":6,"time_out":false,"dwell_time":63.9072265625,"response_time":1682536287502.31},{"trial":12,"action":1,"button_pressed":6,"time_out":false,"dwell_time":97.69482421875,"response_time":1682536288535.18},{"trial":12,"action":1,"button_pressed":6,"time_out":false,"dwell_time":80.005859375,"response_time":1682536289667.78},{"trial":12,"action":0,"button_pressed":-1,"time_out":false,"dwell_time":48.450927734375,"response_time":1682536290434.62},{"trial":12,"action":1,"button_pressed":5,"time_out":false,"dwell_time":63.72900390625,"response_time":1682536291017.26},{"trial":12,"action":1,"button_pressed":11,"time_out":false,"dwell_time":79.2470703125,"response_time":1682536291216.39},{"trial":12,"action":1,"button_pressed":3,"time_out":false,"dwell_time":98.203857421875,"response_time":1682536292017.58},{"trial":12,"action":1,"button_pressed":4,"time_out":false,"dwell_time":80.738037109375,"response_time":1682536293433.77},{"trial":12,"action":1,"button_pressed":10,"time_out":false,"dwell_time":64.552001953125,"response_time":1682536293684.11},{"trial":12,"action":1,"button_pressed":7,"time_out":false,"dwell_time":79.6240234375,"response_time":1682536293849.62},{"trial":12,"action":1,"button_pressed":7,"time_out":false,"dwell_time":114.990966796875,"response_time":1682536294583.46},{"trial":12,"action":1,"button_pressed":2,"time_out":false,"dwell_time":80.7939453125,"response_time":1682536294866.64},{"trial":12,"action":1,"button_pressed":9,"time_out":false,"dwell_time":63.051025390625,"response_time":1682536296498.83},{"trial":12,"action":9,"button_pressed":-1,"time_out":false,"dwell_time":48.025146484375,"response_time":1682536297199.7}]}