{"meta_data":{"additional_headers":{},"game_name":"Recollect","version":"2.53.01","user_name":"87","organization":"braingamecenter","study":"mpl2_2022_11","session_number":0,"device_id":"74342D95-EE82-45E3-8ADF-48FB3203C5DD"},"data":[{"stage":"Practice","trial":0,"sequence":"6F","letter_input":"F","number_input":"6","is_correct":true,"presentation_start_time":1682626441610.04,"presentation_end_time":1682626444611.37,"response_time":1682626453126.13},{"stage":"Practice","trial":1,"sequence":"G4","letter_input":"G","number_input":"4","is_correct":true,"presentation_start_time":1682626454655.77,"presentation_end_time":1682626457657.27,"response_time":1682626463386.3},{"stage":"Practice","trial":2,"sequence":"3W5","letter_input":"W","number_input":"35","is_correct":true,"presentation_start_time":1682626464919.01,"presentation_end_time":1682626469419.95,"response_time":1682626474665.89},{"stage":"Practice","trial":3,"sequence":"T7L","letter_input":"LT","number_input":"7","is_correct":true,"presentation_start_time":1682626476198.69,"presentation_end_time":1682626480699.53,"response_time":1682626489777.58},{"stage":"Practice","trial":4,"sequence":"9J1","letter_input":"J","number_input":"19","is_correct":true,"presentation_start_time":1682626491310.34,"presentation_end_time":1682626495811.11,"response_time":1682626500357.46},{"stage":"Calibration","trial":0,"sequence":"1J","letter_input":"J","number_input":"1","is_correct":true,"presentation_start_time":1682626518717.91,"presentation_end_time":1682626521719.3,"response_time":1682626525515.82},{"stage":"Calibration","trial":1,"sequence":"F3","letter_input":"F","number_input":"3","is_correct":true,"presentation_start_time":1682626527048.5,"presentation_end_time":1682626530049.83,"response_time":1682626533229.92},{"stage":"Calibration","trial":2,"sequence":"9V7","letter_input":"V","number_input":"79","is_correct":true,"presentation_start_time":1682626534762.62,"presentation_end_time":1682626539263.48,"response_time":1682626545092.69},{"stage":"Calibration","trial":3,"sequence":"J4C","letter_input":"CJ","number_input":"4","is_correct":true,"presentation_start_time":1682626546625.34,"presentation_end_time":1682626551126.22,"response_time":1682626557188.7},{"stage":"Calibration","trial":4,"sequence":"7Z3P","letter_input":"PZ","number_input":"37","is_correct":true,"presentation_start_time":1682626558721.34,"presentation_end_time":1682626564721.69,"response_time":1682626571000.79},{"stage":"Calibration","trial":5,"sequence":"K9G4","letter_input":"GK","number_input":"49","is_correct":true,"presentation_start_time":1682626572533.47,"presentation_end_time":1682626578533.83,"response_time":1682626587245.32},{"stage":"Calibration","trial":6,"sequence":"2D8A6","letter_input":"AD","number_input":"268","is_correct":true,"presentation_start_time":1682626588778.09,"presentation_end_time":1682626596278.09,"response_time":1682626609188.13},{"stage":"Calibration","trial":7,"sequence":"Q5E1S","letter_input":"SD","number_input":"13","is_correct":false,"presentation_start_time":1682626610720.89,"presentation_end_time":1682626618220.72,"response_time":1682626623633.35},{"stage":"Calibration","trial":8,"sequence":"9K7H3N","letter_input":"HKN","number_input":"379","is_correct":true,"presentation_start_time":1682626625166.02,"presentation_end_time":1682626634165.4,"response_time":1682626652707.14},{"stage":"Calibration","trial":9,"sequence":"P2M6G4","letter_input":"KNP","number_input":"267","is_correct":false,"presentation_start_time":1682626654239.79,"presentation_end_time":1682626663239.17,"response_time":1682626679248.27},{"stage":"Calibration","trial":10,"sequence":"3B8Q5N1","letter_input":"BPQN","number_input":"1358","is_correct":false,"presentation_start_time":1682626680781.03,"presentation_end_time":1682626691279.98,"response_time":1682626718418.73},{"stage":"Calibration","trial":11,"sequence":"Y7S4K2F","letter_input":"KNSY","number_input":"742","is_correct":false,"presentation_start_time":1682626719951.37,"presentation_end_time":1682626730450.24,"response_time":1682626754939.95}]}