{"meta_data":{"additional_headers":{},"game_name":"Recollect","version":"2.53.01","user_name":"87","organization":"braingamecenter","study":"mpl2_2022_11","session_number":0,"device_id":"74342D95-EE82-45E3-8ADF-48FB3203C5DD"},"data":[{"trial":0,"action":1,"button_pressed":2,"time_out":false,"dwell_time":47.329833984375,"response_time":1682626039610.9},{"trial":0,"action":1,"button_pressed":9,"time_out":false,"dwell_time":48.4189453125,"response_time":1682626040194.8},{"trial":0,"action":9,"button_pressed":-1,"time_out":false,"dwell_time":92.840087890625,"response_time":1682626040822.03},{"trial":1,"action":1,"button_pressed":4,"time_out":false,"dwell_time":81.007080078125,"response_time":1682626050207.01},{"trial":1,"action":1,"button_pressed":7,"time_out":false,"dwell_time":47.76904296875,"response_time":1682626050724.57},{"trial":1,"action":1,"button_pressed":10,"time_out":false,"dwell_time":63.876220703125,"response_time":1682626051257.22},{"trial":1,"action":9,"button_pressed":-1,"time_out":false,"dwell_time":65.1240234375,"response_time":1682626051907.41},{"trial":2,"action":1,"button_pressed":3,"time_out":false,"dwell_time":48.123046875,"response_time":1682626063853.68},{"trial":2,"action":1,"button_pressed":5,"time_out":false,"dwell_time":98.049072265625,"response_time":1682626064236.27},{"trial":2,"action":1,"button_pressed":9,"time_out":false,"dwell_time":64.763916015625,"response_time":1682626064669.45},{"trial":2,"action":1,"button_pressed":2,"time_out":false,"dwell_time":47.23388671875,"response_time":1682626065169.1},{"trial":2,"action":9,"button_pressed":-1,"time_out":false,"dwell_time":48.44287109375,"response_time":1682626065619.64},{"trial":3,"action":1,"button_pressed":9,"time_out":false,"dwell_time":64.156005859375,"response_time":1682626080114.5},{"trial":3,"action":1,"button_pressed":0,"time_out":false,"dwell_time":64.842041015625,"response_time":1682626080564.15},{"trial":3,"action":1,"button_pressed":2,"time_out":false,"dwell_time":81.4990234375,"response_time":1682626080897.39},{"trial":3,"action":1,"button_pressed":1,"time_out":false,"dwell_time":80.6669921875,"response_time":1682626081447.35},{"trial":3,"action":1,"button_pressed":6,"time_out":false,"dwell_time":47.696044921875,"response_time":1682626081864.24},{"trial":3,"action":9,"button_pressed":-1,"time_out":false,"dwell_time":16.63720703125,"response_time":1682626082446.6},{"trial":4,"action":1,"button_pressed":0,"time_out":false,"dwell_time":64.2822265625,"response_time":1682626099491.45},{"trial":4,"action":1,"button_pressed":4,"time_out":false,"dwell_time":80.514892578125,"response_time":1682626099790.56},{"trial":4,"action":1,"button_pressed":11,"time_out":false,"dwell_time":63.989013671875,"response_time":1682626100290.4},{"trial":4,"action":1,"button_pressed":3,"time_out":false,"dwell_time":47.73388671875,"response_time":1682626100741.4},{"trial":4,"action":1,"button_pressed":5,"time_out":false,"dwell_time":46.739990234375,"response_time":1682626101590.38},{"trial":4,"action":1,"button_pressed":7,"time_out":false,"dwell_time":64.62890625,"response_time":1682626102207.04},{"trial":4,"action":9,"button_pressed":-1,"time_out":false,"dwell_time":82.135986328125,"response_time":1682626102840.74},{"trial":5,"action":1,"button_pressed":11,"time_out":false,"dwell_time":48.006103515625,"response_time":1682626122383.54},{"trial":5,"action":1,"button_pressed":4,"time_out":false,"dwell_time":63.911865234375,"response_time":1682626122883.67},{"trial":5,"action":1,"button_pressed":3,"time_out":false,"dwell_time":64.73291015625,"response_time":1682626123216.78},{"trial":5,"action":1,"button_pressed":10,"time_out":false,"dwell_time":80.380126953125,"response_time":1682626123600.11},{"trial":5,"action":1,"button_pressed":2,"time_out":false,"dwell_time":97.95703125,"response_time":1682626124016.58},{"trial":5,"action":1,"button_pressed":8,"time_out":false,"dwell_time":64.614990234375,"response_time":1682626124449.6},{"trial":5,"action":1,"button_pressed":1,"time_out":false,"dwell_time":64.885986328125,"response_time":1682626124999.52},{"trial":5,"action":9,"button_pressed":-1,"time_out":false,"dwell_time":49.114990234375,"response_time":1682626125450.33},{"trial":6,"action":1,"button_pressed":9,"time_out":false,"dwell_time":64.93994140625,"response_time":1682626147242.57},{"trial":6,"action":1,"button_pressed":7,"time_out":false,"dwell_time":64.26220703125,"response_time":1682626147641.86},{"trial":6,"action":1,"button_pressed":4,"time_out":false,"dwell_time":47.0888671875,"response_time":1682626148141.84},{"trial":6,"action":1,"button_pressed":3,"time_out":false,"dwell_time":47.18896484375,"response_time":1682626148541.78},{"trial":6,"action":1,"button_pressed":10,"time_out":false,"dwell_time":63.879150390625,"response_time":1682626148991.89},{"trial":6,"action":1,"button_pressed":8,"time_out":false,"dwell_time":63.85693359375,"response_time":1682626151940.82},{"trial":6,"action":1,"button_pressed":6,"time_out":false,"dwell_time":80.66015625,"response_time":1682626152873.3},{"trial":6,"action":1,"button_pressed":5,"time_out":false,"dwell_time":63.3427734375,"response_time":1682626153472.19},{"trial":6,"action":9,"button_pressed":-1,"time_out":false,"dwell_time":114.929931640625,"response_time":1682626156423.49},{"trial":7,"action":1,"button_pressed":1,"time_out":false,"dwell_time":114.26611328125,"response_time":1682626178332.45},{"trial":7,"action":1,"button_pressed":10,"time_out":false,"dwell_time":113.533935546875,"response_time":1682626178797.95},{"trial":7,"action":1,"button_pressed":2,"time_out":false,"dwell_time":96.657958984375,"response_time":1682626179297.75},{"trial":7,"action":1,"button_pressed":7,"time_out":false,"dwell_time":113.989990234375,"response_time":1682626180014.3},{"trial":7,"action":1,"button_pressed":3,"time_out":false,"dwell_time":113.905029296875,"response_time":1682626180663.89},{"trial":7,"action":1,"button_pressed":9,"time_out":false,"dwell_time":130.552001953125,"response_time":1682626181313.75},{"trial":7,"action":1,"button_pressed":4,"time_out":false,"dwell_time":114.191162109375,"response_time":1682626182013.6},{"trial":7,"action":1,"button_pressed":6,"time_out":false,"dwell_time":47.821044921875,"response_time":1682626183846.76},{"trial":7,"action":9,"button_pressed":-1,"time_out":false,"dwell_time":114.005126953125,"response_time":1682626185979.5},{"trial":8,"action":1,"button_pressed":0,"time_out":false,"dwell_time":64.010986328125,"response_time":1682626203323.37},{"trial":8,"action":1,"button_pressed":6,"time_out":false,"dwell_time":63.297119140625,"response_time":1682626203823.06},{"trial":8,"action":1,"button_pressed":5,"time_out":false,"dwell_time":130.531005859375,"response_time":1682626204372.87},{"trial":8,"action":1,"button_pressed":4,"time_out":false,"dwell_time":98.13623046875,"response_time":1682626204989.93},{"trial":8,"action":1,"button_pressed":11,"time_out":false,"dwell_time":80.2060546875,"response_time":1682626205606.07},{"trial":8,"action":1,"button_pressed":10,"time_out":false,"dwell_time":97.973876953125,"response_time":1682626206106.32},{"trial":8,"action":9,"button_pressed":-1,"time_out":false,"dwell_time":64.7890625,"response_time":1682626207122.5},{"trial":9,"action":1,"button_pressed":5,"time_out":false,"dwell_time":80.43505859375,"response_time":1682626224316.44},{"trial":9,"action":1,"button_pressed":10,"time_out":false,"dwell_time":64.47412109375,"response_time":1682626224666.8},{"trial":9,"action":1,"button_pressed":7,"time_out":false,"dwell_time":63.489013671875,"response_time":1682626225083.36},{"trial":9,"action":1,"button_pressed":4,"time_out":false,"dwell_time":80.72607421875,"response_time":1682626225483.52},{"trial":9,"action":1,"button_pressed":0,"time_out":false,"dwell_time":80.841796875,"response_time":1682626225799.8},{"trial":9,"action":1,"button_pressed":8,"time_out":false,"dwell_time":64.041015625,"response_time":1682626226265.6},{"trial":9,"action":9,"button_pressed":-1,"time_out":false,"dwell_time":16.815185546875,"response_time":1682626227731.89},{"trial":10,"action":1,"button_pressed":7,"time_out":false,"dwell_time":81.886962890625,"response_time":1682626247476.43},{"trial":10,"action":1,"button_pressed":11,"time_out":false,"dwell_time":98.39501953125,"response_time":1682626247759.53},{"trial":10,"action":1,"button_pressed":0,"time_out":false,"dwell_time":98.01904296875,"response_time":1682626248258.95},{"trial":10,"action":1,"button_pressed":3,"time_out":false,"dwell_time":97.81103515625,"response_time":1682626248591.74},{"trial":10,"action":1,"button_pressed":9,"time_out":false,"dwell_time":80.507080078125,"response_time":1682626248924.81},{"trial":10,"action":1,"button_pressed":5,"time_out":false,"dwell_time":81.616943359375,"response_time":1682626249375.5},{"trial":10,"action":1,"button_pressed":6,"time_out":false,"dwell_time":63.796875,"response_time":1682626249991.58},{"trial":10,"action":9,"button_pressed":-1,"time_out":false,"dwell_time":64.89697265625,"response_time":1682626250858.33},{"trial":11,"action":1,"button_pressed":7,"time_out":false,"dwell_time":65.053955078125,"response_time":1682626272901.24},{"trial":11,"action":1,"button_pressed":5,"time_out":false,"dwell_time":97.740966796875,"response_time":1682626273450.33},{"trial":11,"action":1,"button_pressed":3,"time_out":false,"dwell_time":97.990966796875,"response_time":1682626273967.18},{"trial":11,"action":1,"button_pressed":4,"time_out":false,"dwell_time":63.946044921875,"response_time":1682626275232.8},{"trial":11,"action":1,"button_pressed":10,"time_out":false,"dwell_time":63.457763671875,"response_time":1682626275632.71},{"trial":11,"action":1,"button_pressed":1,"time_out":false,"dwell_time":64.114990234375,"response_time":1682626276916.27},{"trial":11,"action":1,"button_pressed":2,"time_out":false,"dwell_time":80.7587890625,"response_time":1682626277582.84},{"trial":11,"action":1,"button_pressed":8,"time_out":false,"dwell_time":63.53515625,"response_time":1682626278015.34},{"trial":11,"action":9,"button_pressed":-1,"time_out":false,"dwell_time":83.095947265625,"response_time":1682626279233.87},{"trial":12,"action":1,"button_pressed":4,"time_out":false,"dwell_time":80.360107421875,"response_time":1682626301107.76},{"trial":12,"action":1,"button_pressed":11,"time_out":false,"dwell_time":79.776123046875,"response_time":1682626301523.07},{"trial":12,"action":1,"button_pressed":7,"time_out":false,"dwell_time":80.5390625,"response_time":1682626301840.68},{"trial":12,"action":1,"button_pressed":0,"time_out":false,"dwell_time":64.0361328125,"response_time":1682626302341.17},{"trial":12,"action":1,"button_pressed":2,"time_out":false,"dwell_time":63.8330078125,"response_time":1682626302741.09},{"trial":12,"action":1,"button_pressed":1,"time_out":false,"dwell_time":64.39013671875,"response_time":1682626303257.25},{"trial":12,"action":1,"button_pressed":3,"time_out":false,"dwell_time":64.7099609375,"response_time":1682626303657.43},{"trial":12,"action":1,"button_pressed":9,"time_out":false,"dwell_time":63.924072265625,"response_time":1682626304056.64},{"trial":12,"action":9,"button_pressed":-1,"time_out":false,"dwell_time":64.23095703125,"response_time":1682626304590.59},{"trial":13,"action":1,"button_pressed":4,"time_out":false,"dwell_time":80.713134765625,"response_time":1682626330981.67},{"trial":13,"action":1,"button_pressed":2,"time_out":false,"dwell_time":81.39208984375,"response_time":1682626331381.59},{"trial":13,"action":1,"button_pressed":7,"time_out":false,"dwell_time":81.26904296875,"response_time":1682626331898.59},{"trial":13,"action":1,"button_pressed":9,"time_out":false,"dwell_time":79.990234375,"response_time":1682626332330.61},{"trial":13,"action":1,"button_pressed":1,"time_out":false,"dwell_time":97.474853515625,"response_time":1682626332831.22},{"trial":13,"action":1,"button_pressed":3,"time_out":false,"dwell_time":80.346923828125,"response_time":1682626333214.34},{"trial":13,"action":1,"button_pressed":5,"time_out":false,"dwell_time":81.010009765625,"response_time":1682626333631.14},{"trial":13,"action":1,"button_pressed":6,"time_out":false,"dwell_time":80.773193359375,"response_time":1682626334164.11},{"trial":13,"action":1,"button_pressed":11,"time_out":false,"dwell_time":47.746826171875,"response_time":1682626334564.4},{"trial":13,"action":9,"button_pressed":-1,"time_out":false,"dwell_time":48.31005859375,"response_time":1682626335231.28},{"trial":14,"action":1,"button_pressed":2,"time_out":false,"dwell_time":64.97900390625,"response_time":1682626362155.02},{"trial":14,"action":1,"button_pressed":7,"time_out":false,"dwell_time":64.641845703125,"response_time":1682626362587.9},{"trial":14,"action":1,"button_pressed":9,"time_out":false,"dwell_time":63.93408203125,"response_time":1682626362953.74},{"trial":14,"action":1,"button_pressed":1,"time_out":false,"dwell_time":64.283935546875,"response_time":1682626363337.96},{"trial":14,"action":1,"button_pressed":4,"time_out":false,"dwell_time":81.403076171875,"response_time":1682626363820.85},{"trial":14,"action":1,"button_pressed":8,"time_out":false,"dwell_time":47.11376953125,"response_time":1682626365620.09},{"trial":14,"action":1,"button_pressed":11,"time_out":false,"dwell_time":46.993896484375,"response_time":1682626366019.93},{"trial":14,"action":1,"button_pressed":10,"time_out":false,"dwell_time":47.0380859375,"response_time":1682626366486.43},{"trial":14,"action":1,"button_pressed":0,"time_out":false,"dwell_time":64.06396484375,"response_time":1682626366985.79},{"trial":14,"action":1,"button_pressed":5,"time_out":false,"dwell_time":63.97607421875,"response_time":1682626367436},{"trial":14,"action":9,"button_pressed":-1,"time_out":false,"dwell_time":48.442138671875,"response_time":1682626367987.15}]}