Audio_Only_Files,Video_Files,Original_Word_List,noiseLevelCode,conditionCodes,noiseLevelFile1,noiseLevelFile2,InstrTextVar,targetSpeakerName,targetSpeakerEccen,targetSpkrChannel,targetSpkrSound,targetVisualDegrees,visStimLoc,visStimLoc2,visStimW,visStimH,practiceTrials.thisRepN,practiceTrials.thisTrialN,practiceTrials.thisN,practiceTrials.thisIndex,trials.thisRepN,trials.thisTrialN,trials.thisN,trials.thisIndex,audLocalLoop.thisRepN,audLocalLoop.thisTrialN,audLocalLoop.thisN,audLocalLoop.thisIndex,visualLocalLoop.thisRepN,visualLocalLoop.thisTrialN,visualLocalLoop.thisN,visualLocalLoop.thisIndex,letsGoAlready.keys,letsGoAlready.rt,letsGoAlready.started,letsGoAlready.stopped,text_2.started,text_2.stopped,text_3.started,text_3.stopped,key_resp_2.keys,key_resp_2.rt,key_resp_2.started,key_resp_2.stopped,text_5.started,text_5.stopped,fixCross.started,fixCross.stopped,fixCross2.started,fixCross2.stopped,answerPrompt.started,answerPrompt.stopped,getAnswer.text,getAnswer.started,getAnswer.stopped,goToNext.keys,goToNext.rt,goToNext.started,goToNext.stopped,stretchBreakTxrt.started,stretchBreakTxrt.stopped,key_resp_3.keys,key_resp_3.rt,key_resp_3.started,key_resp_3.stopped,letsGoLocal.keys,letsGoLocal.rt,letsGoLocal.started,letsGoLocal.stopped,text_4.started,text_4.stopped,prepFixTxt.started,prepFixTxt.stopped,prepFixTxt_2.started,prepFixTxt_2.stopped,respPromptLocal.started,respPromptLocal.stopped,slider.response,slider.rt,slider.started,slider.stopped,letsGoLocal_2.keys,letsGoLocal_2.rt,letsGoLocal_2.started,letsGoLocal_2.stopped,text_7.started,text_7.stopped,prepFixTxt_3.started,prepFixTxt_3.stopped,grating.started,grating.stopped,exitTxt.started,exitTxt.stopped,key_resp.keys,key_resp.rt,key_resp.started,key_resp.stopped,participant,session,date,expName,psychopyVersion,frameRate,
,,,,,,,,,,,,,,,,,,,,,,,,,,,,,,,,,space,33.552744075190276,16.889802561607212,None,,,,,,,,,,,,,,,,,,,,,,,,,,,,,,,,,,,,,,,,,,,,,,,,,,,,,,,,,,,,,,87,001,2023_Apr_27_1417,SpeechDraft1Carolyn_lessNoise_PlusLocalization,2021.2.3,60.010044765962,
,,,,,,,,,,,,,,,,,,,,,,,,,,,,,,,,,,,,,16.889802561607212,None,50.56813689973205,None,space,3.1714873760938644,50.751192413736135,None,,,,,,,,,,,,,,,,,,,,,,,,,,,,,,,,,,,,,,,,,,,,,,,,,,,,,,87,001,2023_Apr_27_1417,SpeechDraft1Carolyn_lessNoise_PlusLocalization,2021.2.3,60.010044765962,
ash.wav,ash.mpg,ash,1,A,Pink_Noise_1_1.wav,Pink_Noise_1_2.wav,"This is an example of an

AUDIO trial",,,,,,,,,,0,0,0,0,,,,,,,,,,,,,,,,,,,,,,,,,53.98427301365882,None,54.96786190569401,None,58.15084139071405,None,59.53483287291601,None,esch,59.53483287291601,None,return,3.080702290404588,59.617878060787916,None,,,,,,,,,,,,,,,,,,,,,,,,,,,,,,,,,,,,,,,87,001,2023_Apr_27_1417,SpeechDraft1Carolyn_lessNoise_PlusLocalization,2021.2.3,60.010044765962,
ash.wav,ash.mpg,ash,1,AV,Pink_Noise_1_1.wav,Pink_Noise_1_2.wav,"This is an example of an

AUDIO + VIDEO  trial",,,,,,,,,,0,1,1,1,,,,,,,,,,,,,,,,,,,,,,,,,62.734217166900635,None,63.73457030300051,None,65.2343585905619,None,66.61784655181691,None,esch,66.61784655181691,None,return,1.773365829139948,66.70128224371001,None,,,,,,,,,,,,,,,,,,,,,,,,,,,,,,,,,,,,,,,87,001,2023_Apr_27_1417,SpeechDraft1Carolyn_lessNoise_PlusLocalization,2021.2.3,60.010044765962,
,,,,,,,,,,,,,,,,,,,,,,,,,,,,,,,,,,,,,,,,,,,,,,,,,,,,,,,,,,,,68.51765320263803,None,space,6.477291524875909,68.7012455468066,None,,,,,,,,,,,,,,,,,,,,,,,,,,,,,,,,,87,001,2023_Apr_27_1417,SpeechDraft1Carolyn_lessNoise_PlusLocalization,2021.2.3,60.010044765962,
cling.wav,cling.mpg,cling,6,A,Pink_Noise_6_1.wav,Pink_Noise_6_2.wav,,,,,,,,,,,,,,,0,0,0,6,,,,,,,,,,,,,,,,,,,,,,,75.23430753778666,None,76.71761104883626,None,78.10128335794434,None,static,78.10128335794434,None,return,15.809912478085607,78.18461836967617,None,,,,,,,,,,,,,,,,,,,,,,,,,,,,,,,,,,,,,,,87,001,2023_Apr_27_1417,SpeechDraft1Carolyn_lessNoise_PlusLocalization,2021.2.3,60.010044765962,
goose.wav,goose.mpg,goose,3,A,Pink_Noise_3_1.wav,Pink_Noise_3_2.wav,,,,,,,,,,,,,,,0,1,1,47,,,,,,,,,,,,,,,,,,,,,,,94.01795479794964,None,95.51761613460258,None,96.90115268295631,None,goose,96.90115268295631,None,return,1.2499297861941159,96.98465012060478,None,,,,,,,,,,,,,,,,,,,,,,,,,,,,,,,,,,,,,,,87,001,2023_Apr_27_1417,SpeechDraft1Carolyn_lessNoise_PlusLocalization,2021.2.3,60.010044765962,
glow.wav,glow.mpg,glow,2,A,Pink_Noise_2_1.wav,Pink_Noise_2_2.wav,,,,,,,,,,,,,,,0,2,2,11,,,,,,,,,,,,,,,,,,,,,,,98.25133300665766,None,99.75170331262052,None,101.13457419676706,None,"glow
",101.13457419676706,None,return,0.7685213442891836,101.2180441939272,None,,,,,,,,,,,,,,,,,,,,,,,,,,,,,,,,,,,,,,,87,001,2023_Apr_27_1417,SpeechDraft1Carolyn_lessNoise_PlusLocalization,2021.2.3,60.010044765962,
mass.wav,mass.mpg,mass,3,AV,Pink_Noise_3_1.wav,Pink_Noise_3_2.wav,,,,,,,,,,,,,,,0,3,3,103,,,,,,,,,,,,,,,,,,,,,,,102.0178959579207,None,103.51762277586386,None,104.90119376778603,None,mess,104.90119376778603,None,return,0.7219414180144668,104.98472035070881,None,,,,,,,,,,,,,,,,,,,,,,,,,,,,,,,,,,,,,,,87,001,2023_Apr_27_1417,SpeechDraft1Carolyn_lessNoise_PlusLocalization,2021.2.3,60.010044765962,
brash.wav,brash.mpg,brash,1,AV,Pink_Noise_1_1.wav,Pink_Noise_1_2.wav,,,,,,,,,,,,,,,0,4,4,107,,,,,,,,,,,,,,,,,,,,,,,105.73491225996986,None,107.2343060770072,None,108.61799742188305,None,brush,108.61799742188305,None,return,0.8053950639441609,108.70125271286815,None,,,,,,,,,,,,,,,,,,,,,,,,,,,,,,,,,,,,,,,87,001,2023_Apr_27_1417,SpeechDraft1Carolyn_lessNoise_PlusLocalization,2021.2.3,60.010044765962,
pledge.wav,pledge.mpg,pledge,6,A,Pink_Noise_6_1.wav,Pink_Noise_6_2.wav,,,,,,,,,,,,,,,0,5,5,59,,,,,,,,,,,,,,,,,,,,,,,109.5346127175726,None,111.03530376590788,None,112.41787392087281,None,mess,112.41787392087281,None,return,5.581194955855608,112.50135516282171,None,,,,,,,,,,,,,,,,,,,,,,,,,,,,,,,,,,,,,,,87,001,2023_Apr_27_1417,SpeechDraft1Carolyn_lessNoise_PlusLocalization,2021.2.3,60.010044765962,
boat.wav,boat.mpg,boat,1,AV,Pink_Noise_1_1.wav,Pink_Noise_1_2.wav,,,,,,,,,,,,,,,0,6,6,109,,,,,,,,,,,,,,,,,,,,,,,118.10128448577598,None,119.60279805073515,None,121.00098186964169,None,"boat
",121.00098186964169,None,return,0.6864656740799546,121.06808523787186,None,,,,,,,,,,,,,,,,,,,,,,,,,,,,,,,,,,,,,,,87,001,2023_Apr_27_1417,SpeechDraft1Carolyn_lessNoise_PlusLocalization,2021.2.3,60.010044765962,
brief.wav,brief.mpg,brief,6,A,Pink_Noise_6_1.wav,Pink_Noise_6_2.wav,,,,,,,,,,,,,,,0,7,7,17,,,,,,,,,,,,,,,,,,,,,,,121.78470853157341,None,123.28430861467496,None,124.6679413979873,None,breathe,124.6679413979873,None,return,2.915381877217442,124.75128897465765,None,,,,,,,,,,,,,,,,,,,,,,,,,,,,,,,,,,,,,,,87,001,2023_Apr_27_1417,SpeechDraft1Carolyn_lessNoise_PlusLocalization,2021.2.3,60.010044765962,
chat.wav,chat.mpg,chat,1,A,Pink_Noise_1_1.wav,Pink_Noise_1_2.wav,,,,,,,,,,,,,,,0,8,8,49,,,,,,,,,,,,,,,,,,,,,,,127.6846250379458,None,129.1843644459732,None,130.56801433768123,None,chant,130.56801433768123,None,return,0.6792675936594605,130.65131010487676,None,,,,,,,,,,,,,,,,,,,,,,,,,,,,,,,,,,,,,,,87,001,2023_Apr_27_1417,SpeechDraft1Carolyn_lessNoise_PlusLocalization,2021.2.3,60.010044765962,
boost.wav,boost.mpg,boost,4,A,Pink_Noise_4_1.wav,Pink_Noise_4_2.wav,,,,,,,,,,,,,,,0,9,9,58,,,,,,,,,,,,,,,,,,,,,,,131.35137927765027,None,132.85095502482727,None,134.23476630682126,None,boost,134.23476630682126,None,return,0.8762617539614439,134.31828668899834,None,,,,,,,,,,,,,,,,,,,,,,,,,,,,,,,,,,,,,,,87,001,2023_Apr_27_1417,SpeechDraft1Carolyn_lessNoise_PlusLocalization,2021.2.3,60.010044765962,
bass.wav,bass.mpg,bass,1,A,Pink_Noise_1_1.wav,Pink_Noise_1_2.wav,,,,,,,,,,,,,,,0,10,10,57,,,,,,,,,,,,,,,,,,,,,,,135.21809299988672,None,136.73435142682865,None,138.11794792767614,None,base,138.11794792767614,None,return,1.8812034921720624,138.20135705173016,None,,,,,,,,,,,,,,,,,,,,,,,,,,,,,,,,,,,,,,,87,001,2023_Apr_27_1417,SpeechDraft1Carolyn_lessNoise_PlusLocalization,2021.2.3,60.010044765962,
three.wav,three.mpg,three,3,A,Pink_Noise_3_1.wav,Pink_Noise_3_2.wav,,,,,,,,,,,,,,,0,11,11,50,,,,,,,,,,,,,,,,,,,,,,,140.10136966593564,None,141.60116638895124,None,142.98465858167037,None,crew,142.98465858167037,None,return,2.1265935469418764,143.06796568864956,None,,,,,,,,,,,,,,,,,,,,,,,,,,,,,,,,,,,,,,,87,001,2023_Apr_27_1417,SpeechDraft1Carolyn_lessNoise_PlusLocalization,2021.2.3,60.010044765962,
chief.wav,chief.mpg,chief,1,AV,Pink_Noise_1_1.wav,Pink_Noise_1_2.wav,,,,,,,,,,,,,,,0,12,12,114,,,,,,,,,,,,,,,,,,,,,,,145.2184032248333,None,146.7188653065823,None,148.10127752600238,None,chief,148.10127752600238,None,return,0.897897417191416,148.18466531997547,None,,,,,,,,,,,,,,,,,,,,,,,,,,,,,,,,,,,,,,,87,001,2023_Apr_27_1417,SpeechDraft1Carolyn_lessNoise_PlusLocalization,2021.2.3,60.010044765962,
fade.wav,fade.mpg,fade,2,A,Pink_Noise_2_1.wav,Pink_Noise_2_2.wav,,,,,,,,,,,,,,,0,13,13,36,,,,,,,,,,,,,,,,,,,,,,,149.1019094856456,None,150.61764562455937,None,152.00137739162892,None,fade,152.00137739162892,None,return,0.8219470218755305,152.0846769567579,None,,,,,,,,,,,,,,,,,,,,,,,,,,,,,,,,,,,,,,,87,001,2023_Apr_27_1417,SpeechDraft1Carolyn_lessNoise_PlusLocalization,2021.2.3,60.010044765962,
beef.wav,beef.mpg,beef,1,AV,Pink_Noise_1_1.wav,Pink_Noise_1_2.wav,,,,,,,,,,,,,,,0,14,14,106,,,,,,,,,,,,,,,,,,,,,,,152.93472464382648,None,154.4510695748031,None,155.83463326189667,None,beef,155.83463326189667,None,return,0.7805686900392175,155.91801347676665,None,,,,,,,,,,,,,,,,,,,,,,,,,,,,,,,,,,,,,,,87,001,2023_Apr_27_1417,SpeechDraft1Carolyn_lessNoise_PlusLocalization,2021.2.3,60.010044765962,
book.wav,book.mpg,book,5,AV,Pink_Noise_5_1.wav,Pink_Noise_5_2.wav,,,,,,,,,,,,,,,0,15,15,87,,,,,,,,,,,,,,,,,,,,,,,156.7180019179359,None,158.217774446588,None,159.60268792975694,None,"book
",159.60268792975694,None,return,0.66994917858392,159.68460484268144,None,,,,,,,,,,,,,,,,,,,,,,,,,,,,,,,,,,,,,,,87,001,2023_Apr_27_1417,SpeechDraft1Carolyn_lessNoise_PlusLocalization,2021.2.3,60.010044765962,
dine.wav,dine.mpg,dine,4,AV,Pink_Noise_4_1.wav,Pink_Noise_4_2.wav,,,,,,,,,,,,,,,0,16,16,110,,,,,,,,,,,,,,,,,,,,,,,160.38482596958056,None,161.90122848469764,None,163.2846769457683,None,sign,163.2846769457683,None,return,0.5144997066818178,163.36805794760585,None,,,,,,,,,,,,,,,,,,,,,,,,,,,,,,,,,,,,,,,87,001,2023_Apr_27_1417,SpeechDraft1Carolyn_lessNoise_PlusLocalization,2021.2.3,60.010044765962,
gross.wav,gross.mpg,gross,3,AV,Pink_Noise_3_1.wav,Pink_Noise_3_2.wav,,,,,,,,,,,,,,,0,17,17,104,,,,,,,,,,,,,,,,,,,,,,,163.90135524468496,None,165.4021946946159,None,166.78459986764938,None,gross,166.78459986764938,None,return,0.9666334427893162,166.86802072590217,None,,,,,,,,,,,,,,,,,,,,,,,,,,,,,,,,,,,,,,,87,001,2023_Apr_27_1417,SpeechDraft1Carolyn_lessNoise_PlusLocalization,2021.2.3,60.010044765962,
grind.wav,grind.mpg,grind,4,A,Pink_Noise_4_1.wav,Pink_Noise_4_2.wav,,,,,,,,,,,,,,,0,18,18,16,,,,,,,,,,,,,,,,,,,,,,,167.85136644355953,None,169.35269254771993,None,170.73476939788088,None,ride,170.73476939788088,None,return,0.8565923376008868,170.8180619836785,None,,,,,,,,,,,,,,,,,,,,,,,,,,,,,,,,,,,,,,,87,001,2023_Apr_27_1417,SpeechDraft1Carolyn_lessNoise_PlusLocalization,2021.2.3,60.010044765962,
file.wav,file.mpg,file,1,AV,Pink_Noise_1_1.wav,Pink_Noise_1_2.wav,,,,,,,,,,,,,,,0,19,19,92,,,,,,,,,,,,,,,,,,,,,,,171.70133614679798,None,173.20112289767712,None,174.601088098716,None,"file
",174.601088098716,None,return,0.4705483508296311,174.66800022078678,None,,,,,,,,,,,,,,,,,,,,,,,,,,,,,,,,,,,,,,,87,001,2023_Apr_27_1417,SpeechDraft1Carolyn_lessNoise_PlusLocalization,2021.2.3,60.010044765962,
flow.wav,flow.mpg,flow,1,AV,Pink_Noise_1_1.wav,Pink_Noise_1_2.wav,,,,,,,,,,,,,,,0,20,20,85,,,,,,,,,,,,,,,,,,,,,,,175.16800439264625,None,176.66771201975644,None,178.0513812196441,None,flow,178.0513812196441,None,return,0.5559919686056674,178.13472334994003,None,,,,,,,,,,,,,,,,,,,,,,,,,,,,,,,,,,,,,,,87,001,2023_Apr_27_1417,SpeechDraft1Carolyn_lessNoise_PlusLocalization,2021.2.3,60.010044765962,
script.wav,script.mpg,script,5,A,Pink_Noise_5_1.wav,Pink_Noise_5_2.wav,,,,,,,,,,,,,,,0,21,21,2,,,,,,,,,,,,,,,,,,,,,,,178.7182211028412,None,180.23459647689015,None,181.61802263977006,None,"consume
",181.61802263977006,None,return,1.085146815981716,181.70140063669533,None,,,,,,,,,,,,,,,,,,,,,,,,,,,,,,,,,,,,,,,87,001,2023_Apr_27_1417,SpeechDraft1Carolyn_lessNoise_PlusLocalization,2021.2.3,60.010044765962,
wine.wav,wine.mpg,wine,4,AV,Pink_Noise_4_1.wav,Pink_Noise_4_2.wav,,,,,,,,,,,,,,,0,22,22,70,,,,,,,,,,,,,,,,,,,,,,,182.81807041866705,None,184.31901054596528,None,185.70133608067408,None,wine,185.70133608067408,None,return,0.4579816861078143,185.78472222900018,None,,,,,,,,,,,,,,,,,,,,,,,,,,,,,,,,,,,,,,,87,001,2023_Apr_27_1417,SpeechDraft1Carolyn_lessNoise_PlusLocalization,2021.2.3,60.010044765962,
flop.wav,flop.mpg,flop,2,AV,Pink_Noise_2_1.wav,Pink_Noise_2_2.wav,,,,,,,,,,,,,,,0,23,23,95,,,,,,,,,,,,,,,,,,,,,,,186.26815508957952,None,187.76834885776043,None,189.15315003599972,None,flop,189.15315003599972,None,return,0.46336231799796224,189.23528148280457,None,,,,,,,,,,,,,,,,,,,,,,,,,,,,,,,,,,,,,,,87,001,2023_Apr_27_1417,SpeechDraft1Carolyn_lessNoise_PlusLocalization,2021.2.3,60.010044765962,
hike.wav,hike.mpg,hike,4,A,Pink_Noise_4_1.wav,Pink_Noise_4_2.wav,,,,,,,,,,,,,,,0,24,24,7,,,,,,,,,,,,,,,,,,,,,,,189.71800199477002,None,191.21893675765023,None,192.6013853107579,None,"end
",192.6013853107579,None,return,1.7178329369053245,192.68472675792873,None,,,,,,,,,,,,,,,,,,,,,,,,,,,,,,,,,,,,,,,87,001,2023_Apr_27_1417,SpeechDraft1Carolyn_lessNoise_PlusLocalization,2021.2.3,60.010044765962,
teen.wav,teen.mpg,teen,5,A,Pink_Noise_5_1.wav,Pink_Noise_5_2.wav,,,,,,,,,,,,,,,0,25,25,19,,,,,,,,,,,,,,,,,,,,,,,194.4346714266576,None,195.95114671858028,None,197.33479098882526,None,king,197.33479098882526,None,return,0.6165623860433698,197.41807725280523,None,,,,,,,,,,,,,,,,,,,,,,,,,,,,,,,,,,,,,,,87,001,2023_Apr_27_1417,SpeechDraft1Carolyn_lessNoise_PlusLocalization,2021.2.3,60.010044765962,
grill.wav,grill.mpg,grill,6,A,Pink_Noise_6_1.wav,Pink_Noise_6_2.wav,,,,,,,,,,,,,,,0,26,26,3,,,,,,,,,,,,,,,,,,,,,,,198.05159457493573,None,199.5512791578658,None,200.93485462665558,None,low,200.93485462665558,None,return,1.0165486140176654,201.01806668564677,None,,,,,,,,,,,,,,,,,,,,,,,,,,,,,,,,,,,,,,,87,001,2023_Apr_27_1417,SpeechDraft1Carolyn_lessNoise_PlusLocalization,2021.2.3,60.010044765962,
blow.wav,blow.mpg,blow,6,AV,Pink_Noise_6_1.wav,Pink_Noise_6_2.wav,,,,,,,,,,,,,,,0,27,27,105,,,,,,,,,,,,,,,,,,,,,,,202.05144058773294,None,203.55137086566538,None,204.93466573301703,None,blow,204.93466573301703,None,return,0.5764779560267925,205.01806010864675,None,,,,,,,,,,,,,,,,,,,,,,,,,,,,,,,,,,,,,,,87,001,2023_Apr_27_1417,SpeechDraft1Carolyn_lessNoise_PlusLocalization,2021.2.3,60.010044765962,
sake.wav,sake.mpg,sake,2,A,Pink_Noise_2_1.wav,Pink_Noise_2_2.wav,,,,,,,,,,,,,,,0,28,28,8,,,,,,,,,,,,,,,,,,,,,,,205.6180720916018,None,207.11782378982753,None,208.50142083270475,None,sick,208.50142083270475,None,return,1.5778193678706884,208.5847177687101,None,,,,,,,,,,,,,,,,,,,,,,,,,,,,,,,,,,,,,,,87,001,2023_Apr_27_1417,SpeechDraft1Carolyn_lessNoise_PlusLocalization,2021.2.3,60.010044765962,
gash.wav,gash.mpg,gash,2,A,Pink_Noise_2_1.wav,Pink_Noise_2_2.wav,,,,,,,,,,,,,,,0,29,29,10,,,,,,,,,,,,,,,,,,,,,,,210.1848756899126,None,211.68446873687208,None,213.06810435187072,None,gash,213.06810435187072,None,return,0.41115289088338614,213.15139460284263,None,,,,,,,,,,,,,,,,,,,,,,,,,,,,,,,,,,,,,,,87,001,2023_Apr_27_1417,SpeechDraft1Carolyn_lessNoise_PlusLocalization,2021.2.3,60.010044765962,
bad.wav,bad.mpg,bad,5,AV,Pink_Noise_5_1.wav,Pink_Noise_5_2.wav,,,,,,,,,,,,,,,0,30,30,63,,,,,,,,,,,,,,,,,,,,,,,213.5847496506758,None,215.0855566067621,None,216.4679075856693,None,band,216.4679075856693,None,return,0.5632204189896584,216.5514240246266,None,,,,,,,,,,,,,,,,,,,,,,,,,,,,,,,,,,,,,,,87,001,2023_Apr_27_1417,SpeechDraft1Carolyn_lessNoise_PlusLocalization,2021.2.3,60.010044765962,
bulb.wav,bulb.mpg,bulb,4,AV,Pink_Noise_4_1.wav,Pink_Noise_4_2.wav,,,,,,,,,,,,,,,0,31,31,118,,,,,,,,,,,,,,,,,,,,,,,217.13487136084586,None,218.63459356781095,None,220.01799888769165,None,"bulb
",220.01799888769165,None,return,1.0371169690042734,220.1014393218793,None,,,,,,,,,,,,,,,,,,,,,,,,,,,,,,,,,,,,,,,87,001,2023_Apr_27_1417,SpeechDraft1Carolyn_lessNoise_PlusLocalization,2021.2.3,60.010044765962,
strive.wav,strive.mpg,strive,2,AV,Pink_Noise_2_1.wav,Pink_Noise_2_2.wav,,,,,,,,,,,,,,,0,32,32,115,,,,,,,,,,,,,,,,,,,,,,,221.1681617279537,None,222.6843849797733,None,224.0680768918246,None,strive,224.0680768918246,None,return,0.826994972769171,224.15151425264776,None,,,,,,,,,,,,,,,,,,,,,,,,,,,,,,,,,,,,,,,87,001,2023_Apr_27_1417,SpeechDraft1Carolyn_lessNoise_PlusLocalization,2021.2.3,60.010044765962,
glad.wav,glad.mpg,glad,2,A,Pink_Noise_2_1.wav,Pink_Noise_2_2.wav,,,,,,,,,,,,,,,0,33,33,4,,,,,,,,,,,,,,,,,,,,,,,225.0014588017948,None,226.50111973192543,None,227.88501458987594,None,glad,227.88501458987594,None,return,0.5465250089764595,227.96815141756088,None,,,,,,,,,,,,,,,,,,,,,,,,,,,,,,,,,,,,,,,87,001,2023_Apr_27_1417,SpeechDraft1Carolyn_lessNoise_PlusLocalization,2021.2.3,60.010044765962,
client.wav,client.mpg,client,4,AV,Pink_Noise_4_1.wav,Pink_Noise_4_2.wav,,,,,,,,,,,,,,,0,34,34,108,,,,,,,,,,,,,,,,,,,,,,,228.53483774792403,None,230.05109377391636,None,231.43491100193933,None,glide,231.43491100193933,None,return,1.4203700739890337,231.51816876372322,None,,,,,,,,,,,,,,,,,,,,,,,,,,,,,,,,,,,,,,,87,001,2023_Apr_27_1417,SpeechDraft1Carolyn_lessNoise_PlusLocalization,2021.2.3,60.010044765962,
wound.wav,wound.mpg,wound,1,A,Pink_Noise_1_1.wav,Pink_Noise_1_2.wav,,,,,,,,,,,,,,,0,35,35,32,,,,,,,,,,,,,,,,,,,,,,,232.96810219762847,None,234.46865966171026,None,235.85144916083664,None,wound,235.85144916083664,None,return,0.7318033427000046,235.93479484366253,None,,,,,,,,,,,,,,,,,,,,,,,,,,,,,,,,,,,,,,,87,001,2023_Apr_27_1417,SpeechDraft1Carolyn_lessNoise_PlusLocalization,2021.2.3,60.010044765962,
fall.wav,fall.mpg,fall,4,A,Pink_Noise_4_1.wav,Pink_Noise_4_2.wav,,,,,,,,,,,,,,,0,36,36,52,,,,,,,,,,,,,,,,,,,,,,,236.68477385398,None,238.18534081568941,None,239.56814136588946,None,bond,239.56814136588946,None,return,0.583157969173044,239.65145905595273,None,,,,,,,,,,,,,,,,,,,,,,,,,,,,,,,,,,,,,,,87,001,2023_Apr_27_1417,SpeechDraft1Carolyn_lessNoise_PlusLocalization,2021.2.3,60.010044765962,
broke.wav,broke.mpg,broke,1,A,Pink_Noise_1_1.wav,Pink_Noise_1_2.wav,,,,,,,,,,,,,,,0,37,37,42,,,,,,,,,,,,,,,,,,,,,,,240.2515101786703,None,241.7509963447228,None,243.13482913561165,None,broke,243.13482913561165,None,return,1.792513782158494,243.21814082656056,None,,,,,,,,,,,,,,,,,,,,,,,,,,,,,,,,,,,,,,,87,001,2023_Apr_27_1417,SpeechDraft1Carolyn_lessNoise_PlusLocalization,2021.2.3,60.010044765962,
ask.wav,ask.mpg,ask,1,AV,Pink_Noise_1_1.wav,Pink_Noise_1_2.wav,,,,,,,,,,,,,,,0,38,38,69,,,,,,,,,,,,,,,,,,,,,,,245.03491117572412,None,246.53450721362606,None,247.91825397498906,None,ask,247.91825397498906,None,return,1.3450173162855208,248.00154101802036,None,,,,,,,,,,,,,,,,,,,,,,,,,,,,,,,,,,,,,,,87,001,2023_Apr_27_1417,SpeechDraft1Carolyn_lessNoise_PlusLocalization,2021.2.3,60.010044765962,
dirt.wav,dirt.mpg,dirt,2,AV,Pink_Noise_2_1.wav,Pink_Noise_2_2.wav,,,,,,,,,,,,,,,0,39,39,112,,,,,,,,,,,,,,,,,,,,,,,249.36811720067635,None,250.88479518378153,None,252.26814081100747,None,dirt,252.26814081100747,None,return,1.1391763119027019,252.35145520884544,None,,,,,,,,,,,,,,,,,,,,,,,,,,,,,,,,,,,,,,,87,001,2023_Apr_27_1417,SpeechDraft1Carolyn_lessNoise_PlusLocalization,2021.2.3,60.010044765962,
chunk.wav,chunk.mpg,chunk,3,A,Pink_Noise_3_1.wav,Pink_Noise_3_2.wav,,,,,,,,,,,,,,,0,40,40,37,,,,,,,,,,,,,,,,,,,,,,,253.51812174264342,None,255.03436105884612,None,256.4181204675697,None,chunk,256.4181204675697,None,return,1.3330428381450474,256.50159293971956,None,,,,,,,,,,,,,,,,,,,,,,,,,,,,,,,,,,,,,,,87,001,2023_Apr_27_1417,SpeechDraft1Carolyn_lessNoise_PlusLocalization,2021.2.3,60.010044765962,
bend.wav,bend.mpg,bend,6,A,Pink_Noise_6_1.wav,Pink_Noise_6_2.wav,,,,,,,,,,,,,,,0,41,41,1,,,,,,,,,,,,,,,,,,,,,,,257.8514590137638,None,259.367833874654,None,260.75146817974746,None,"wrote
",260.75146817974746,None,return,3.751617467030883,260.8349157986231,None,,,,,,,,,,,,,,,,,,,,,,,,,,,,,,,,,,,,,,,87,001,2023_Apr_27_1417,SpeechDraft1Carolyn_lessNoise_PlusLocalization,2021.2.3,60.010044765962,
dove.wav,dove.mpg,dove,3,A,Pink_Noise_3_1.wav,Pink_Noise_3_2.wav,,,,,,,,,,,,,,,0,42,42,40,,,,,,,,,,,,,,,,,,,,,,,264.6182776778005,None,266.11780028557405,None,267.50299237156287,None,dove,267.50299237156287,None,return,0.3536915802396834,267.58485576091334,None,,,,,,,,,,,,,,,,,,,,,,,,,,,,,,,,,,,,,,,87,001,2023_Apr_27_1417,SpeechDraft1Carolyn_lessNoise_PlusLocalization,2021.2.3,60.010044765962,
climb.wav,climb.mpg,climb,6,A,Pink_Noise_6_1.wav,Pink_Noise_6_2.wav,,,,,,,,,,,,,,,0,43,43,14,,,,,,,,,,,,,,,,,,,,,,,267.96810369566083,None,269.4681779756211,None,270.85151158459485,None,light,270.85151158459485,None,return,0.9717132956720889,270.93483032565564,None,,,,,,,,,,,,,,,,,,,,,,,,,,,,,,,,,,,,,,,87,001,2023_Apr_27_1417,SpeechDraft1Carolyn_lessNoise_PlusLocalization,2021.2.3,60.010044765962,
fine.wav,fine.mpg,fine,5,AV,Pink_Noise_5_1.wav,Pink_Noise_5_2.wav,,,,,,,,,,,,,,,0,44,44,102,,,,,,,,,,,,,,,,,,,,,,,271.9347797506489,None,273.4512737719342,None,274.8348047370091,None,"fine
",274.8348047370091,None,return,0.8523728530853987,274.9181772125885,None,,,,,,,,,,,,,,,,,,,,,,,,,,,,,,,,,,,,,,,87,001,2023_Apr_27_1417,SpeechDraft1Carolyn_lessNoise_PlusLocalization,2021.2.3,60.010044765962,
creek.wav,creek.mpg,creek,2,AV,Pink_Noise_2_1.wav,Pink_Noise_2_2.wav,,,,,,,,,,,,,,,0,45,45,94,,,,,,,,,,,,,,,,,,,,,,,275.80160238593817,None,277.31775048887357,None,278.70142086269334,None,creek,278.70142086269334,None,return,0.8497622050344944,278.7848717337474,None,,,,,,,,,,,,,,,,,,,,,,,,,,,,,,,,,,,,,,,87,001,2023_Apr_27_1417,SpeechDraft1Carolyn_lessNoise_PlusLocalization,2021.2.3,60.010044765962,
flash.wav,flash.mpg,flash,4,A,Pink_Noise_4_1.wav,Pink_Noise_4_2.wav,,,,,,,,,,,,,,,0,46,46,53,,,,,,,,,,,,,,,,,,,,,,,279.65160336392,None,281.16805540397763,None,282.5515245408751,None,"lash
",282.5515245408751,None,return,1.135654408019036,282.63489368278533,None,,,,,,,,,,,,,,,,,,,,,,,,,,,,,,,,,,,,,,,87,001,2023_Apr_27_1417,SpeechDraft1Carolyn_lessNoise_PlusLocalization,2021.2.3,60.010044765962,
count.wav,count.mpg,count,1,A,Pink_Noise_1_1.wav,Pink_Noise_1_2.wav,,,,,,,,,,,,,,,0,47,47,25,,,,,,,,,,,,,,,,,,,,,,,283.8015289278701,None,285.3177914908156,None,286.70157672371715,None,count,286.70157672371715,None,return,0.8497500908561051,286.78490290697664,None,,,,,,,,,,,,,,,,,,,,,,,,,,,,,,,,,,,,,,,87,001,2023_Apr_27_1417,SpeechDraft1Carolyn_lessNoise_PlusLocalization,2021.2.3,60.010044765962,
flair.wav,flair.mpg,flair,1,AV,Pink_Noise_1_1.wav,Pink_Noise_1_2.wav,,,,,,,,,,,,,,,0,48,48,73,,,,,,,,,,,,,,,,,,,,,,,287.6516007059254,None,289.15142377093434,None,290.53510992089286,None,"flair
",290.53510992089286,None,return,0.5362506713718176,290.6182988579385,None,,,,,,,,,,,,,,,,,,,,,,,,,,,,,,,,,,,,,,,87,001,2023_Apr_27_1417,SpeechDraft1Carolyn_lessNoise_PlusLocalization,2021.2.3,60.010044765962,
clap.wav,clap.mpg,clap,6,A,Pink_Noise_6_1.wav,Pink_Noise_6_2.wav,,,,,,,,,,,,,,,0,49,49,39,,,,,,,,,,,,,,,,,,,,,,,291.1849094820209,None,292.7011428028345,None,294.08486862201244,None,mic,294.08486862201244,None,return,1.9303893400356174,294.1682348456234,None,,,,,,,,,,,,,,,,,,,,,,,,,,,,,,,,,,,,,,,87,001,2023_Apr_27_1417,SpeechDraft1Carolyn_lessNoise_PlusLocalization,2021.2.3,60.010044765962,
fee.wav,fee.mpg,fee,3,AV,Pink_Noise_3_1.wav,Pink_Noise_3_2.wav,,,,,,,,,,,,,,,0,50,50,62,,,,,,,,,,,,,,,,,,,,,,,296.1186488326639,None,297.6188042978756,None,299.00240998668596,None,feet,299.00240998668596,None,return,0.6933242660015821,299.0852161687799,None,,,,,,,,,,,,,,,,,,,,,,,,,,,,,,,,,,,,,,,87,001,2023_Apr_27_1417,SpeechDraft1Carolyn_lessNoise_PlusLocalization,2021.2.3,60.010044765962,
folk.wav,folk.mpg,folk,3,AV,Pink_Noise_3_1.wav,Pink_Noise_3_2.wav,,,,,,,,,,,,,,,0,51,51,83,,,,,,,,,,,,,,,,,,,,,,,299.8015989428386,None,301.31792489858344,None,302.7015456436202,None,folk,302.7015456436202,None,return,1.8737958981655538,302.7848736275919,None,,,,,,,,,,,,,,,,,,,,,,,,,,,,,,,,,,,,,,,87,001,2023_Apr_27_1417,SpeechDraft1Carolyn_lessNoise_PlusLocalization,2021.2.3,60.010044765962,
fox.wav,fox.mpg,fox,6,A,Pink_Noise_6_1.wav,Pink_Noise_6_2.wav,,,,,,,,,,,,,,,0,52,52,28,,,,,,,,,,,,,,,,,,,,,,,304.68490909878165,None,306.18488533468917,None,307.5682016839273,None,find,307.5682016839273,None,return,2.742971530649811,307.65158174559474,None,,,,,,,,,,,,,,,,,,,,,,,,,,,,,,,,,,,,,,,87,001,2023_Apr_27_1417,SpeechDraft1Carolyn_lessNoise_PlusLocalization,2021.2.3,60.010044765962,
castle.wav,castle.mpg,castle,1,A,Pink_Noise_1_1.wav,Pink_Noise_1_2.wav,,,,,,,,,,,,,,,0,53,53,38,,,,,,,,,,,,,,,,,,,,,,,310.4182785586454,None,311.9190299818292,None,313.30164621258155,None,castle,313.30164621258155,None,return,1.5617103497497737,313.3848472270183,None,,,,,,,,,,,,,,,,,,,,,,,,,,,,,,,,,,,,,,,87,001,2023_Apr_27_1417,SpeechDraft1Carolyn_lessNoise_PlusLocalization,2021.2.3,60.010044765962,
peach.wav,peach.mpg,peach,5,AV,Pink_Noise_5_1.wav,Pink_Noise_5_2.wav,,,,,,,,,,,,,,,0,54,54,111,,,,,,,,,,,,,,,,,,,,,,,314.9683002359234,None,316.48490766994655,None,317.8680791039951,None,mish,317.8680791039951,None,return,7.162926516029984,317.9516643038951,None,,,,,,,,,,,,,,,,,,,,,,,,,,,,,,,,,,,,,,,87,001,2023_Apr_27_1417,SpeechDraft1Carolyn_lessNoise_PlusLocalization,2021.2.3,60.010044765962,
cycle.wav,cycle.mpg,cycle,2,AV,Pink_Noise_2_1.wav,Pink_Noise_2_2.wav,,,,,,,,,,,,,,,0,55,55,99,,,,,,,,,,,,,,,,,,,,,,,325.1348825409077,None,326.6512599149719,None,328.0182610419579,None,cycle,328.0182610419579,None,return,0.7649134462699294,328.101693527773,None,,,,,,,,,,,,,,,,,,,,,,,,,,,,,,,,,,,,,,,87,001,2023_Apr_27_1417,SpeechDraft1Carolyn_lessNoise_PlusLocalization,2021.2.3,60.010044765962,
fog.wav,fog.mpg,fog,4,AV,Pink_Noise_4_1.wav,Pink_Noise_4_2.wav,,,,,,,,,,,,,,,0,56,56,97,,,,,,,,,,,,,,,,,,,,,,,328.8849077569321,None,330.38650801358745,None,331.7680922676809,None,fire,331.7680922676809,None,return,0.5830673538148403,331.8515713806264,None,,,,,,,,,,,,,,,,,,,,,,,,,,,,,,,,,,,,,,,87,001,2023_Apr_27_1417,SpeechDraft1Carolyn_lessNoise_PlusLocalization,2021.2.3,60.010044765962,
freak.wav,freak.mpg,freak,4,A,Pink_Noise_4_1.wav,Pink_Noise_4_2.wav,,,,,,,,,,,,,,,0,57,57,33,,,,,,,,,,,,,,,,,,,,,,,332.4516013828106,None,333.9679733859375,None,335.3515989407897,None,creek,335.3515989407897,None,return,0.9754700269550085,335.43505764985457,None,,,,,,,,,,,,,,,,,,,,,,,,,,,,,,,,,,,,,,,87,001,2023_Apr_27_1417,SpeechDraft1Carolyn_lessNoise_PlusLocalization,2021.2.3,60.010044765962,
deal.wav,deal.mpg,deal,2,AV,Pink_Noise_2_1.wav,Pink_Noise_2_2.wav,,,,,,,,,,,,,,,0,58,58,78,,,,,,,,,,,,,,,,,,,,,,,336.4351449916139,None,337.93516206601635,None,339.3183986968361,None,deal,339.3183986968361,None,return,0.6890332577750087,339.40160949667916,None,,,,,,,,,,,,,,,,,,,,,,,,,,,,,,,,,,,,,,,87,001,2023_Apr_27_1417,SpeechDraft1Carolyn_lessNoise_PlusLocalization,2021.2.3,60.010044765962,
cat.wav,cat.mpg,cat,2,A,Pink_Noise_2_1.wav,Pink_Noise_2_2.wav,,,,,,,,,,,,,,,0,59,59,12,,,,,,,,,,,,,,,,,,,,,,,340.1182217178866,None,341.63455267669633,None,343.01818176871166,None,at,343.01818176871166,None,return,0.4927157419733703,343.10182161582634,None,,,,,,,,,,,,,,,,,,,,,,,,,,,,,,,,,,,,,,,87,001,2023_Apr_27_1417,SpeechDraft1Carolyn_lessNoise_PlusLocalization,2021.2.3,60.010044765962,
fish.wav,fish.mpg,fish,5,A,Pink_Noise_5_1.wav,Pink_Noise_5_2.wav,,,,,,,,,,,,,,,0,60,60,51,,,,,,,,,,,,,,,,,,,,,,,343.6182604758069,None,345.1346236616373,None,346.5182576919906,None,fish,346.5182576919906,None,return,0.9769150516949594,346.6016150917858,None,,,,,,,,,,,,,,,,,,,,,,,,,,,,,,,,,,,,,,,87,001,2023_Apr_27_1417,SpeechDraft1Carolyn_lessNoise_PlusLocalization,2021.2.3,60.010044765962,
grave.wav,grave.mpg,grave,6,AV,Pink_Noise_6_1.wav,Pink_Noise_6_2.wav,,,,,,,,,,,,,,,0,61,61,101,,,,,,,,,,,,,,,,,,,,,,,347.60164887458086,None,349.11801893264055,None,350.5014730379917,None,grave,350.5014730379917,None,return,0.8817249108105898,350.5849284348078,None,,,,,,,,,,,,,,,,,,,,,,,,,,,,,,,,,,,,,,,87,001,2023_Apr_27_1417,SpeechDraft1Carolyn_lessNoise_PlusLocalization,2021.2.3,60.010044765962,
bet.wav,bet.mpg,bet,2,A,Pink_Noise_2_1.wav,Pink_Noise_2_2.wav,,,,,,,,,,,,,,,0,62,62,27,,,,,,,,,,,,,,,,,,,,,,,351.48494638176635,None,353.0013377717696,None,354.38635884877294,None,bat,354.38635884877294,None,return,0.5901338472031057,354.46852708095685,None,,,,,,,,,,,,,,,,,,,,,,,,,,,,,,,,,,,,,,,87,001,2023_Apr_27_1417,SpeechDraft1Carolyn_lessNoise_PlusLocalization,2021.2.3,60.010044765962,
bath.wav,bath.mpg,bath,1,A,Pink_Noise_1_1.wav,Pink_Noise_1_2.wav,,,,,,,,,,,,,,,0,63,63,45,,,,,,,,,,,,,,,,,,,,,,,355.08494295179844,None,356.58590435469523,None,357.96825378760695,None,"bath
",357.96825378760695,None,return,0.9186935978941619,358.05187603086233,None,,,,,,,,,,,,,,,,,,,,,,,,,,,,,,,,,,,,,,,87,001,2023_Apr_27_1417,SpeechDraft1Carolyn_lessNoise_PlusLocalization,2021.2.3,60.010044765962,
your.wav,your.mpg,your,2,A,Pink_Noise_2_1.wav,Pink_Noise_2_2.wav,,,,,,,,,,,,,,,0,64,64,43,,,,,,,,,,,,,,,,,,,,,,,359.00204491987824,None,360.5179052660242,None,361.90160638373345,None,your,361.90160638373345,None,return,1.4897644449956715,361.98500680271536,None,,,,,,,,,,,,,,,,,,,,,,,,,,,,,,,,,,,,,,,87,001,2023_Apr_27_1417,SpeechDraft1Carolyn_lessNoise_PlusLocalization,2021.2.3,60.010044765962,
brag.wav,brag.mpg,brag,4,AV,Pink_Noise_4_1.wav,Pink_Noise_4_2.wav,,,,,,,,,,,,,,,0,65,65,119,,,,,,,,,,,,,,,,,,,,,,,363.50168017158285,None,365.01811754284427,None,366.40156701859087,None,"brag
",366.40156701859087,None,return,0.6375279380008578,366.4850118965842,None,,,,,,,,,,,,,,,,,,,,,,,,,,,,,,,,,,,,,,,87,001,2023_Apr_27_1417,SpeechDraft1Carolyn_lessNoise_PlusLocalization,2021.2.3,60.010044765962,
earth.wav,earth.mpg,earth,3,A,Pink_Noise_3_1.wav,Pink_Noise_3_2.wav,,,,,,,,,,,,,,,0,66,66,55,,,,,,,,,,,,,,,,,,,,,,,367.1518029118888,None,368.66800467669964,None,370.05179602559656,None,"earth
",370.05179602559656,None,return,1.6514863059855998,370.1350586777553,None,,,,,,,,,,,,,,,,,,,,,,,,,,,,,,,,,,,,,,,87,001,2023_Apr_27_1417,SpeechDraft1Carolyn_lessNoise_PlusLocalization,2021.2.3,60.010044765962,
grain.wav,grain.mpg,grain,6,AV,Pink_Noise_6_1.wav,Pink_Noise_6_2.wav,,,,,,,,,,,,,,,0,67,67,84,,,,,,,,,,,,,,,,,,,,,,,371.81828732881695,None,373.3347604656592,None,374.7183569855988,None,weigh,374.7183569855988,None,return,2.3208189881406724,374.8017317359336,None,,,,,,,,,,,,,,,,,,,,,,,,,,,,,,,,,,,,,,,87,001,2023_Apr_27_1417,SpeechDraft1Carolyn_lessNoise_PlusLocalization,2021.2.3,60.010044765962,
flake.wav,flake.mpg,flake,6,AV,Pink_Noise_6_1.wav,Pink_Noise_6_2.wav,,,,,,,,,,,,,,,0,68,68,91,,,,,,,,,,,,,,,,,,,,,,,377.15169506380334,None,378.6680477806367,None,380.05160352867097,None,"flake
",380.05160352867097,None,return,1.6355741047300398,380.1349764838815,None,,,,,,,,,,,,,,,,,,,,,,,,,,,,,,,,,,,,,,,87,001,2023_Apr_27_1417,SpeechDraft1Carolyn_lessNoise_PlusLocalization,2021.2.3,60.010044765962,
cook.wav,cook.mpg,cook,2,AV,Pink_Noise_2_1.wav,Pink_Noise_2_2.wav,,,,,,,,,,,,,,,0,69,69,76,,,,,,,,,,,,,,,,,,,,,,,381.80161613365635,None,383.31801300356165,None,384.7016198039055,None,cook,384.7016198039055,None,return,1.1455646879039705,384.7849926566705,None,,,,,,,,,,,,,,,,,,,,,,,,,,,,,,,,,,,,,,,87,001,2023_Apr_27_1417,SpeechDraft1Carolyn_lessNoise_PlusLocalization,2021.2.3,60.010044765962,
dad.wav,dad.mpg,dad,5,A,Pink_Noise_5_1.wav,Pink_Noise_5_2.wav,,,,,,,,,,,,,,,0,70,70,23,,,,,,,,,,,,,,,,,,,,,,,385.95171900466084,None,387.4846311947331,None,388.8683633618057,None,stare,388.8683633618057,None,return,2.274487649090588,388.952046350576,None,,,,,,,,,,,,,,,,,,,,,,,,,,,,,,,,,,,,,,,87,001,2023_Apr_27_1417,SpeechDraft1Carolyn_lessNoise_PlusLocalization,2021.2.3,60.010044765962,
blot.wav,blot.mpg,blot,1,AV,Pink_Noise_1_1.wav,Pink_Noise_1_2.wav,,,,,,,,,,,,,,,0,71,71,66,,,,,,,,,,,,,,,,,,,,,,,391.2519360347651,None,392.80148377176374,None,394.1850206358358,None,blocked,394.1850206358358,None,return,2.646247839089483,394.2683821725659,None,,,,,,,,,,,,,,,,,,,,,,,,,,,,,,,,,,,,,,,87,001,2023_Apr_27_1417,SpeechDraft1Carolyn_lessNoise_PlusLocalization,2021.2.3,60.010044765962,
bug.wav,bug.mpg,bug,5,A,Pink_Noise_5_1.wav,Pink_Noise_5_2.wav,,,,,,,,,,,,,,,0,72,72,54,,,,,,,,,,,,,,,,,,,,,,,396.9350332636386,None,398.45135347684845,None,399.8350367527455,None,bug,399.8350367527455,None,return,0.820169641636312,399.9183397325687,None,,,,,,,,,,,,,,,,,,,,,,,,,,,,,,,,,,,,,,,87,001,2023_Apr_27_1417,SpeechDraft1Carolyn_lessNoise_PlusLocalization,2021.2.3,60.010044765962,
bomb.wav,bomb.mpg,bomb,6,AV,Pink_Noise_6_1.wav,Pink_Noise_6_2.wav,,,,,,,,,,,,,,,0,73,73,81,,,,,,,,,,,,,,,,,,,,,,,400.7684281687252,None,402.3013349259272,None,403.6850443626754,None,bomb,403.6850443626754,None,return,0.9622354418970644,403.7683138665743,None,,,,,,,,,,,,,,,,,,,,,,,,,,,,,,,,,,,,,,,87,001,2023_Apr_27_1417,SpeechDraft1Carolyn_lessNoise_PlusLocalization,2021.2.3,60.010044765962,
cheek.wav,cheek.mpg,cheek,1,A,Pink_Noise_1_1.wav,Pink_Noise_1_2.wav,,,,,,,,,,,,,,,0,74,74,22,,,,,,,,,,,,,,,,,,,,,,,404.75179847702384,None,406.28471987787634,None,407.66838561883196,None,cheek,407.66838561883196,None,return,0.8829204067587852,407.75169871468097,None,,,,,,,,,,,,,,,,,,,,,,,,,,,,,,,,,,,,,,,87,001,2023_Apr_27_1417,SpeechDraft1Carolyn_lessNoise_PlusLocalization,2021.2.3,60.010044765962,
awe.wav,awe.mpg,awe,6,AV,Pink_Noise_6_1.wav,Pink_Noise_6_2.wav,,,,,,,,,,,,,,,0,75,75,96,,,,,,,,,,,,,,,,,,,,,,,408.65183020196855,None,410.1680606957525,None,411.5516676926054,None,hawk,411.5516676926054,None,return,2.807582634035498,411.63502921396866,None,,,,,,,,,,,,,,,,,,,,,,,,,,,,,,,,,,,,,,,87,001,2023_Apr_27_1417,SpeechDraft1Carolyn_lessNoise_PlusLocalization,2021.2.3,60.010044765962,
dock.wav,dock.mpg,dock,3,AV,Pink_Noise_3_1.wav,Pink_Noise_3_2.wav,,,,,,,,,,,,,,,0,76,76,75,,,,,,,,,,,,,,,,,,,,,,,414.46840996900573,None,415.9848457737826,None,417.36830983590335,None,dock,417.36830983590335,None,return,1.3988934559747577,417.4517849669792,None,,,,,,,,,,,,,,,,,,,,,,,,,,,,,,,,,,,,,,,87,001,2023_Apr_27_1417,SpeechDraft1Carolyn_lessNoise_PlusLocalization,2021.2.3,60.010044765962,
bank.wav,bank.mpg,bank,2,AV,Pink_Noise_2_1.wav,Pink_Noise_2_2.wav,,,,,,,,,,,,,,,0,77,77,79,,,,,,,,,,,,,,,,,,,,,,,418.86839140579104,None,420.3846588325687,None,421.76840532477945,None,bank,421.76840532477945,None,return,0.8629886042326689,421.8516619876027,None,,,,,,,,,,,,,,,,,,,,,,,,,,,,,,,,,,,,,,,87,001,2023_Apr_27_1417,SpeechDraft1Carolyn_lessNoise_PlusLocalization,2021.2.3,60.010044765962,
blood.wav,blood.mpg,blood,5,AV,Pink_Noise_5_1.wav,Pink_Noise_5_2.wav,,,,,,,,,,,,,,,0,78,78,72,,,,,,,,,,,,,,,,,,,,,,,422.73508784687147,None,424.2516892836429,None,425.63501939876005,None,blood,425.63501939876005,None,return,1.132351775187999,425.71832136576995,None,,,,,,,,,,,,,,,,,,,,,,,,,,,,,,,,,,,,,,,87,001,2023_Apr_27_1417,SpeechDraft1Carolyn_lessNoise_PlusLocalization,2021.2.3,60.010044765962,
coal.wav,coal.mpg,coal,3,AV,Pink_Noise_3_1.wav,Pink_Noise_3_2.wav,,,,,,,,,,,,,,,0,79,79,86,,,,,,,,,,,,,,,,,,,,,,,426.8684900649823,None,428.38477590866387,None,429.76829886063933,None,coal,429.76829886063933,None,return,1.3909133188426495,429.85170886758715,None,,,,,,,,,,,,,,,,,,,,,,,,,,,,,,,,,,,,,,,87,001,2023_Apr_27_1417,SpeechDraft1Carolyn_lessNoise_PlusLocalization,2021.2.3,60.010044765962,
bright.wav,bright.mpg,bright,2,AV,Pink_Noise_2_1.wav,Pink_Noise_2_2.wav,,,,,,,,,,,,,,,0,80,80,90,,,,,,,,,,,,,,,,,,,,,,,431.26837861165404,None,432.78478472400457,None,434.1684392336756,None,bright,434.1684392336756,None,return,1.8069768408313394,434.2517445208505,None,,,,,,,,,,,,,,,,,,,,,,,,,,,,,,,,,,,,,,,87,001,2023_Apr_27_1417,SpeechDraft1Carolyn_lessNoise_PlusLocalization,2021.2.3,60.010044765962,
dumb.wav,dumb.mpg,dumb,6,A,Pink_Noise_6_1.wav,Pink_Noise_6_2.wav,,,,,,,,,,,,,,,0,81,81,26,,,,,,,,,,,,,,,,,,,,,,,436.08515560487285,None,437.60299857566133,None,438.9850982679054,None,"wine
",438.9850982679054,None,return,1.5341487578116357,439.0684012225829,None,,,,,,,,,,,,,,,,,,,,,,,,,,,,,,,,,,,,,,,87,001,2023_Apr_27_1417,SpeechDraft1Carolyn_lessNoise_PlusLocalization,2021.2.3,60.010044765962,
bare.wav,bare.mpg,bare,6,A,Pink_Noise_6_1.wav,Pink_Noise_6_2.wav,,,,,,,,,,,,,,,0,82,82,31,,,,,,,,,,,,,,,,,,,,,,,440.63511282764375,None,442.13614307064563,None,443.5184270576574,None,stare,443.5184270576574,None,return,2.504703394137323,443.60184494499117,None,,,,,,,,,,,,,,,,,,,,,,,,,,,,,,,,,,,,,,,87,001,2023_Apr_27_1417,SpeechDraft1Carolyn_lessNoise_PlusLocalization,2021.2.3,60.010044765962,
dust.wav,dust.mpg,dust,3,AV,Pink_Noise_3_1.wav,Pink_Noise_3_2.wav,,,,,,,,,,,,,,,0,83,83,67,,,,,,,,,,,,,,,,,,,,,,,446.1351080639288,None,447.65152669698,None,449.03574425401166,None,dust,449.03574425401166,None,return,0.8598431590944529,449.1186887365766,None,,,,,,,,,,,,,,,,,,,,,,,,,,,,,,,,,,,,,,,87,001,2023_Apr_27_1417,SpeechDraft1Carolyn_lessNoise_PlusLocalization,2021.2.3,60.010044765962,
shock.wav,shock.mpg,shock,3,AV,Pink_Noise_3_1.wav,Pink_Noise_3_2.wav,,,,,,,,,,,,,,,0,84,84,98,,,,,,,,,,,,,,,,,,,,,,,450.0018938346766,None,451.5181298786774,None,452.9018067996949,None,shock,452.9018067996949,None,return,1.889683281071484,452.98505723895505,None,,,,,,,,,,,,,,,,,,,,,,,,,,,,,,,,,,,,,,,87,001,2023_Apr_27_1417,SpeechDraft1Carolyn_lessNoise_PlusLocalization,2021.2.3,60.010044765962,
date.wav,date.mpg,date,3,A,Pink_Noise_3_1.wav,Pink_Noise_3_2.wav,,,,,,,,,,,,,,,0,85,85,0,,,,,,,,,,,,,,,,,,,,,,,454.9019127995707,None,456.41813536174595,None,457.8017720920034,None,date,457.8017720920034,None,return,1.0614594691433012,457.88510198285803,None,,,,,,,,,,,,,,,,,,,,,,,,,,,,,,,,,,,,,,,87,001,2023_Apr_27_1417,SpeechDraft1Carolyn_lessNoise_PlusLocalization,2021.2.3,60.010044765962,
drum.wav,drum.mpg,drum,1,A,Pink_Noise_1_1.wav,Pink_Noise_1_2.wav,,,,,,,,,,,,,,,0,86,86,20,,,,,,,,,,,,,,,,,,,,,,,458.96865911083296,None,460.4847639435902,None,461.86854900280014,None,drunk,461.86854900280014,None,return,0.9706234880723059,461.9519312866032,None,,,,,,,,,,,,,,,,,,,,,,,,,,,,,,,,,,,,,,,87,001,2023_Apr_27_1417,SpeechDraft1Carolyn_lessNoise_PlusLocalization,2021.2.3,60.010044765962,
dish.wav,dish.mpg,dish,2,A,Pink_Noise_2_1.wav,Pink_Noise_2_2.wav,,,,,,,,,,,,,,,0,87,87,41,,,,,,,,,,,,,,,,,,,,,,,462.9517671116628,None,464.48486420465633,None,465.86844155984,None,dish,465.86844155984,None,return,2.5147254071198404,465.9518249039538,None,,,,,,,,,,,,,,,,,,,,,,,,,,,,,,,,,,,,,,,87,001,2023_Apr_27_1417,SpeechDraft1Carolyn_lessNoise_PlusLocalization,2021.2.3,60.010044765962,
chalk.wav,chalk.mpg,chalk,5,A,Pink_Noise_5_1.wav,Pink_Noise_5_2.wav,,,,,,,,,,,,,,,0,88,88,15,,,,,,,,,,,,,,,,,,,,,,,468.4851294127293,None,470.00149722769856,None,471.3851336687803,None,chalk,471.3851336687803,None,return,2.0381094780750573,471.46844221279025,None,,,,,,,,,,,,,,,,,,,,,,,,,,,,,,,,,,,,,,,87,001,2023_Apr_27_1417,SpeechDraft1Carolyn_lessNoise_PlusLocalization,2021.2.3,60.010044765962,
chain.wav,chain.mpg,chain,4,AV,Pink_Noise_4_1.wav,Pink_Noise_4_2.wav,,,,,,,,,,,,,,,0,89,89,117,,,,,,,,,,,,,,,,,,,,,,,473.5351648097858,None,475.0515612787567,None,476.4350709086284,None,chain,476.4350709086284,None,return,1.188219515606761,476.5184588567354,None,,,,,,,,,,,,,,,,,,,,,,,,,,,,,,,,,,,,,,,87,001,2023_Apr_27_1417,SpeechDraft1Carolyn_lessNoise_PlusLocalization,2021.2.3,60.010044765962,
traps.wav,traps.mpg,traps,3,A,Pink_Noise_3_1.wav,Pink_Noise_3_2.wav,,,,,,,,,,,,,,,0,90,90,48,,,,,,,,,,,,,,,,,,,,,,,477.73516759462655,None,479.26814514398575,None,480.65187919698656,None,traps,480.65187919698656,None,return,1.2274466808885336,480.7350926660001,None,,,,,,,,,,,,,,,,,,,,,,,,,,,,,,,,,,,,,,,87,001,2023_Apr_27_1417,SpeechDraft1Carolyn_lessNoise_PlusLocalization,2021.2.3,60.010044765962,
layer.wav,layer.mpg,layer,2,AV,Pink_Noise_2_1.wav,Pink_Noise_2_2.wav,,,,,,,,,,,,,,,0,91,91,64,,,,,,,,,,,,,,,,,,,,,,,481.9852207265794,None,483.5014995499514,None,484.8851527008228,None,layer,484.8851527008228,None,return,1.946060148999095,484.96848333161324,None,,,,,,,,,,,,,,,,,,,,,,,,,,,,,,,,,,,,,,,87,001,2023_Apr_27_1417,SpeechDraft1Carolyn_lessNoise_PlusLocalization,2021.2.3,60.010044765962,
roast.wav,roast.mpg,roast,5,A,Pink_Noise_5_1.wav,Pink_Noise_5_2.wav,,,,,,,,,,,,,,,0,92,92,9,,,,,,,,,,,,,,,,,,,,,,,486.9352045818232,None,488.4516295767389,None,489.83540970273316,None,ghost,489.83540970273316,None,return,1.4040427720174193,489.9184912429191,None,,,,,,,,,,,,,,,,,,,,,,,,,,,,,,,,,,,,,,,87,001,2023_Apr_27_1417,SpeechDraft1Carolyn_lessNoise_PlusLocalization,2021.2.3,60.010044765962,
bow.wav,bow.mpg,bow,3,A,Pink_Noise_3_1.wav,Pink_Noise_3_2.wav,,,,,,,,,,,,,,,0,93,93,35,,,,,,,,,,,,,,,,,,,,,,,491.35182105889544,None,492.88499480159953,None,494.25180324260145,None,bow,494.25180324260145,None,return,1.1952073089778423,494.3353391326964,None,,,,,,,,,,,,,,,,,,,,,,,,,,,,,,,,,,,,,,,87,001,2023_Apr_27_1417,SpeechDraft1Carolyn_lessNoise_PlusLocalization,2021.2.3,60.010044765962,
gate.wav,gate.mpg,gate,1,A,Pink_Noise_1_1.wav,Pink_Noise_1_2.wav,,,,,,,,,,,,,,,0,94,94,21,,,,,,,,,,,,,,,,,,,,,,,495.55185428867117,None,497.0680937306024,None,498.45181523496285,None,"gate
",498.45181523496285,None,return,1.0673682391643524,498.53517510788515,None,,,,,,,,,,,,,,,,,,,,,,,,,,,,,,,,,,,,,,,87,001,2023_Apr_27_1417,SpeechDraft1Carolyn_lessNoise_PlusLocalization,2021.2.3,60.010044765962,
clumps.wav,clumps.mpg,clumps,3,AV,Pink_Noise_3_1.wav,Pink_Noise_3_2.wav,,,,,,,,,,,,,,,0,95,95,93,,,,,,,,,,,,,,,,,,,,,,,499.6352445236407,None,501.1515720319003,None,502.53519816184416,None,close,502.53519816184416,None,return,1.9280254589393735,502.61851307284087,None,,,,,,,,,,,,,,,,,,,,,,,,,,,,,,,,,,,,,,,87,001,2023_Apr_27_1417,SpeechDraft1Carolyn_lessNoise_PlusLocalization,2021.2.3,60.010044765962,
gone.wav,gone.mpg,gone,4,A,Pink_Noise_4_1.wav,Pink_Noise_4_2.wav,,,,,,,,,,,,,,,0,96,96,46,,,,,,,,,,,,,,,,,,,,,,,504.5685115316883,None,506.1014363979921,None,507.4851707518101,None,roar,507.4851707518101,None,return,1.0579737280495465,507.5685784248635,None,,,,,,,,,,,,,,,,,,,,,,,,,,,,,,,,,,,,,,,87,001,2023_Apr_27_1417,SpeechDraft1Carolyn_lessNoise_PlusLocalization,2021.2.3,60.010044765962,
priest.wav,priest.mpg,priest,3,AV,Pink_Noise_3_1.wav,Pink_Noise_3_2.wav,,,,,,,,,,,,,,,0,97,97,116,,,,,,,,,,,,,,,,,,,,,,,508.651848858688,None,510.2015594667755,None,511.56850592792034,None,priest,511.56850592792034,None,return,1.7266458831727505,511.6519069047645,None,,,,,,,,,,,,,,,,,,,,,,,,,,,,,,,,,,,,,,,87,001,2023_Apr_27_1417,SpeechDraft1Carolyn_lessNoise_PlusLocalization,2021.2.3,60.010044765962,
chase.wav,chase.mpg,chase,3,A,Pink_Noise_3_1.wav,Pink_Noise_3_2.wav,,,,,,,,,,,,,,,0,98,98,5,,,,,,,,,,,,,,,,,,,,,,,513.4018230168149,None,514.9190200637095,None,516.3018624158576,None,chase,516.3018624158576,None,return,1.089459812734276,516.3851654538885,None,,,,,,,,,,,,,,,,,,,,,,,,,,,,,,,,,,,,,,,87,001,2023_Apr_27_1417,SpeechDraft1Carolyn_lessNoise_PlusLocalization,2021.2.3,60.010044765962,
crate.wav,crate.mpg,crate,4,AV,Pink_Noise_4_1.wav,Pink_Noise_4_2.wav,,,,,,,,,,,,,,,0,99,99,80,,,,,,,,,,,,,,,,,,,,,,,517.5019815629348,None,519.0182415866293,None,520.4017957439646,None,crate,520.4017957439646,None,return,1.7575305760838091,520.4851319575682,None,,,,,,,,,,,,,,,,,,,,,,,,,,,,,,,,,,,,,,,87,001,2023_Apr_27_1417,SpeechDraft1Carolyn_lessNoise_PlusLocalization,2021.2.3,60.010044765962,
clue.wav,clue.mpg,clue,2,A,Pink_Noise_2_1.wav,Pink_Noise_2_2.wav,,,,,,,,,,,,,,,0,100,100,24,,,,,,,,,,,,,,,,,,,,,,,522.2686107577756,None,523.801551903598,None,525.1852440088987,None,clue,525.1852440088987,None,return,1.6538021289743483,525.2687532249838,None,,,,,,,,,,,,,,,,,,,,,,,,,,,,,,,,,,,,,,,87,001,2023_Apr_27_1417,SpeechDraft1Carolyn_lessNoise_PlusLocalization,2021.2.3,60.010044765962,
toast.wav,toast.mpg,toast,4,A,Pink_Noise_4_1.wav,Pink_Noise_4_2.wav,,,,,,,,,,,,,,,0,101,101,44,,,,,,,,,,,,,,,,,,,,,,,526.9518909226172,None,528.5015547047369,None,529.8850824600086,None,toast,529.8850824600086,None,return,1.810017209034413,529.9685036176816,None,,,,,,,,,,,,,,,,,,,,,,,,,,,,,,,,,,,,,,,87,001,2023_Apr_27_1417,SpeechDraft1Carolyn_lessNoise_PlusLocalization,2021.2.3,60.010044765962,
bait.wav,bait.mpg,bait,1,AV,Pink_Noise_1_1.wav,Pink_Noise_1_2.wav,,,,,,,,,,,,,,,0,102,102,68,,,,,,,,,,,,,,,,,,,,,,,531.8018947239034,None,533.3182224347256,None,534.7019154997543,None,"baked
",534.7019154997543,None,return,0.7693237368948758,534.7852493706159,None,,,,,,,,,,,,,,,,,,,,,,,,,,,,,,,,,,,,,,,87,001,2023_Apr_27_1417,SpeechDraft1Carolyn_lessNoise_PlusLocalization,2021.2.3,60.010044765962,
chin.wav,chin.mpg,chin,4,A,Pink_Noise_4_1.wav,Pink_Noise_4_2.wav,,,,,,,,,,,,,,,0,103,103,13,,,,,,,,,,,,,,,,,,,,,,,535.5852204738185,None,537.1015557306819,None,538.4852358056232,None,chair,538.4852358056232,None,return,1.4740306022576988,538.5686473660171,None,,,,,,,,,,,,,,,,,,,,,,,,,,,,,,,,,,,,,,,87,001,2023_Apr_27_1417,SpeechDraft1Carolyn_lessNoise_PlusLocalization,2021.2.3,60.010044765962,
coup.wav,coup.mpg,coup,6,AV,Pink_Noise_6_1.wav,Pink_Noise_6_2.wav,,,,,,,,,,,,,,,0,104,104,61,,,,,,,,,,,,,,,,,,,,,,,540.0685543916188,None,541.6015932648443,None,542.9851332819089,None,goo,542.9851332819089,None,return,2.997940566390753,543.0686101168394,None,,,,,,,,,,,,,,,,,,,,,,,,,,,,,,,,,,,,,,,87,001,2023_Apr_27_1417,SpeechDraft1Carolyn_lessNoise_PlusLocalization,2021.2.3,60.010044765962,
style.wav,style.mpg,style,6,AV,Pink_Noise_6_1.wav,Pink_Noise_6_2.wav,,,,,,,,,,,,,,,0,105,105,60,,,,,,,,,,,,,,,,,,,,,,,546.0852227527648,None,547.6016211607493,None,548.9852803568356,None,sigh,548.9852803568356,None,return,1.7820561691187322,549.0685588875785,None,,,,,,,,,,,,,,,,,,,,,,,,,,,,,,,,,,,,,,,87,001,2023_Apr_27_1417,SpeechDraft1Carolyn_lessNoise_PlusLocalization,2021.2.3,60.010044765962,
pop.wav,pop.mpg,pop,3,A,Pink_Noise_3_1.wav,Pink_Noise_3_2.wav,,,,,,,,,,,,,,,0,106,106,29,,,,,,,,,,,,,,,,,,,,,,,550.8685690937564,None,552.3848573337309,None,553.7685572477058,None,pot,553.7685572477058,None,return,1.6226763953454792,553.8519292599522,None,,,,,,,,,,,,,,,,,,,,,,,,,,,,,,,,,,,,,,,87,001,2023_Apr_27_1417,SpeechDraft1Carolyn_lessNoise_PlusLocalization,2021.2.3,60.010044765962,
mold.wav,mold.mpg,mold,6,AV,Pink_Noise_6_1.wav,Pink_Noise_6_2.wav,,,,,,,,,,,,,,,0,107,107,77,,,,,,,,,,,,,,,,,,,,,,,555.5019674878567,None,557.0183152318932,None,558.4019239828922,None,bowl,558.4019239828922,None,return,1.3252431540749967,558.4852857538499,None,,,,,,,,,,,,,,,,,,,,,,,,,,,,,,,,,,,,,,,87,001,2023_Apr_27_1417,SpeechDraft1Carolyn_lessNoise_PlusLocalization,2021.2.3,60.010044765962,
fund.wav,fund.mpg,fund,5,AV,Pink_Noise_5_1.wav,Pink_Noise_5_2.wav,,,,,,,,,,,,,,,0,108,108,88,,,,,,,,,,,,,,,,,,,,,,,559.8352654329501,None,561.3514964575879,None,562.7351583070122,None,"fun
",562.7351583070122,None,return,1.5359065639786422,562.8186455466785,None,,,,,,,,,,,,,,,,,,,,,,,,,,,,,,,,,,,,,,,87,001,2023_Apr_27_1417,SpeechDraft1Carolyn_lessNoise_PlusLocalization,2021.2.3,60.010044765962,
quit.wav,quit.mpg,quit,5,AV,Pink_Noise_5_1.wav,Pink_Noise_5_2.wav,,,,,,,,,,,,,,,0,109,109,65,,,,,,,,,,,,,,,,,,,,,,,564.3853089679033,None,565.9016182916239,None,567.2852454837412,None,quick,567.2852454837412,None,return,1.145954548381269,567.3685910208151,None,,,,,,,,,,,,,,,,,,,,,,,,,,,,,,,,,,,,,,,87,001,2023_Apr_27_1417,SpeechDraft1Carolyn_lessNoise_PlusLocalization,2021.2.3,60.010044765962,
die.wav,die.mpg,die,6,AV,Pink_Noise_6_1.wav,Pink_Noise_6_2.wav,,,,,,,,,,,,,,,0,110,110,100,,,,,,,,,,,,,,,,,,,,,,,568.5352818258107,None,570.0683989408426,None,571.4518015007488,None,"sigh
",571.4518015007488,None,return,1.2192429630085826,571.5352975698188,None,,,,,,,,,,,,,,,,,,,,,,,,,,,,,,,,,,,,,,,87,001,2023_Apr_27_1417,SpeechDraft1Carolyn_lessNoise_PlusLocalization,2021.2.3,60.010044765962,
bathe.wav,bathe.mpg,bathe,5,A,Pink_Noise_5_1.wav,Pink_Noise_5_2.wav,,,,,,,,,,,,,,,0,111,111,30,,,,,,,,,,,,,,,,,,,,,,,572.7852609157562,None,574.3016116959043,None,575.6852254755795,None,believe,575.6852254755795,None,return,6.753979195840657,575.7685701157898,None,,,,,,,,,,,,,,,,,,,,,,,,,,,,,,,,,,,,,,,87,001,2023_Apr_27_1417,SpeechDraft1Carolyn_lessNoise_PlusLocalization,2021.2.3,60.010044765962,
glue.wav,glue.mpg,glue,4,A,Pink_Noise_4_1.wav,Pink_Noise_4_2.wav,,,,,,,,,,,,,,,0,112,112,56,,,,,,,,,,,,,,,,,,,,,,,582.5519819776528,None,584.0851409556344,None,585.4686492197216,None,blume,585.4686492197216,None,return,6.682761647738516,585.5518804159947,None,,,,,,,,,,,,,,,,,,,,,,,,,,,,,,,,,,,,,,,87,001,2023_Apr_27_1417,SpeechDraft1Carolyn_lessNoise_PlusLocalization,2021.2.3,60.010044765962,
hug.wav,hug.mpg,hug,5,A,Pink_Noise_5_1.wav,Pink_Noise_5_2.wav,,,,,,,,,,,,,,,0,113,113,34,,,,,,,,,,,,,,,,,,,,,,,592.2518948279321,None,593.8017424996942,None,595.1854293867946,None,part,595.1854293867946,None,return,2.2297905567102134,595.268865193706,None,,,,,,,,,,,,,,,,,,,,,,,,,,,,,,,,,,,,,,,87,001,2023_Apr_27_1417,SpeechDraft1Carolyn_lessNoise_PlusLocalization,2021.2.3,60.010044765962,
floor.wav,floor.mpg,floor,5,AV,Pink_Noise_5_1.wav,Pink_Noise_5_2.wav,,,,,,,,,,,,,,,0,114,114,113,,,,,,,,,,,,,,,,,,,,,,,597.5187780698761,None,599.0521408920176,None,600.4185585887171,None,"floor
",600.4185585887171,None,return,1.284461893606931,600.5020863106474,None,,,,,,,,,,,,,,,,,,,,,,,,,,,,,,,,,,,,,,,87,001,2023_Apr_27_1417,SpeechDraft1Carolyn_lessNoise_PlusLocalization,2021.2.3,60.010044765962,
solve.wav,solve.mpg,solve,4,AV,Pink_Noise_4_1.wav,Pink_Noise_4_2.wav,,,,,,,,,,,,,,,0,115,115,71,,,,,,,,,,,,,,,,,,,,,,,601.8186499900185,None,603.3349806307815,None,604.7186962217093,None,solve,604.7186962217093,None,return,1.2885873382911086,604.802044600714,None,,,,,,,,,,,,,,,,,,,,,,,,,,,,,,,,,,,,,,,87,001,2023_Apr_27_1417,SpeechDraft1Carolyn_lessNoise_PlusLocalization,2021.2.3,60.010044765962,
chess.wav,chess.mpg,chess,5,A,Pink_Noise_5_1.wav,Pink_Noise_5_2.wav,,,,,,,,,,,,,,,0,116,116,18,,,,,,,,,,,,,,,,,,,,,,,606.1187726836652,None,607.6517115756869,None,609.0354020986706,None,"chest
",609.0354020986706,None,return,1.0199334770441055,609.1186260599643,None,,,,,,,,,,,,,,,,,,,,,,,,,,,,,,,,,,,,,,,87,001,2023_Apr_27_1417,SpeechDraft1Carolyn_lessNoise_PlusLocalization,2021.2.3,60.010044765962,
dual.wav,dual.mpg,dual,4,AV,Pink_Noise_4_1.wav,Pink_Noise_4_2.wav,,,,,,,,,,,,,,,0,117,117,82,,,,,,,,,,,,,,,,,,,,,,,610.1686629117467,None,611.6850116346031,None,613.0685324906372,None,"yours
",613.0685324906372,None,return,1.3705223831348121,613.1520183435641,None,,,,,,,,,,,,,,,,,,,,,,,,,,,,,,,,,,,,,,,87,001,2023_Apr_27_1417,SpeechDraft1Carolyn_lessNoise_PlusLocalization,2021.2.3,60.010044765962,
chest.wav,chest.mpg,chest,5,AV,Pink_Noise_5_1.wav,Pink_Noise_5_2.wav,,,,,,,,,,,,,,,0,118,118,74,,,,,,,,,,,,,,,,,,,,,,,614.5520768938586,None,616.0702864397317,None,617.4519511377439,None,chest,617.4519511377439,None,return,1.563325031194836,617.5352976527065,None,,,,,,,,,,,,,,,,,,,,,,,,,,,,,,,,,,,,,,,87,001,2023_Apr_27_1417,SpeechDraft1Carolyn_lessNoise_PlusLocalization,2021.2.3,60.010044765962,
route.wav,route.mpg,route,5,AV,Pink_Noise_5_1.wav,Pink_Noise_5_2.wav,,,,,,,,,,,,,,,0,119,119,89,,,,,,,,,,,,,,,,,,,,,,,619.1186148687266,None,620.6350715206936,None,622.0185868768021,None,goose,622.0185868768021,None,return,1.5486740018241107,622.1019899267703,None,,,,,,,,,,,,,,,,,,,,,,,,,,,,,,,,,,,,,,,87,001,2023_Apr_27_1417,SpeechDraft1Carolyn_lessNoise_PlusLocalization,2021.2.3,60.010044765962,
,,,,,,,,,,,,,,,,,,,,,,,,,,,,,,,,,,,,,,,,,,,,,,,,,,,,,,,,,,,,,,,,,,space,31.874525817111135,623.7520254906267,None,,,,,,,,,,,,,,,,,,,,,,,,,,,,,87,001,2023_Apr_27_1417,SpeechDraft1Carolyn_lessNoise_PlusLocalization,2021.2.3,60.010044765962,
,,,,,,,,midRight,13.0,3,ch1Sound_localizationTask.wav,13.0,"(1142, 878)","(182, -202)",190,-338,,,,,,,,,0,0,0,5,,,,,,,,,,,,,,,,,,,,,,,,,,,,,,,,,,,,,,,,,,623.7520254906267,None,655.6686259889975,None,656.7682983297855,None,657.7018513376825,None,1.46984126984127,1.8839729619212449,657.7018513376825,None,,,,,,,,,,,,,,,,,87,001,2023_Apr_27_1417,SpeechDraft1Carolyn_lessNoise_PlusLocalization,2021.2.3,60.010044765962,
,,,,,,,,nearRight,6.5,0,ch1Sound_localizationTask.wav,6.5,"(1047, 878)","(87, -202)",95,-338,,,,,,,,,0,1,1,4,,,,,,,,,,,,,,,,,,,,,,,,,,,,,,,,,,,,,,,,,,,,659.5860621607862,None,660.6851492826827,None,661.6185839618556,None,1.546031746031746,0.6495731147006154,661.6185839618556,None,,,,,,,,,,,,,,,,,87,001,2023_Apr_27_1417,SpeechDraft1Carolyn_lessNoise_PlusLocalization,2021.2.3,60.010044765962,
,,,,,,,,farLeft,-19.1,5,ch1Sound_localizationTask.wav,-19.1,"(667, 878)","(-293,-202)",-285,-338,,,,,,,,,0,2,2,0,,,,,,,,,,,,,,,,,,,,,,,,,,,,,,,,,,,,,,,,,,,,662.2686942960136,None,663.3683544546366,None,664.3018019078299,None,1.1111111111111112,1.1668100743554533,664.3018019078299,None,,,,,,,,,,,,,,,,,87,001,2023_Apr_27_1417,SpeechDraft1Carolyn_lessNoise_PlusLocalization,2021.2.3,60.010044765962,
,,,,,,,,farLeft,-19.1,5,ch1Sound_localizationTask.wav,-19.1,"(667, 878)","(-293,-202)",-285,-338,,,,,,,,,0,3,3,0,,,,,,,,,,,,,,,,,,,,,,,,,,,,,,,,,,,,,,,,,,,,665.4855805495754,None,666.5850542429835,None,667.5183978267014,None,1.3047619047619048,0.6996325729414821,667.5183978267014,None,,,,,,,,,,,,,,,,,87,001,2023_Apr_27_1417,SpeechDraft1Carolyn_lessNoise_PlusLocalization,2021.2.3,60.010044765962,
,,,,,,,,center,0.0,6,ch1Sound_localizationTask.wav,0.0,"(952, 878)","(-8,-202)",0,-338,,,,,,,,,0,4,4,3,,,,,,,,,,,,,,,,,,,,,,,,,,,,,,,,,,,,,,,,,,,,668.2189751355909,None,669.3184086265974,None,670.251765016932,None,1.511111111111111,1.033445119857788,670.251765016932,None,,,,,,,,,,,,,,,,,87,001,2023_Apr_27_1417,SpeechDraft1Carolyn_lessNoise_PlusLocalization,2021.2.3,60.010044765962,
,,,,,,,,farLeft,-19.1,5,ch1Sound_localizationTask.wav,-19.1,"(667, 878)","(-293,-202)",-285,-338,,,,,,,,,0,5,5,0,,,,,,,,,,,,,,,,,,,,,,,,,,,,,,,,,,,,,,,,,,,,671.302347491961,None,672.4017749656923,None,673.3351842230186,None,1.2888888888888888,0.7660553129389882,673.3351842230186,None,,,,,,,,,,,,,,,,,87,001,2023_Apr_27_1417,SpeechDraft1Carolyn_lessNoise_PlusLocalization,2021.2.3,60.010044765962,
,,,,,,,,farRight,19.1,4,ch1Sound_localizationTask.wav,19.1,"(1237, 878)","(277,-202)",285,-338,,,,,,,,,0,6,6,6,,,,,,,,,,,,,,,,,,,,,,,,,,,,,,,,,,,,,,,,,,,,674.1032616556622,None,675.21846159501,None,676.1351313670166,None,1.7492063492063492,0.9842891781590879,676.1351313670166,None,,,,,,,,,,,,,,,,,87,001,2023_Apr_27_1417,SpeechDraft1Carolyn_lessNoise_PlusLocalization,2021.2.3,60.010044765962,
,,,,,,,,nearRight,6.5,0,ch1Sound_localizationTask.wav,6.5,"(1047, 878)","(87, -202)",95,-338,,,,,,,,,1,0,7,4,,,,,,,,,,,,,,,,,,,,,,,,,,,,,,,,,,,,,,,,,,,,677.135411134921,None,678.235230803024,None,679.1685202019289,None,1.5534391534391534,0.7661049882881343,679.1685202019289,None,,,,,,,,,,,,,,,,,87,001,2023_Apr_27_1417,SpeechDraft1Carolyn_lessNoise_PlusLocalization,2021.2.3,60.010044765962,
,,,,,,,,midLeft,-13.0,2,ch1Sound_localizationTask.wav,-13.0,"(762, 878)","(-198,-202)",-190,-338,,,,,,,,,1,1,8,1,,,,,,,,,,,,,,,,,,,,,,,,,,,,,,,,,,,,,,,,,,,,679.9365463717841,None,681.0517276888713,None,681.9684934769757,None,1.3174603174603174,0.8341244268231094,681.9684934769757,None,,,,,,,,,,,,,,,,,87,001,2023_Apr_27_1417,SpeechDraft1Carolyn_lessNoise_PlusLocalization,2021.2.3,60.010044765962,
,,,,,,,,midRight,13.0,3,ch1Sound_localizationTask.wav,13.0,"(1142, 878)","(182, -202)",190,-338,,,,,,,,,1,2,9,5,,,,,,,,,,,,,,,,,,,,,,,,,,,,,,,,,,,,,,,,,,,,682.8188022528775,None,683.9183949409053,None,684.851959200576,None,1.6523809523809523,0.8368555442430079,684.851959200576,None,,,,,,,,,,,,,,,,,87,001,2023_Apr_27_1417,SpeechDraft1Carolyn_lessNoise_PlusLocalization,2021.2.3,60.010044765962,
,,,,,,,,nearLeft,-6.5,1,ch1Sound_localizationTask.wav,-6.5,"(857, 878)","(-103,-202)",-95,-338,,,,,,,,,1,3,10,2,,,,,,,,,,,,,,,,,,,,,,,,,,,,,,,,,,,,,,,,,,,,685.7021756279282,None,686.8018114608712,None,687.7351509979926,None,1.4084656084656084,0.7163125020451844,687.7351509979926,None,,,,,,,,,,,,,,,,,87,001,2023_Apr_27_1417,SpeechDraft1Carolyn_lessNoise_PlusLocalization,2021.2.3,60.010044765962,
,,,,,,,,center,0.0,6,ch1Sound_localizationTask.wav,0.0,"(952, 878)","(-8,-202)",0,-338,,,,,,,,,1,4,11,3,,,,,,,,,,,,,,,,,,,,,,,,,,,,,,,,,,,,,,,,,,,,688.453110432718,None,689.5519774495624,None,690.4853716036305,None,1.4957671957671956,0.5328914090059698,690.4853716036305,None,,,,,,,,,,,,,,,,,87,001,2023_Apr_27_1417,SpeechDraft1Carolyn_lessNoise_PlusLocalization,2021.2.3,60.010044765962,
,,,,,,,,midLeft,-13.0,2,ch1Sound_localizationTask.wav,-13.0,"(762, 878)","(-198,-202)",-190,-338,,,,,,,,,1,5,12,1,,,,,,,,,,,,,,,,,,,,,,,,,,,,,,,,,,,,,,,,,,,,691.0198578368872,None,692.13532393286,None,693.0519558857195,None,1.2756613756613757,0.7017047447152436,693.0519558857195,None,,,,,,,,,,,,,,,,,87,001,2023_Apr_27_1417,SpeechDraft1Carolyn_lessNoise_PlusLocalization,2021.2.3,60.010044765962,
,,,,,,,,center,0.0,6,ch1Sound_localizationTask.wav,0.0,"(952, 878)","(-8,-202)",0,-338,,,,,,,,,1,6,13,3,,,,,,,,,,,,,,,,,,,,,,,,,,,,,,,,,,,,,,,,,,,,693.7689968356863,None,694.8685135557316,None,695.801716723945,None,1.5,0.6823147227987647,695.801716723945,None,,,,,,,,,,,,,,,,,87,001,2023_Apr_27_1417,SpeechDraft1Carolyn_lessNoise_PlusLocalization,2021.2.3,60.010044765962,
,,,,,,,,midRight,13.0,3,ch1Sound_localizationTask.wav,13.0,"(1142, 878)","(182, -202)",190,-338,,,,,,,,,2,0,14,5,,,,,,,,,,,,,,,,,,,,,,,,,,,,,,,,,,,,,,,,,,,,696.485940837767,None,697.5851201745681,None,698.5185754108243,None,1.6354497354497355,0.9004618101753294,698.5185754108243,None,,,,,,,,,,,,,,,,,87,001,2023_Apr_27_1417,SpeechDraft1Carolyn_lessNoise_PlusLocalization,2021.2.3,60.010044765962,
,,,,,,,,farRight,19.1,4,ch1Sound_localizationTask.wav,19.1,"(1237, 878)","(277,-202)",285,-338,,,,,,,,,2,1,15,6,,,,,,,,,,,,,,,,,,,,,,,,,,,,,,,,,,,,,,,,,,,,699.4354261509143,None,700.5350637719966,None,701.4685599016957,None,1.6539682539682539,0.6165172420442104,701.4685599016957,None,,,,,,,,,,,,,,,,,87,001,2023_Apr_27_1417,SpeechDraft1Carolyn_lessNoise_PlusLocalization,2021.2.3,60.010044765962,
,,,,,,,,farRight,19.1,4,ch1Sound_localizationTask.wav,19.1,"(1237, 878)","(277,-202)",285,-338,,,,,,,,,2,2,16,6,,,,,,,,,,,,,,,,,,,,,,,,,,,,,,,,,,,,,,,,,,,,702.0860594497062,None,703.1851217458025,None,704.1184687027708,None,1.7058201058201057,0.533509423956275,704.1184687027708,None,,,,,,,,,,,,,,,,,87,001,2023_Apr_27_1417,SpeechDraft1Carolyn_lessNoise_PlusLocalization,2021.2.3,60.010044765962,
,,,,,,,,midLeft,-13.0,2,ch1Sound_localizationTask.wav,-13.0,"(762, 878)","(-198,-202)",-190,-338,,,,,,,,,2,3,17,1,,,,,,,,,,,,,,,,,,,,,,,,,,,,,,,,,,,,,,,,,,,,704.6523667639121,None,705.7517591197975,None,706.6851754416712,None,1.204232804232804,0.9338571997359395,706.6851754416712,None,,,,,,,,,,,,,,,,,87,001,2023_Apr_27_1417,SpeechDraft1Carolyn_lessNoise_PlusLocalization,2021.2.3,60.010044765962,
,,,,,,,,farLeft,-19.1,5,ch1Sound_localizationTask.wav,-19.1,"(667, 878)","(-293,-202)",-285,-338,,,,,,,,,2,4,18,0,,,,,,,,,,,,,,,,,,,,,,,,,,,,,,,,,,,,,,,,,,,,707.635581007693,None,708.7351725539193,None,709.6685107536614,None,1.2634920634920634,0.5185047290287912,709.6685107536614,None,,,,,,,,,,,,,,,,,87,001,2023_Apr_27_1417,SpeechDraft1Carolyn_lessNoise_PlusLocalization,2021.2.3,60.010044765962,
,,,,,,,,nearLeft,-6.5,1,ch1Sound_localizationTask.wav,-6.5,"(857, 878)","(-103,-202)",-95,-338,,,,,,,,,2,5,19,2,,,,,,,,,,,,,,,,,,,,,,,,,,,,,,,,,,,,,,,,,,,,710.2023597648367,None,711.3018272425979,None,712.2353457566351,None,1.3783068783068784,0.5844841399230063,712.2353457566351,None,,,,,,,,,,,,,,,,,87,001,2023_Apr_27_1417,SpeechDraft1Carolyn_lessNoise_PlusLocalization,2021.2.3,60.010044765962,
,,,,,,,,midRight,13.0,3,ch1Sound_localizationTask.wav,13.0,"(1142, 878)","(182, -202)",190,-338,,,,,,,,,2,6,20,5,,,,,,,,,,,,,,,,,,,,,,,,,,,,,,,,,,,,,,,,,,,,712.8355709039606,None,713.9351104507223,None,714.8685728078708,None,1.5624338624338625,0.749347360804677,714.8685728078708,None,,,,,,,,,,,,,,,,,87,001,2023_Apr_27_1417,SpeechDraft1Carolyn_lessNoise_PlusLocalization,2021.2.3,60.010044765962,
,,,,,,,,midLeft,-13.0,2,ch1Sound_localizationTask.wav,-13.0,"(762, 878)","(-198,-202)",-190,-338,,,,,,,,,3,0,21,1,,,,,,,,,,,,,,,,,,,,,,,,,,,,,,,,,,,,,,,,,,,,715.6195864458568,None,716.7185712936334,None,717.6519113979302,None,1.3206349206349206,0.9503708127886057,717.6519113979302,None,,,,,,,,,,,,,,,,,87,001,2023_Apr_27_1417,SpeechDraft1Carolyn_lessNoise_PlusLocalization,2021.2.3,60.010044765962,
,,,,,,,,farLeft,-19.1,5,ch1Sound_localizationTask.wav,-19.1,"(667, 878)","(-293,-202)",-285,-338,,,,,,,,,3,1,22,0,,,,,,,,,,,,,,,,,,,,,,,,,,,,,,,,,,,,,,,,,,,,718.6190284527838,None,719.7185198687948,None,720.6519392388873,None,1.2380952380952381,0.5015577622689307,720.6519392388873,None,,,,,,,,,,,,,,,,,87,001,2023_Apr_27_1417,SpeechDraft1Carolyn_lessNoise_PlusLocalization,2021.2.3,60.010044765962,
,,,,,,,,farLeft,-19.1,5,ch1Sound_localizationTask.wav,-19.1,"(667, 878)","(-293,-202)",-285,-338,,,,,,,,,3,2,23,0,,,,,,,,,,,,,,,,,,,,,,,,,,,,,,,,,,,,,,,,,,,,721.1687828069553,None,722.2685953308828,None,723.2017913949676,None,1.3291005291005291,0.3995109600946307,723.2017913949676,None,,,,,,,,,,,,,,,,,87,001,2023_Apr_27_1417,SpeechDraft1Carolyn_lessNoise_PlusLocalization,2021.2.3,60.010044765962,
,,,,,,,,center,0.0,6,ch1Sound_localizationTask.wav,0.0,"(952, 878)","(-8,-202)",0,-338,,,,,,,,,3,3,24,3,,,,,,,,,,,,,,,,,,,,,,,,,,,,,,,,,,,,,,,,,,,,723.6025027316064,None,724.7017544046976,None,725.6353573007509,None,1.494179894179894,0.5681942300871015,725.6353573007509,None,,,,,,,,,,,,,,,,,87,001,2023_Apr_27_1417,SpeechDraft1Carolyn_lessNoise_PlusLocalization,2021.2.3,60.010044765962,
,,,,,,,,nearRight,6.5,0,ch1Sound_localizationTask.wav,6.5,"(1047, 878)","(87, -202)",95,-338,,,,,,,,,3,4,25,4,,,,,,,,,,,,,,,,,,,,,,,,,,,,,,,,,,,,,,,,,,,,726.2187966415659,None,727.3185408087447,None,728.2518650088459,None,1.5412698412698411,0.43373087467625737,728.2518650088459,None,,,,,,,,,,,,,,,,,87,001,2023_Apr_27_1417,SpeechDraft1Carolyn_lessNoise_PlusLocalization,2021.2.3,60.010044765962,
,,,,,,,,farLeft,-19.1,5,ch1Sound_localizationTask.wav,-19.1,"(667, 878)","(-293,-202)",-285,-338,,,,,,,,,3,5,26,0,,,,,,,,,,,,,,,,,,,,,,,,,,,,,,,,,,,,,,,,,,,,728.7021317537874,None,729.8020270108245,None,730.7352212066762,None,1.1174603174603175,0.6156770992092788,730.7352212066762,None,,,,,,,,,,,,,,,,,87,001,2023_Apr_27_1417,SpeechDraft1Carolyn_lessNoise_PlusLocalization,2021.2.3,60.010044765962,
,,,,,,,,midLeft,-13.0,2,ch1Sound_localizationTask.wav,-13.0,"(762, 878)","(-198,-202)",-190,-338,,,,,,,,,3,6,27,1,,,,,,,,,,,,,,,,,,,,,,,,,,,,,,,,,,,,,,,,,,,,731.3533626468852,None,732.4684835346416,None,733.3851939919405,None,1.3465608465608465,0.7849300466477871,733.3851939919405,None,,,,,,,,,,,,,,,,,87,001,2023_Apr_27_1417,SpeechDraft1Carolyn_lessNoise_PlusLocalization,2021.2.3,60.010044765962,
,,,,,,,,farRight,19.1,4,ch1Sound_localizationTask.wav,19.1,"(1237, 878)","(277,-202)",285,-338,,,,,,,,,4,0,28,6,,,,,,,,,,,,,,,,,,,,,,,,,,,,,,,,,,,,,,,,,,,,734.1854466279037,None,735.285249653738,None,736.2184316576459,None,1.674074074074074,0.5682547823525965,736.2184316576459,None,,,,,,,,,,,,,,,,,87,001,2023_Apr_27_1417,SpeechDraft1Carolyn_lessNoise_PlusLocalization,2021.2.3,60.010044765962,
,,,,,,,,center,0.0,6,ch1Sound_localizationTask.wav,0.0,"(952, 878)","(-8,-202)",0,-338,,,,,,,,,4,1,29,3,,,,,,,,,,,,,,,,,,,,,,,,,,,,,,,,,,,,,,,,,,,,736.8022292256355,None,737.9019371406175,None,738.8353881128132,None,1.48994708994709,0.5999929760582745,738.8353881128132,None,,,,,,,,,,,,,,,,,87,001,2023_Apr_27_1417,SpeechDraft1Carolyn_lessNoise_PlusLocalization,2021.2.3,60.010044765962,
,,,,,,,,center,0.0,6,ch1Sound_localizationTask.wav,0.0,"(952, 878)","(-8,-202)",0,-338,,,,,,,,,4,2,30,3,,,,,,,,,,,,,,,,,,,,,,,,,,,,,,,,,,,,,,,,,,,,739.4369009016082,None,740.5519725857303,None,741.4686211328954,None,1.397883597883598,0.4671253291890025,741.4686211328954,None,,,,,,,,,,,,,,,,,87,001,2023_Apr_27_1417,SpeechDraft1Carolyn_lessNoise_PlusLocalization,2021.2.3,60.010044765962,
,,,,,,,,midRight,13.0,3,ch1Sound_localizationTask.wav,13.0,"(1142, 878)","(182, -202)",190,-338,,,,,,,,,4,3,31,5,,,,,,,,,,,,,,,,,,,,,,,,,,,,,,,,,,,,,,,,,,,,741.9522343459539,None,743.0518783237785,None,743.9851422067732,None,1.5846560846560847,0.7004225067794323,743.9851422067732,None,,,,,,,,,,,,,,,,,87,001,2023_Apr_27_1417,SpeechDraft1Carolyn_lessNoise_PlusLocalization,2021.2.3,60.010044765962,
,,,,,,,,farLeft,-19.1,5,ch1Sound_localizationTask.wav,-19.1,"(667, 878)","(-293,-202)",-285,-338,,,,,,,,,4,4,32,0,,,,,,,,,,,,,,,,,,,,,,,,,,,,,,,,,,,,,,,,,,,,744.7022841549478,None,745.8019872158766,None,746.7353290338069,None,1.248148148148148,0.6843981817364693,746.7353290338069,None,,,,,,,,,,,,,,,,,87,001,2023_Apr_27_1417,SpeechDraft1Carolyn_lessNoise_PlusLocalization,2021.2.3,60.010044765962,
,,,,,,,,midRight,13.0,3,ch1Sound_localizationTask.wav,13.0,"(1142, 878)","(182, -202)",190,-338,,,,,,,,,4,5,33,5,,,,,,,,,,,,,,,,,,,,,,,,,,,,,,,,,,,,,,,,,,,,747.4356386158615,None,748.535119145643,None,749.4687821837142,None,1.6232804232804234,0.8684852770529687,749.4687821837142,None,,,,,,,,,,,,,,,,,87,001,2023_Apr_27_1417,SpeechDraft1Carolyn_lessNoise_PlusLocalization,2021.2.3,60.010044765962,
,,,,,,,,farRight,19.1,4,ch1Sound_localizationTask.wav,19.1,"(1237, 878)","(277,-202)",285,-338,,,,,,,,,4,6,34,6,,,,,,,,,,,,,,,,,,,,,,,,,,,,,,,,,,,,,,,,,,,,750.3522553886287,None,751.4519701506943,None,752.385132056661,None,1.5534391534391534,0.5335617251694202,752.385132056661,None,,,,,,,,,,,,,,,,,87,001,2023_Apr_27_1417,SpeechDraft1Carolyn_lessNoise_PlusLocalization,2021.2.3,60.010044765962,
,,,,,,,,center,0.0,6,ch1Sound_localizationTask.wav,0.0,"(952, 878)","(-8,-202)",0,-338,,,,,,,,,5,0,35,3,,,,,,,,,,,,,,,,,,,,,,,,,,,,,,,,,,,,,,,,,,,,752.9354909188114,None,754.0353238959797,None,754.9685976440087,None,1.4174603174603175,0.41686559608206153,754.9685976440087,None,,,,,,,,,,,,,,,,,87,001,2023_Apr_27_1417,SpeechDraft1Carolyn_lessNoise_PlusLocalization,2021.2.3,60.010044765962,
,,,,,,,,nearLeft,-6.5,1,ch1Sound_localizationTask.wav,-6.5,"(857, 878)","(-103,-202)",-95,-338,,,,,,,,,5,1,36,2,,,,,,,,,,,,,,,,,,,,,,,,,,,,,,,,,,,,,,,,,,,,755.4021393046714,None,756.5018206117675,None,757.4351497148164,None,1.4772486772486773,0.46678325813263655,757.4351497148164,None,,,,,,,,,,,,,,,,,87,001,2023_Apr_27_1417,SpeechDraft1Carolyn_lessNoise_PlusLocalization,2021.2.3,60.010044765962,
,,,,,,,,nearLeft,-6.5,1,ch1Sound_localizationTask.wav,-6.5,"(857, 878)","(-103,-202)",-95,-338,,,,,,,,,5,2,37,2,,,,,,,,,,,,,,,,,,,,,,,,,,,,,,,,,,,,,,,,,,,,757.9030385967344,None,759.0019050319679,None,759.9352481407113,None,1.4396825396825397,0.41621623327955604,759.9352481407113,None,,,,,,,,,,,,,,,,,87,001,2023_Apr_27_1417,SpeechDraft1Carolyn_lessNoise_PlusLocalization,2021.2.3,60.010044765962,
,,,,,,,,midRight,13.0,3,ch1Sound_localizationTask.wav,13.0,"(1142, 878)","(182, -202)",190,-338,,,,,,,,,5,3,38,5,,,,,,,,,,,,,,,,,,,,,,,,,,,,,,,,,,,,,,,,,,,,760.3527200217359,None,761.4520044336095,None,762.3852191399783,None,1.5783068783068783,0.7334291501902044,762.3852191399783,None,,,,,,,,,,,,,,,,,87,001,2023_Apr_27_1417,SpeechDraft1Carolyn_lessNoise_PlusLocalization,2021.2.3,60.010044765962,
,,,,,,,,nearLeft,-6.5,1,ch1Sound_localizationTask.wav,-6.5,"(857, 878)","(-103,-202)",-95,-338,,,,,,,,,5,4,39,2,,,,,,,,,,,,,,,,,,,,,,,,,,,,,,,,,,,,,,,,,,,,763.1195439365692,None,764.2185669438913,None,765.1518411939032,None,1.38994708994709,0.9990141247399151,765.1518411939032,None,,,,,,,,,,,,,,,,,87,001,2023_Apr_27_1417,SpeechDraft1Carolyn_lessNoise_PlusLocalization,2021.2.3,60.010044765962,
,,,,,,,,center,0.0,6,ch1Sound_localizationTask.wav,0.0,"(952, 878)","(-8,-202)",0,-338,,,,,,,,,5,5,40,3,,,,,,,,,,,,,,,,,,,,,,,,,,,,,,,,,,,,,,,,,,,,766.1527479509823,None,767.2519324789755,None,768.1853179140016,None,1.4412698412698413,0.4325936809182167,768.1853179140016,None,,,,,,,,,,,,,,,,,87,001,2023_Apr_27_1417,SpeechDraft1Carolyn_lessNoise_PlusLocalization,2021.2.3,60.010044765962,
,,,,,,,,nearRight,6.5,0,ch1Sound_localizationTask.wav,6.5,"(1047, 878)","(87, -202)",95,-338,,,,,,,,,5,6,41,4,,,,,,,,,,,,,,,,,,,,,,,,,,,,,,,,,,,,,,,,,,,,768.6188686676323,None,769.718728879001,None,770.6520037106238,None,1.5238095238095237,0.5495598609559238,770.6520037106238,None,,,,,,,,,,,,,,,,,87,001,2023_Apr_27_1417,SpeechDraft1Carolyn_lessNoise_PlusLocalization,2021.2.3,60.010044765962,
,,,,,,,,midRight,13.0,3,ch1Sound_localizationTask.wav,13.0,"(1142, 878)","(182, -202)",190,-338,,,,,,,,,6,0,42,5,,,,,,,,,,,,,,,,,,,,,,,,,,,,,,,,,,,,,,,,,,,,771.2023265049793,None,772.3022517720237,None,773.2352242409252,None,1.583068783068783,0.650163612794131,773.2352242409252,None,,,,,,,,,,,,,,,,,87,001,2023_Apr_27_1417,SpeechDraft1Carolyn_lessNoise_PlusLocalization,2021.2.3,60.010044765962,
,,,,,,,,nearRight,6.5,0,ch1Sound_localizationTask.wav,6.5,"(1047, 878)","(87, -202)",95,-338,,,,,,,,,6,1,43,4,,,,,,,,,,,,,,,,,,,,,,,,,,,,,,,,,,,,,,,,,,,,773.885875377804,None,774.9852033075877,None,775.9186045108363,None,1.4857142857142858,0.7991391289979219,775.9186045108363,None,,,,,,,,,,,,,,,,,87,001,2023_Apr_27_1417,SpeechDraft1Carolyn_lessNoise_PlusLocalization,2021.2.3,60.010044765962,
,,,,,,,,nearRight,6.5,0,ch1Sound_localizationTask.wav,6.5,"(1047, 878)","(87, -202)",95,-338,,,,,,,,,6,2,44,4,,,,,,,,,,,,,,,,,,,,,,,,,,,,,,,,,,,,,,,,,,,,776.7188838408329,None,777.8185804528184,None,778.7520176558755,None,1.5338624338624338,0.7333761872723699,778.7520176558755,None,,,,,,,,,,,,,,,,,87,001,2023_Apr_27_1417,SpeechDraft1Carolyn_lessNoise_PlusLocalization,2021.2.3,60.010044765962,
,,,,,,,,midLeft,-13.0,2,ch1Sound_localizationTask.wav,-13.0,"(762, 878)","(-198,-202)",-190,-338,,,,,,,,,6,3,45,1,,,,,,,,,,,,,,,,,,,,,,,,,,,,,,,,,,,,,,,,,,,,779.4859630307183,None,780.5853737029247,None,781.5186188966036,None,1.3174603174603174,0.7163640479557216,781.5186188966036,None,,,,,,,,,,,,,,,,,87,001,2023_Apr_27_1417,SpeechDraft1Carolyn_lessNoise_PlusLocalization,2021.2.3,60.010044765962,
,,,,,,,,nearLeft,-6.5,1,ch1Sound_localizationTask.wav,-6.5,"(857, 878)","(-103,-202)",-95,-338,,,,,,,,,6,4,46,2,,,,,,,,,,,,,,,,,,,,,,,,,,,,,,,,,,,,,,,,,,,,782.2524026907049,None,783.3519099559635,None,784.2853547539562,None,1.3063492063492064,0.7997761038132012,784.2853547539562,None,,,,,,,,,,,,,,,,,87,001,2023_Apr_27_1417,SpeechDraft1Carolyn_lessNoise_PlusLocalization,2021.2.3,60.010044765962,
,,,,,,,,nearRight,6.5,0,ch1Sound_localizationTask.wav,6.5,"(1047, 878)","(87, -202)",95,-338,,,,,,,,,6,5,47,4,,,,,,,,,,,,,,,,,,,,,,,,,,,,,,,,,,,,,,,,,,,,785.0858317888342,None,786.1853768797591,None,787.1185926357284,None,1.4465608465608466,0.6829581558704376,787.1185926357284,None,,,,,,,,,,,,,,,,,87,001,2023_Apr_27_1417,SpeechDraft1Carolyn_lessNoise_PlusLocalization,2021.2.3,60.010044765962,
,,,,,,,,nearRight,6.5,0,ch1Sound_localizationTask.wav,6.5,"(1047, 878)","(87, -202)",95,-338,,,,,,,,,6,6,48,4,,,,,,,,,,,,,,,,,,,,,,,,,,,,,,,,,,,,,,,,,,,,787.8022392457351,None,788.9018837618642,None,789.8352687759325,None,1.5587301587301587,0.6347129973582923,789.8352687759325,None,,,,,,,,,,,,,,,,,87,001,2023_Apr_27_1417,SpeechDraft1Carolyn_lessNoise_PlusLocalization,2021.2.3,60.010044765962,
,,,,,,,,farRight,19.1,4,ch1Sound_localizationTask.wav,19.1,"(1237, 878)","(277,-202)",285,-338,,,,,,,,,7,0,49,6,,,,,,,,,,,,,,,,,,,,,,,,,,,,,,,,,,,,,,,,,,,,790.4854958518408,None,791.5852652098984,None,792.5185542306863,None,1.6185185185185185,0.8166681965813041,792.5185542306863,None,,,,,,,,,,,,,,,,,87,001,2023_Apr_27_1417,SpeechDraft1Carolyn_lessNoise_PlusLocalization,2021.2.3,60.010044765962,
,,,,,,,,midLeft,-13.0,2,ch1Sound_localizationTask.wav,-13.0,"(762, 878)","(-198,-202)",-190,-338,,,,,,,,,7,1,50,1,,,,,,,,,,,,,,,,,,,,,,,,,,,,,,,,,,,,,,,,,,,,793.3358205179684,None,794.4351801685989,None,795.3686188450083,None,1.2259259259259259,0.6843970688059926,795.3686188450083,None,,,,,,,,,,,,,,,,,87,001,2023_Apr_27_1417,SpeechDraft1Carolyn_lessNoise_PlusLocalization,2021.2.3,60.010044765962,
,,,,,,,,nearLeft,-6.5,1,ch1Sound_localizationTask.wav,-6.5,"(857, 878)","(-103,-202)",-95,-338,,,,,,,,,7,2,51,2,,,,,,,,,,,,,,,,,,,,,,,,,,,,,,,,,,,,,,,,,,,,796.0690616238862,None,797.1685482887551,None,798.1019713305868,None,1.2661375661375662,0.7501932349987328,798.1019713305868,None,,,,,,,,,,,,,,,,,87,001,2023_Apr_27_1417,SpeechDraft1Carolyn_lessNoise_PlusLocalization,2021.2.3,60.010044765962,
,,,,,,,,farRight,19.1,4,ch1Sound_localizationTask.wav,19.1,"(1237, 878)","(277,-202)",285,-338,,,,,,,,,7,3,52,6,,,,,,,,,,,,,,,,,,,,,,,,,,,,,,,,,,,,,,,,,,,,798.8528320998885,None,799.951963650994,None,800.8854758897796,None,1.7063492063492063,0.7338692499324679,800.8854758897796,None,,,,,,,,,,,,,,,,,87,001,2023_Apr_27_1417,SpeechDraft1Carolyn_lessNoise_PlusLocalization,2021.2.3,60.010044765962,
,,,,,,,,midLeft,-13.0,2,ch1Sound_localizationTask.wav,-13.0,"(762, 878)","(-198,-202)",-190,-338,,,,,,,,,7,4,53,1,,,,,,,,,,,,,,,,,,,,,,,,,,,,,,,,,,,,,,,,,,,,801.635747266002,None,802.7352020437829,None,803.66867058957,None,1.2825396825396824,0.5681487931869924,803.66867058957,None,,,,,,,,,,,,,,,,,87,001,2023_Apr_27_1417,SpeechDraft1Carolyn_lessNoise_PlusLocalization,2021.2.3,60.010044765962,
,,,,,,,,nearLeft,-6.5,1,ch1Sound_localizationTask.wav,-6.5,"(857, 878)","(-103,-202)",-95,-338,,,,,,,,,7,5,54,2,,,,,,,,,,,,,,,,,,,,,,,,,,,,,,,,,,,,,,,,,,,,804.2523791287094,None,805.3519566096365,None,806.2853280059062,None,1.3825396825396825,0.4486475787125528,806.2853280059062,None,,,,,,,,,,,,,,,,,87,001,2023_Apr_27_1417,SpeechDraft1Carolyn_lessNoise_PlusLocalization,2021.2.3,60.010044765962,
,,,,,,,,farRight,19.1,4,ch1Sound_localizationTask.wav,19.1,"(1237, 878)","(277,-202)",285,-338,,,,,,,,,7,6,55,6,,,,,,,,,,,,,,,,,,,,,,,,,,,,,,,,,,,,,,,,,,,,806.7360452888533,None,807.8353871256113,None,808.7686316217296,None,1.6275132275132276,0.6503397263586521,808.7686316217296,None,,,,,,,,,,,,,,,,,87,001,2023_Apr_27_1417,SpeechDraft1Carolyn_lessNoise_PlusLocalization,2021.2.3,60.010044765962,
,,,,,,,,,,,,,,,,,,,,,,,,,,,,,,,,,,,,,,,,,,,,,,,,,,,,,,,,,,,,,,,,,,,,,,,,,,,,,,,,,,space,43.28358280006796,809.5189535948448,None,,,,,,,,,,,,,87,001,2023_Apr_27_1417,SpeechDraft1Carolyn_lessNoise_PlusLocalization,2021.2.3,60.010044765962,
,,,,,,,,midRight,13.0,3,ch1Sound_localizationTask.wav,13.0,"(1142, 878)","(182, -202)",190,-338,,,,,,,,,,,,,0,0,0,5,,,,,,,,,,,,,,,,,,,,,,,,,,,,,,,,,,,,,,,,852.8521301075816,None,,,855.8853462147526,None,1.6206349206349207,1.6864659963175654,855.8853462147526,None,,,,,809.5189535948448,None,853.8524715355597,None,854.035616574809,854.0523788817227,,,,,,,87,001,2023_Apr_27_1417,SpeechDraft1Carolyn_lessNoise_PlusLocalization,2021.2.3,60.010044765962,
,,,,,,,,midRight,13.0,3,ch1Sound_localizationTask.wav,13.0,"(1142, 878)","(182, -202)",190,-338,,,,,,,,,,,,,0,1,1,5,,,,,,,,,,,,,,,,,,,,,,,,,,,,,,,,,,,,,,,,857.5690460139886,None,,,860.5855976128951,None,1.5656084656084657,0.11540239583700895,860.5855976128951,None,,,,,,,858.5689783007838,None,858.7523295246065,858.76902788179,,,,,,,87,001,2023_Apr_27_1417,SpeechDraft1Carolyn_lessNoise_PlusLocalization,2021.2.3,60.010044765962,
,,,,,,,,center,0.0,6,ch1Sound_localizationTask.wav,0.0,"(952, 878)","(-8,-202)",0,-338,,,,,,,,,,,,,0,2,2,3,,,,,,,,,,,,,,,,,,,,,,,,,,,,,,,,,,,,,,,,860.7023488190025,None,,,863.7188627687283,None,1.5052910052910053,0.866377096157521,863.7188627687283,None,,,,,,,861.7023514397442,None,861.8856602697633,861.9025645288639,,,,,,,87,001,2023_Apr_27_1417,SpeechDraft1Carolyn_lessNoise_PlusLocalization,2021.2.3,60.010044765962,
,,,,,,,,center,0.0,6,ch1Sound_localizationTask.wav,0.0,"(952, 878)","(-8,-202)",0,-338,,,,,,,,,,,,,0,3,3,3,,,,,,,,,,,,,,,,,,,,,,,,,,,,,,,,,,,,,,,,864.5857871635817,None,,,867.6020593158901,None,1.5052910052910053,0.48308895993977785,867.6020593158901,None,,,,,,,865.585669349879,None,865.7689363909885,865.7857597009279,,,,,,,87,001,2023_Apr_27_1417,SpeechDraft1Carolyn_lessNoise_PlusLocalization,2021.2.3,60.010044765962,
,,,,,,,,nearLeft,-6.5,1,ch1Sound_localizationTask.wav,-6.5,"(857, 878)","(-103,-202)",-95,-338,,,,,,,,,,,,,0,4,4,2,,,,,,,,,,,,,,,,,,,,,,,,,,,,,,,,,,,,,,,,868.085922644008,None,,,871.1022529089823,None,1.4534391534391533,0.849180722143501,871.1022529089823,None,,,,,,,869.0861665885895,None,869.2690927619115,869.2857116367668,,,,,,,87,001,2023_Apr_27_1417,SpeechDraft1Carolyn_lessNoise_PlusLocalization,2021.2.3,60.010044765962,
,,,,,,,,midRight,13.0,3,ch1Sound_localizationTask.wav,13.0,"(1142, 878)","(182, -202)",190,-338,,,,,,,,,,,,,0,5,5,5,,,,,,,,,,,,,,,,,,,,,,,,,,,,,,,,,,,,,,,,871.9525220599025,None,,,874.9686244740151,None,1.621164021164021,0.8332775491289794,874.9686244740151,None,,,,,,,872.9523554397747,None,873.1356726665981,873.1523436158895,,,,,,,87,001,2023_Apr_27_1417,SpeechDraft1Carolyn_lessNoise_PlusLocalization,2021.2.3,60.010044765962,
,,,,,,,,center,0.0,6,ch1Sound_localizationTask.wav,0.0,"(952, 878)","(-8,-202)",0,-338,,,,,,,,,,,,,0,6,6,3,,,,,,,,,,,,,,,,,,,,,,,,,,,,,,,,,,,,,,,,875.8190899086185,None,,,878.83549036365,None,1.4984126984126984,0.6976069621741772,878.83549036365,None,,,,,,,876.8190766237676,None,877.0022624325939,877.018994406797,,,,,,,87,001,2023_Apr_27_1417,SpeechDraft1Carolyn_lessNoise_PlusLocalization,2021.2.3,60.010044765962,
,,,,,,,,farRight,19.1,4,ch1Sound_localizationTask.wav,19.1,"(1237, 878)","(277,-202)",285,-338,,,,,,,,,,,,,1,0,7,6,,,,,,,,,,,,,,,,,,,,,,,,,,,,,,,,,,,,,,,,879.5357313747518,None,,,882.5521408747882,None,1.7148148148148148,0.7001866521313787,882.5521408747882,None,,,,,,,880.5358105939813,None,880.7189749358222,880.7356888977811,,,,,,,87,001,2023_Apr_27_1417,SpeechDraft1Carolyn_lessNoise_PlusLocalization,2021.2.3,60.010044765962,
,,,,,,,,center,0.0,6,ch1Sound_localizationTask.wav,0.0,"(952, 878)","(-8,-202)",0,-338,,,,,,,,,,,,,1,1,8,3,,,,,,,,,,,,,,,,,,,,,,,,,,,,,,,,,,,,,,,,883.2689932705835,None,,,886.2857396546751,None,1.4994708994708994,0.6319180983118713,886.2857396546751,None,,,,,,,884.269203400705,None,884.4523549987935,884.4690885366872,,,,,,,87,001,2023_Apr_27_1417,SpeechDraft1Carolyn_lessNoise_PlusLocalization,2021.2.3,60.010044765962,
,,,,,,,,nearLeft,-6.5,1,ch1Sound_localizationTask.wav,-6.5,"(857, 878)","(-103,-202)",-95,-338,,,,,,,,,,,,,1,2,9,2,,,,,,,,,,,,,,,,,,,,,,,,,,,,,,,,,,,,,,,,886.9190154676326,None,,,889.9355789059773,None,1.4248677248677248,0.6653006649576128,889.9355789059773,None,,,,,,,887.9190417006612,None,888.1024202019908,888.119055156596,,,,,,,87,001,2023_Apr_27_1417,SpeechDraft1Carolyn_lessNoise_PlusLocalization,2021.2.3,60.010044765962,
,,,,,,,,midRight,13.0,3,ch1Sound_localizationTask.wav,13.0,"(1142, 878)","(182, -202)",190,-338,,,,,,,,,,,,,1,3,10,5,,,,,,,,,,,,,,,,,,,,,,,,,,,,,,,,,,,,,,,,890.6027271598577,None,,,893.6189291309565,None,1.6671957671957671,0.8670104658231139,893.6189291309565,None,,,,,,,891.6024197195657,None,891.7856763158925,891.8024236327037,,,,,,,87,001,2023_Apr_27_1417,SpeechDraft1Carolyn_lessNoise_PlusLocalization,2021.2.3,60.010044765962,
,,,,,,,,midLeft,-13.0,2,ch1Sound_localizationTask.wav,-13.0,"(762, 878)","(-198,-202)",-190,-338,,,,,,,,,,,,,1,4,11,1,,,,,,,,,,,,,,,,,,,,,,,,,,,,,,,,,,,,,,,,894.5023658275604,None,,,897.51881541498,None,1.4063492063492062,0.6996770119294524,897.51881541498,None,,,,,,,895.502387904562,None,895.6858223536983,895.7024927157909,,,,,,,87,001,2023_Apr_27_1417,SpeechDraft1Carolyn_lessNoise_PlusLocalization,2021.2.3,60.010044765962,
,,,,,,,,nearLeft,-6.5,1,ch1Sound_localizationTask.wav,-6.5,"(857, 878)","(-103,-202)",-95,-338,,,,,,,,,,,,,1,5,12,2,,,,,,,,,,,,,,,,,,,,,,,,,,,,,,,,,,,,,,,,898.2195645458996,None,,,901.2355887698941,None,1.4645502645502646,0.5493619381450117,901.2355887698941,None,,,,,,,899.2191759035923,None,899.4023458608426,899.419113881886,,,,,,,87,001,2023_Apr_27_1417,SpeechDraft1Carolyn_lessNoise_PlusLocalization,2021.2.3,60.010044765962,
,,,,,,,,nearRight,6.5,0,ch1Sound_localizationTask.wav,6.5,"(1047, 878)","(87, -202)",95,-338,,,,,,,,,,,,,1,6,13,4,,,,,,,,,,,,,,,,,,,,,,,,,,,,,,,,,,,,,,,,901.7863299637102,None,,,904.8021139707416,None,1.5724867724867724,0.9823401970788836,904.8021139707416,None,,,,,,,902.7858219835907,None,902.9690451486968,902.9857615507208,,,,,,,87,001,2023_Apr_27_1417,SpeechDraft1Carolyn_lessNoise_PlusLocalization,2021.2.3,60.010044765962,
,,,,,,,,nearLeft,-6.5,1,ch1Sound_localizationTask.wav,-6.5,"(857, 878)","(-103,-202)",-95,-338,,,,,,,,,,,,,2,0,14,2,,,,,,,,,,,,,,,,,,,,,,,,,,,,,,,,,,,,,,,,905.7867369097658,None,,,908.8021637178026,None,1.452910052910053,0.5987734170630574,908.8021637178026,None,,,,,,,906.7857268638909,None,906.9689994007349,906.9857320976444,,,,,,,87,001,2023_Apr_27_1417,SpeechDraft1Carolyn_lessNoise_PlusLocalization,2021.2.3,60.010044765962,
,,,,,,,,farLeft,-19.1,5,ch1Sound_localizationTask.wav,-19.1,"(667, 878)","(-293,-202)",-285,-338,,,,,,,,,,,,,2,1,15,0,,,,,,,,,,,,,,,,,,,,,,,,,,,,,,,,,,,,,,,,909.4025465468876,None,,,912.4187503596768,None,1.3285714285714285,0.633206426165998,912.4187503596768,None,,,,,,,910.4023889228702,None,910.5856472468004,910.6025357837789,,,,,,,87,001,2023_Apr_27_1417,SpeechDraft1Carolyn_lessNoise_PlusLocalization,2021.2.3,60.010044765962,
,,,,,,,,midLeft,-13.0,2,ch1Sound_localizationTask.wav,-13.0,"(762, 878)","(-198,-202)",-190,-338,,,,,,,,,,,,,2,2,16,1,,,,,,,,,,,,,,,,,,,,,,,,,,,,,,,,,,,,,,,,913.0532462359406,None,,,916.0691743786447,None,1.4010582010582011,0.6327288961037993,916.0691743786447,None,,,,,,,914.052549383603,None,914.2357384245843,914.2524570575915,,,,,,,87,001,2023_Apr_27_1417,SpeechDraft1Carolyn_lessNoise_PlusLocalization,2021.2.3,60.010044765962,
,,,,,,,,nearRight,6.5,0,ch1Sound_localizationTask.wav,6.5,"(1047, 878)","(87, -202)",95,-338,,,,,,,,,,,,,2,3,17,4,,,,,,,,,,,,,,,,,,,,,,,,,,,,,,,,,,,,,,,,916.7027623527683,None,,,919.7189556709491,None,1.561904761904762,0.883500088006258,919.7189556709491,None,,,,,,,917.7025126959197,None,917.8857255247422,917.9025522037409,,,,,,,87,001,2023_Apr_27_1417,SpeechDraft1Carolyn_lessNoise_PlusLocalization,2021.2.3,60.010044765962,
,,,,,,,,midRight,13.0,3,ch1Sound_localizationTask.wav,13.0,"(1142, 878)","(182, -202)",190,-338,,,,,,,,,,,,,2,4,18,5,,,,,,,,,,,,,,,,,,,,,,,,,,,,,,,,,,,,,,,,920.6192010627128,None,,,923.635442324914,None,1.6179894179894179,0.866523870266974,923.635442324914,None,,,,,,,921.6190694039688,None,921.8024176578037,921.819026932586,,,,,,,87,001,2023_Apr_27_1417,SpeechDraft1Carolyn_lessNoise_PlusLocalization,2021.2.3,60.010044765962,
,,,,,,,,farLeft,-19.1,5,ch1Sound_localizationTask.wav,-19.1,"(667, 878)","(-293,-202)",-285,-338,,,,,,,,,,,,,2,5,19,0,,,,,,,,,,,,,,,,,,,,,,,,,,,,,,,,,,,,,,,,924.5027578226291,None,,,927.5187992849387,None,1.326984126984127,0.8158388365991414,927.5187992849387,None,,,,,,,925.5025153309107,None,925.6858063875698,925.7026867028326,,,,,,,87,001,2023_Apr_27_1417,SpeechDraft1Carolyn_lessNoise_PlusLocalization,2021.2.3,60.010044765962,
,,,,,,,,nearLeft,-6.5,1,ch1Sound_localizationTask.wav,-6.5,"(857, 878)","(-103,-202)",-95,-338,,,,,,,,,,,,,2,6,20,2,,,,,,,,,,,,,,,,,,,,,,,,,,,,,,,,,,,,,,,,928.3364536846057,None,,,931.3521364149638,None,1.4513227513227513,0.5143982730805874,931.3521364149638,None,,,,,,,929.3359270738438,None,929.5191008658148,929.5357718658634,,,,,,,87,001,2023_Apr_27_1417,SpeechDraft1Carolyn_lessNoise_PlusLocalization,2021.2.3,60.010044765962,
,,,,,,,,farRight,19.1,4,ch1Sound_localizationTask.wav,19.1,"(1237, 878)","(277,-202)",285,-338,,,,,,,,,,,,,3,0,21,6,,,,,,,,,,,,,,,,,,,,,,,,,,,,,,,,,,,,,,,,931.870012674015,None,,,934.8855324899778,None,1.7068783068783069,0.5323147536255419,934.8855324899778,None,,,,,,,932.8692597430199,None,933.0524099245667,933.0690576308407,,,,,,,87,001,2023_Apr_27_1417,SpeechDraft1Carolyn_lessNoise_PlusLocalization,2021.2.3,60.010044765962,
,,,,,,,,farLeft,-19.1,5,ch1Sound_localizationTask.wav,-19.1,"(667, 878)","(-293,-202)",-285,-338,,,,,,,,,,,,,3,1,22,0,,,,,,,,,,,,,,,,,,,,,,,,,,,,,,,,,,,,,,,,935.4193700039759,None,,,938.4353948468342,None,1.3328042328042329,0.8323410069569945,938.4353948468342,None,,,,,,,936.4191199899651,None,936.6024658409879,936.6191413789056,,,,,,,87,001,2023_Apr_27_1417,SpeechDraft1Carolyn_lessNoise_PlusLocalization,2021.2.3,60.010044765962,
,,,,,,,,center,0.0,6,ch1Sound_localizationTask.wav,0.0,"(952, 878)","(-8,-202)",0,-338,,,,,,,,,,,,,3,2,23,3,,,,,,,,,,,,,,,,,,,,,,,,,,,,,,,,,,,,,,,,939.2698150668293,None,,,942.2855694037862,None,1.5052910052910053,0.8989418619312346,942.2855694037862,None,,,,,,,940.2691669827327,None,940.4525828650221,940.4692579079419,,,,,,,87,001,2023_Apr_27_1417,SpeechDraft1Carolyn_lessNoise_PlusLocalization,2021.2.3,60.010044765962,
,,,,,,,,midLeft,-13.0,2,ch1Sound_localizationTask.wav,-13.0,"(762, 878)","(-198,-202)",-190,-338,,,,,,,,,,,,,3,3,24,1,,,,,,,,,,,,,,,,,,,,,,,,,,,,,,,,,,,,,,,,943.1858944976702,None,,,946.201990687754,None,1.3793650793650793,0.6325668492354453,946.201990687754,None,,,,,,,944.1857602628879,None,944.3691041585989,944.38572954759,,,,,,,87,001,2023_Apr_27_1417,SpeechDraft1Carolyn_lessNoise_PlusLocalization,2021.2.3,60.010044765962,
,,,,,,,,midLeft,-13.0,2,ch1Sound_localizationTask.wav,-13.0,"(762, 878)","(-198,-202)",-190,-338,,,,,,,,,,,,,3,4,25,1,,,,,,,,,,,,,,,,,,,,,,,,,,,,,,,,,,,,,,,,946.8363070748746,None,,,949.8521991986781,None,1.4243386243386245,0.4160242290236056,949.8521991986781,None,,,,,,,947.8357778089121,None,948.0192778506316,948.0358310667798,,,,,,,87,001,2023_Apr_27_1417,SpeechDraft1Carolyn_lessNoise_PlusLocalization,2021.2.3,60.010044765962,
,,,,,,,,midLeft,-13.0,2,ch1Sound_localizationTask.wav,-13.0,"(762, 878)","(-198,-202)",-190,-338,,,,,,,,,,,,,3,5,26,1,,,,,,,,,,,,,,,,,,,,,,,,,,,,,,,,,,,,,,,,950.2696197465993,None,,,953.2856418290175,None,1.3650793650793651,0.3995128530077636,953.2856418290175,None,,,,,,,951.2691743038595,None,951.4524192740209,951.4691938599572,,,,,,,87,001,2023_Apr_27_1417,SpeechDraft1Carolyn_lessNoise_PlusLocalization,2021.2.3,60.010044765962,
,,,,,,,,midRight,13.0,3,ch1Sound_localizationTask.wav,13.0,"(1142, 878)","(182, -202)",190,-338,,,,,,,,,,,,,3,6,27,5,,,,,,,,,,,,,,,,,,,,,,,,,,,,,,,,,,,,,,,,953.6865364150144,None,,,956.7022190908901,None,1.4084656084656084,0.7661699652671814,956.7022190908901,None,,,,,,,954.6858514277264,None,954.8691167579964,954.8858101596124,,,,,,,87,001,2023_Apr_27_1417,SpeechDraft1Carolyn_lessNoise_PlusLocalization,2021.2.3,60.010044765962,
,,,,,,,,farLeft,-19.1,5,ch1Sound_localizationTask.wav,-19.1,"(667, 878)","(-293,-202)",-285,-338,,,,,,,,,,,,,4,0,28,0,,,,,,,,,,,,,,,,,,,,,,,,,,,,,,,,,,,,,,,,957.4692617338151,None,,,960.4855834846385,None,1.3174603174603174,0.43250056728720665,960.4855834846385,None,,,,,,,958.4691522265784,None,958.652534534689,958.6691763247363,,,,,,,87,001,2023_Apr_27_1417,SpeechDraft1Carolyn_lessNoise_PlusLocalization,2021.2.3,60.010044765962,
,,,,,,,,farLeft,-19.1,5,ch1Sound_localizationTask.wav,-19.1,"(667, 878)","(-293,-202)",-285,-338,,,,,,,,,,,,,4,1,29,0,,,,,,,,,,,,,,,,,,,,,,,,,,,,,,,,,,,,,,,,960.9359962539747,None,,,963.952280963771,None,1.3883597883597885,0.6488481010310352,963.952280963771,None,,,,,,,961.9358266107738,None,962.1191314458847,962.1357979276218,,,,,,,87,001,2023_Apr_27_1417,SpeechDraft1Carolyn_lessNoise_PlusLocalization,2021.2.3,60.010044765962,
,,,,,,,,farLeft,-19.1,5,ch1Sound_localizationTask.wav,-19.1,"(667, 878)","(-293,-202)",-285,-338,,,,,,,,,,,,,4,2,30,0,,,,,,,,,,,,,,,,,,,,,,,,,,,,,,,,,,,,,,,,964.6026814589277,None,,,967.6188247129321,None,1.3862433862433863,0.7848851978778839,967.6188247129321,None,,,,,,,965.6025228337385,None,965.7858144249767,965.8024465646595,,,,,,,87,001,2023_Apr_27_1417,SpeechDraft1Carolyn_lessNoise_PlusLocalization,2021.2.3,60.010044765962,
,,,,,,,,farRight,19.1,4,ch1Sound_localizationTask.wav,19.1,"(1237, 878)","(277,-202)",285,-338,,,,,,,,,,,,,4,3,31,6,,,,,,,,,,,,,,,,,,,,,,,,,,,,,,,,,,,,,,,,968.4193467427976,None,,,971.4356571966782,None,1.6608465608465608,0.7180689349770546,971.4356571966782,None,,,,,,,969.4191379118711,None,969.6024509626441,969.6191182509065,,,,,,,87,001,2023_Apr_27_1417,SpeechDraft1Carolyn_lessNoise_PlusLocalization,2021.2.3,60.010044765962,
,,,,,,,,center,0.0,6,ch1Sound_localizationTask.wav,0.0,"(952, 878)","(-8,-202)",0,-338,,,,,,,,,,,,,4,4,32,3,,,,,,,,,,,,,,,,,,,,,,,,,,,,,,,,,,,,,,,,972.169171998743,None,,,975.1854985048994,None,1.5,0.5816308199428022,975.1854985048994,None,,,,,,,973.1691245287657,None,973.3524985089898,973.3691287375987,,,,,,,87,001,2023_Apr_27_1417,SpeechDraft1Carolyn_lessNoise_PlusLocalization,2021.2.3,60.010044765962,
,,,,,,,,nearLeft,-6.5,1,ch1Sound_localizationTask.wav,-6.5,"(857, 878)","(-103,-202)",-95,-338,,,,,,,,,,,,,4,5,33,2,,,,,,,,,,,,,,,,,,,,,,,,,,,,,,,,,,,,,,,,975.7692932719365,None,,,978.7854793467559,None,1.4497354497354498,0.6659347270615399,978.7854793467559,None,,,,,,,976.7691002725624,None,976.9525163248181,976.9692383548245,,,,,,,87,001,2023_Apr_27_1417,SpeechDraft1Carolyn_lessNoise_PlusLocalization,2021.2.3,60.010044765962,
,,,,,,,,farRight,19.1,4,ch1Sound_localizationTask.wav,19.1,"(1237, 878)","(277,-202)",285,-338,,,,,,,,,,,,,4,6,34,6,,,,,,,,,,,,,,,,,,,,,,,,,,,,,,,,,,,,,,,,979.45292185992,None,,,982.4689749986865,None,1.701058201058201,0.6489558918401599,982.4689749986865,None,,,,,,,980.4525314536877,None,980.6358792548999,980.6525335488841,,,,,,,87,001,2023_Apr_27_1417,SpeechDraft1Carolyn_lessNoise_PlusLocalization,2021.2.3,60.010044765962,
,,,,,,,,midLeft,-13.0,2,ch1Sound_localizationTask.wav,-13.0,"(762, 878)","(-198,-202)",-190,-338,,,,,,,,,,,,,5,0,35,1,,,,,,,,,,,,,,,,,,,,,,,,,,,,,,,,,,,,,,,,983.1198203139938,None,,,986.1358255906962,None,1.4407407407407407,0.7166230399161577,986.1358255906962,None,,,,,,,984.1191455558874,None,984.3025496955961,984.3191536748782,,,,,,,87,001,2023_Apr_27_1417,SpeechDraft1Carolyn_lessNoise_PlusLocalization,2021.2.3,60.010044765962,
,,,,,,,,farRight,19.1,4,ch1Sound_localizationTask.wav,19.1,"(1237, 878)","(277,-202)",285,-338,,,,,,,,,,,,,5,1,36,6,,,,,,,,,,,,,,,,,,,,,,,,,,,,,,,,,,,,,,,,986.8692120057531,None,,,989.885624665767,None,1.6417989417989418,0.5834363340400159,989.885624665767,None,,,,,,,987.8691400298849,None,988.0525316926651,988.0692238979973,,,,,,,87,001,2023_Apr_27_1417,SpeechDraft1Carolyn_lessNoise_PlusLocalization,2021.2.3,60.010044765962,
,,,,,,,,nearRight,6.5,0,ch1Sound_localizationTask.wav,6.5,"(1047, 878)","(87, -202)",95,-338,,,,,,,,,,,,,5,2,37,4,,,,,,,,,,,,,,,,,,,,,,,,,,,,,,,,,,,,,,,,990.4859645445831,None,,,993.5022021718323,None,1.5433862433862435,0.5653381757438183,993.5022021718323,None,,,,,,,991.4859247226268,None,991.6692842626944,991.6858142227866,,,,,,,87,001,2023_Apr_27_1417,SpeechDraft1Carolyn_lessNoise_PlusLocalization,2021.2.3,60.010044765962,
,,,,,,,,midLeft,-13.0,2,ch1Sound_localizationTask.wav,-13.0,"(762, 878)","(-198,-202)",-190,-338,,,,,,,,,,,,,5,3,38,1,,,,,,,,,,,,,,,,,,,,,,,,,,,,,,,,,,,,,,,,994.0698943417519,None,,,997.0857029659674,None,1.3698412698412699,0.6161135700531304,997.0857029659674,None,,,,,,,995.0693238009699,None,995.2525335350074,995.269224235788,,,,,,,87,001,2023_Apr_27_1417,SpeechDraft1Carolyn_lessNoise_PlusLocalization,2021.2.3,60.010044765962,
,,,,,,,,midRight,13.0,3,ch1Sound_localizationTask.wav,13.0,"(1142, 878)","(182, -202)",190,-338,,,,,,,,,,,,,5,4,39,5,,,,,,,,,,,,,,,,,,,,,,,,,,,,,,,,,,,,,,,,997.7037811428308,None,,,1000.7356060887687,None,1.6232804232804234,0.6845269179902971,1000.7356060887687,None,,,,,,,998.7191383335739,None,998.9025264065713,998.9191201678477,,,,,,,87,001,2023_Apr_27_1417,SpeechDraft1Carolyn_lessNoise_PlusLocalization,2021.2.3,60.010044765962,
,,,,,,,,nearRight,6.5,0,ch1Sound_localizationTask.wav,6.5,"(1047, 878)","(87, -202)",95,-338,,,,,,,,,,,,,5,5,40,4,,,,,,,,,,,,,,,,,,,,,,,,,,,,,,,,,,,,,,,,1001.4358703875914,None,,,1004.4523180415854,None,1.543915343915344,0.5482226181775331,1004.4523180415854,None,,,,,,,1002.4360203738324,None,1002.6191682065837,1002.635997180827,,,,,,,87,001,2023_Apr_27_1417,SpeechDraft1Carolyn_lessNoise_PlusLocalization,2021.2.3,60.010044765962,
,,,,,,,,nearRight,6.5,0,ch1Sound_localizationTask.wav,6.5,"(1047, 878)","(87, -202)",95,-338,,,,,,,,,,,,,5,6,41,4,,,,,,,,,,,,,,,,,,,,,,,,,,,,,,,,,,,,,,,,1005.0024649337865,None,,,1008.018922500778,None,1.573015873015873,0.6331089101731777,1008.018922500778,None,,,,,,,1006.0025900430046,None,1006.1858871770091,1006.2024925709702,,,,,,,87,001,2023_Apr_27_1417,SpeechDraft1Carolyn_lessNoise_PlusLocalization,2021.2.3,60.010044765962,
,,,,,,,,farLeft,-19.1,5,ch1Sound_localizationTask.wav,-19.1,"(667, 878)","(-293,-202)",-285,-338,,,,,,,,,,,,,6,0,42,0,,,,,,,,,,,,,,,,,,,,,,,,,,,,,,,,,,,,,,,,1008.6527571328916,None,,,1011.6689300038852,None,1.3380952380952382,0.5659208837896585,1011.6689300038852,None,,,,,,,1009.6525615896098,None,1009.8359012096189,1009.8525812909938,,,,,,,87,001,2023_Apr_27_1417,SpeechDraft1Carolyn_lessNoise_PlusLocalization,2021.2.3,60.010044765962,
,,,,,,,,nearRight,6.5,0,ch1Sound_localizationTask.wav,6.5,"(1047, 878)","(87, -202)",95,-338,,,,,,,,,,,,,6,1,43,4,,,,,,,,,,,,,,,,,,,,,,,,,,,,,,,,,,,,,,,,1012.2366161309183,None,,,1015.2522826818749,None,1.5708994708994708,0.849263533949852,1015.2522826818749,None,,,,,,,1013.23597193975,None,1013.4192329258658,1013.4359436025843,,,,,,,87,001,2023_Apr_27_1417,SpeechDraft1Carolyn_lessNoise_PlusLocalization,2021.2.3,60.010044765962,
,,,,,,,,nearRight,6.5,0,ch1Sound_localizationTask.wav,6.5,"(1047, 878)","(87, -202)",95,-338,,,,,,,,,,,,,6,2,44,4,,,,,,,,,,,,,,,,,,,,,,,,,,,,,,,,,,,,,,,,1016.1040840009227,None,,,1019.1357063418254,None,1.5455026455026455,0.4316675760783255,1019.1357063418254,None,,,,,,,1017.1192106786184,None,1017.3025975986384,1017.3191661699675,,,,,,,87,001,2023_Apr_27_1417,SpeechDraft1Carolyn_lessNoise_PlusLocalization,2021.2.3,60.010044765962,
,,,,,,,,nearLeft,-6.5,1,ch1Sound_localizationTask.wav,-6.5,"(857, 878)","(-103,-202)",-95,-338,,,,,,,,,,,,,6,3,45,2,,,,,,,,,,,,,,,,,,,,,,,,,,,,,,,,,,,,,,,,1019.5697476710193,None,,,1022.5854347138666,None,1.435978835978836,0.6492363070137799,1022.5854347138666,None,,,,,,,1020.56921661878,None,1020.7525926227681,1020.7692584199831,,,,,,,87,001,2023_Apr_27_1417,SpeechDraft1Carolyn_lessNoise_PlusLocalization,2021.2.3,60.010044765962,
,,,,,,,,center,0.0,6,ch1Sound_localizationTask.wav,0.0,"(952, 878)","(-8,-202)",0,-338,,,,,,,,,,,,,6,4,46,3,,,,,,,,,,,,,,,,,,,,,,,,,,,,,,,,,,,,,,,,1023.236460340675,None,,,1026.2523762439378,None,1.4957671957671956,0.6324332398362458,1026.2523762439378,None,,,,,,,1024.235850686673,None,1024.4193119588308,1024.4358879588544,,,,,,,87,001,2023_Apr_27_1417,SpeechDraft1Carolyn_lessNoise_PlusLocalization,2021.2.3,60.010044765962,
,,,,,,,,farLeft,-19.1,5,ch1Sound_localizationTask.wav,-19.1,"(667, 878)","(-293,-202)",-285,-338,,,,,,,,,,,,,6,5,47,0,,,,,,,,,,,,,,,,,,,,,,,,,,,,,,,,,,,,,,,,1026.8863277789205,None,,,1029.9023754466325,None,1.3365079365079366,0.5657904860563576,1029.9023754466325,None,,,,,,,1027.8858646438457,None,1028.0692761139944,1028.0859847157262,,,,,,,87,001,2023_Apr_27_1417,SpeechDraft1Carolyn_lessNoise_PlusLocalization,2021.2.3,60.010044765962,
,,,,,,,,nearRight,6.5,0,ch1Sound_localizationTask.wav,6.5,"(1047, 878)","(87, -202)",95,-338,,,,,,,,,,,,,6,6,48,4,,,,,,,,,,,,,,,,,,,,,,,,,,,,,,,,,,,,,,,,1030.4709242456593,None,,,1033.5022904057987,None,1.5645502645502645,0.5994932916946709,1033.5022904057987,None,,,,,,,1031.485889161937,None,1031.669120773673,1031.6859052767977,,,,,,,87,001,2023_Apr_27_1417,SpeechDraft1Carolyn_lessNoise_PlusLocalization,2021.2.3,60.010044765962,
,,,,,,,,nearLeft,-6.5,1,ch1Sound_localizationTask.wav,-6.5,"(857, 878)","(-103,-202)",-95,-338,,,,,,,,,,,,,7,0,49,2,,,,,,,,,,,,,,,,,,,,,,,,,,,,,,,,,,,,,,,,1034.1028895489872,None,,,1037.1188658666797,None,1.3814814814814815,0.4668099246919155,1037.1188658666797,None,,,,,,,1035.1025421279483,None,1035.285946524702,1035.3025913545862,,,,,,,87,001,2023_Apr_27_1417,SpeechDraft1Carolyn_lessNoise_PlusLocalization,2021.2.3,60.010044765962,
,,,,,,,,farRight,19.1,4,ch1Sound_localizationTask.wav,19.1,"(1237, 878)","(277,-202)",285,-338,,,,,,,,,,,,,7,1,50,6,,,,,,,,,,,,,,,,,,,,,,,,,,,,,,,,,,,,,,,,1037.60276689101,None,,,1040.6188614289276,None,1.6761904761904762,0.8162741530686617,1040.6188614289276,None,,,,,,,1038.602538659703,None,1038.7858567535877,1038.8025933466852,,,,,,,87,001,2023_Apr_27_1417,SpeechDraft1Carolyn_lessNoise_PlusLocalization,2021.2.3,60.010044765962,
,,,,,,,,midLeft,-13.0,2,ch1Sound_localizationTask.wav,-13.0,"(762, 878)","(-198,-202)",-190,-338,,,,,,,,,,,,,7,2,51,1,,,,,,,,,,,,,,,,,,,,,,,,,,,,,,,,,,,,,,,,1041.437253891956,None,,,1044.4690154725686,None,1.3756613756613758,0.6996982339769602,1044.4690154725686,None,,,,,,,1042.452851551585,None,1042.635916298721,1042.6525949779898,,,,,,,87,001,2023_Apr_27_1417,SpeechDraft1Carolyn_lessNoise_PlusLocalization,2021.2.3,60.010044765962,
,,,,,,,,farRight,19.1,4,ch1Sound_localizationTask.wav,19.1,"(1237, 878)","(277,-202)",285,-338,,,,,,,,,,,,,7,3,52,6,,,,,,,,,,,,,,,,,,,,,,,,,,,,,,,,,,,,,,,,1045.169574397616,None,,,1048.1856944118626,None,1.6994708994708994,0.6661133519373834,1048.1856944118626,None,,,,,,,1046.1693172627129,None,1046.3526575597934,1046.369238708634,,,,,,,87,001,2023_Apr_27_1417,SpeechDraft1Carolyn_lessNoise_PlusLocalization,2021.2.3,60.010044765962,
,,,,,,,,center,0.0,6,ch1Sound_localizationTask.wav,0.0,"(952, 878)","(-8,-202)",0,-338,,,,,,,,,,,,,7,4,53,3,,,,,,,,,,,,,,,,,,,,,,,,,,,,,,,,,,,,,,,,1048.8534075678326,None,,,1051.869051925838,None,1.511111111111111,0.6331626488827169,1051.869051925838,None,,,,,,,1049.8526203078218,None,1050.036080986727,1050.0527177397162,,,,,,,87,001,2023_Apr_27_1417,SpeechDraft1Carolyn_lessNoise_PlusLocalization,2021.2.3,60.010044765962,
,,,,,,,,midRight,13.0,3,ch1Sound_localizationTask.wav,13.0,"(1142, 878)","(182, -202)",190,-338,,,,,,,,,,,,,7,5,54,5,,,,,,,,,,,,,,,,,,,,,,,,,,,,,,,,,,,,,,,,1052.5039382199757,None,,,1055.5358037198894,None,1.6915343915343914,0.8505039070732892,1055.5358037198894,None,,,,,,,1053.5192782916129,None,1053.7026764717884,1053.7192442347296,,,,,,,87,001,2023_Apr_27_1417,SpeechDraft1Carolyn_lessNoise_PlusLocalization,2021.2.3,60.010044765962,
,,,,,,,,farRight,19.1,4,ch1Sound_localizationTask.wav,19.1,"(1237, 878)","(277,-202)",285,-338,,,,,,,,,,,,,7,6,55,6,,,,,,,,,,,,,,,,,,,,,,,,,,,,,,,,,,,,,,,,1056.4028224898502,None,,,1059.4189245258458,None,1.6301587301587301,0.8164119720458984,1059.4189245258458,None,,,,,,,1057.4025355656631,None,1057.5859355749562,1057.6026145806536,,,,,,,87,001,2023_Apr_27_1417,SpeechDraft1Carolyn_lessNoise_PlusLocalization,2021.2.3,60.010044765962,
,,,,,,,,,,,,,,,,,,,,,,,,,,,,,,,,,,,,,,,,,,,,,,,,,,,,,,,,,,,,,,,,,,,,,,,,,,,,,,,,,,,,,,,,,,,,1060.2525913668796,None,c,470.94269191799685,1061.2359137758613,None,87,001,2023_Apr_27_1417,SpeechDraft1Carolyn_lessNoise_PlusLocalization,2021.2.3,60.010044765962,
