{"meta_data":{"additional_headers":{},"game_name":"Recollect","version":"2.53.01","user_name":"88","organization":"braingamecenter","study":"mpl2_2022_11","session_number":0,"device_id":"74342D95-EE82-45E3-8ADF-48FB3203C5DD"},"data":[{"stage":"Practice","trial":0,"sequence":"6F","letter_input":"F","number_input":"6","is_correct":true,"presentation_start_time":1682636788214.08,"presentation_end_time":1682636791215.43,"response_time":1682636796680.98},{"stage":"Practice","trial":1,"sequence":"G4","letter_input":"G","number_input":"4","is_correct":true,"presentation_start_time":1682636798210.5,"presentation_end_time":1682636801211.75,"response_time":1682636805058.29},{"stage":"Practice","trial":2,"sequence":"3W5","letter_input":"W","number_input":"35","is_correct":true,"presentation_start_time":1682636806590.77,"presentation_end_time":1682636811091.52,"response_time":1682636817403.73},{"stage":"Practice","trial":3,"sequence":"T7L","letter_input":"LT","number_input":"7","is_correct":true,"presentation_start_time":1682636818936.42,"presentation_end_time":1682636823437.18,"response_time":1682636829149.42},{"stage":"Practice","trial":4,"sequence":"9J1","letter_input":"J","number_input":"19","is_correct":true,"presentation_start_time":1682636830682.12,"presentation_end_time":1682636835182.79,"response_time":1682636839112.57},{"stage":"Calibration","trial":0,"sequence":"V7","letter_input":"V","number_input":"7","is_correct":true,"presentation_start_time":1682636848875.61,"presentation_end_time":1682636851876.94,"response_time":1682636856489.52},{"stage":"Calibration","trial":1,"sequence":"3W","letter_input":"W","number_input":"3","is_correct":true,"presentation_start_time":1682636858022.27,"presentation_end_time":1682636861023.64,"response_time":1682636865769.61},{"stage":"Calibration","trial":2,"sequence":"Z6L","letter_input":"LZ","number_input":"6","is_correct":true,"presentation_start_time":1682636867302.3,"presentation_end_time":1682636871803.14,"response_time":1682636877432.12},{"stage":"Calibration","trial":3,"sequence":"9E4","letter_input":"E","number_input":"49","is_correct":true,"presentation_start_time":1682636878964.75,"presentation_end_time":1682636883465.41,"response_time":1682636889577.74},{"stage":"Calibration","trial":4,"sequence":"V7G2","letter_input":"GV","number_input":"27","is_correct":true,"presentation_start_time":1682636891110.38,"presentation_end_time":1682636897110.67,"response_time":1682636907887.8},{"stage":"Calibration","trial":5,"sequence":"8T4H","letter_input":"HT","number_input":"48","is_correct":true,"presentation_start_time":1682636909420.47,"presentation_end_time":1682636915420.58,"response_time":1682636923132.27},{"stage":"Calibration","trial":6,"sequence":"M9D7Y","letter_input":"DMY","number_input":"79","is_correct":true,"presentation_start_time":1682636924664.98,"presentation_end_time":1682636932164.75,"response_time":1682636949822.76},{"stage":"Calibration","trial":7,"sequence":"1E5C3","letter_input":"EW","number_input":"137","is_correct":false,"presentation_start_time":1682636951355.37,"presentation_end_time":1682636958854.91,"response_time":1682636973597.5},{"stage":"Calibration","trial":8,"sequence":"N6H4A8","letter_input":"H","number_input":"468","is_correct":false,"presentation_start_time":1682636975130.1,"presentation_end_time":1682636984129.29,"response_time":1682637007251.99},{"stage":"Calibration","trial":9,"sequence":"7C2Z9Q","letter_input":"Q","number_input":"247","is_correct":false,"presentation_start_time":1682637008784.6,"presentation_end_time":1682637017783.83,"response_time":1682637033392.5}]}