{"meta_data":{"additional_headers":{},"game_name":"Recollect","version":"2.53.01","user_name":"88","organization":"braingamecenter","study":"mpl2_2022_11","session_number":0,"device_id":"74342D95-EE82-45E3-8ADF-48FB3203C5DD"},"data":[{"trial":0,"action":1,"button_pressed":6,"time_out":false,"dwell_time":81.514892578125,"response_time":1682636485324.95},{"trial":0,"action":1,"button_pressed":10,"time_out":false,"dwell_time":63.927978515625,"response_time":1682636485707.35},{"trial":0,"action":9,"button_pressed":-1,"time_out":false,"dwell_time":126.25390625,"response_time":1682636486802.37},{"trial":1,"action":1,"button_pressed":0,"time_out":false,"dwell_time":81.18603515625,"response_time":1682636496437.08},{"trial":1,"action":1,"button_pressed":10,"time_out":false,"dwell_time":80.85498046875,"response_time":1682636496820.83},{"trial":1,"action":1,"button_pressed":11,"time_out":false,"dwell_time":80.654052734375,"response_time":1682636497253.26},{"trial":1,"action":9,"button_pressed":-1,"time_out":false,"dwell_time":81.45703125,"response_time":1682636497720.24},{"trial":2,"action":1,"button_pressed":11,"time_out":false,"dwell_time":64.194091796875,"response_time":1682636509899.48},{"trial":2,"action":1,"button_pressed":0,"time_out":false,"dwell_time":63.389892578125,"response_time":1682636510365.1},{"trial":2,"action":1,"button_pressed":4,"time_out":false,"dwell_time":98.259033203125,"response_time":1682636510615.83},{"trial":2,"action":1,"button_pressed":1,"time_out":false,"dwell_time":81.057861328125,"response_time":1682636511198.34},{"trial":2,"action":9,"button_pressed":-1,"time_out":false,"dwell_time":98.697998046875,"response_time":1682636512448.95},{"trial":3,"action":1,"button_pressed":2,"time_out":false,"dwell_time":63.59716796875,"response_time":1682636527642.38},{"trial":3,"action":1,"button_pressed":6,"time_out":false,"dwell_time":64.2041015625,"response_time":1682636528109.62},{"trial":3,"action":1,"button_pressed":7,"time_out":false,"dwell_time":47.5859375,"response_time":1682636528443.05},{"trial":3,"action":1,"button_pressed":0,"time_out":false,"dwell_time":63.93798828125,"response_time":1682636528909.01},{"trial":3,"action":1,"button_pressed":8,"time_out":false,"dwell_time":47.795166015625,"response_time":1682636529225.49},{"trial":3,"action":9,"button_pressed":-1,"time_out":false,"dwell_time":48.52587890625,"response_time":1682636529659.85},{"trial":4,"action":1,"button_pressed":10,"time_out":false,"dwell_time":80.88916015625,"response_time":1682636546836.12},{"trial":4,"action":1,"button_pressed":2,"time_out":false,"dwell_time":63.471923828125,"response_time":1682636547185.32},{"trial":4,"action":1,"button_pressed":9,"time_out":false,"dwell_time":64.68212890625,"response_time":1682636547535.67},{"trial":4,"action":1,"button_pressed":5,"time_out":false,"dwell_time":47.81787109375,"response_time":1682636548302.56},{"trial":4,"action":1,"button_pressed":11,"time_out":false,"dwell_time":64.10009765625,"response_time":1682636548852.04},{"trial":4,"action":1,"button_pressed":0,"time_out":false,"dwell_time":81.211181640625,"response_time":1682636549234.52},{"trial":4,"action":9,"button_pressed":-1,"time_out":false,"dwell_time":82.008056640625,"response_time":1682636550868.24},{"trial":5,"action":1,"button_pressed":11,"time_out":false,"dwell_time":48.055908203125,"response_time":1682636577674.83},{"trial":5,"action":1,"button_pressed":4,"time_out":false,"dwell_time":64.489990234375,"response_time":1682636578774.05},{"trial":5,"action":1,"button_pressed":8,"time_out":false,"dwell_time":81.5341796875,"response_time":1682636579224.45},{"trial":5,"action":1,"button_pressed":10,"time_out":false,"dwell_time":48.4580078125,"response_time":1682636581757.19},{"trial":5,"action":1,"button_pressed":6,"time_out":false,"dwell_time":80.85107421875,"response_time":1682636582689.33},{"trial":5,"action":1,"button_pressed":3,"time_out":false,"dwell_time":80.85009765625,"response_time":1682636583006.43},{"trial":5,"action":1,"button_pressed":5,"time_out":false,"dwell_time":64.18310546875,"response_time":1682636583488.73},{"trial":5,"action":9,"button_pressed":-1,"time_out":false,"dwell_time":114.4638671875,"response_time":1682636584073},{"trial":6,"action":1,"button_pressed":4,"time_out":false,"dwell_time":81.5888671875,"response_time":1682636603882.27},{"trial":6,"action":1,"button_pressed":2,"time_out":false,"dwell_time":64.007080078125,"response_time":1682636604214.61},{"trial":6,"action":1,"button_pressed":1,"time_out":false,"dwell_time":80.10205078125,"response_time":1682636606647.25},{"trial":6,"action":1,"button_pressed":8,"time_out":false,"dwell_time":81.483154296875,"response_time":1682636607297.62},{"trial":6,"action":1,"button_pressed":6,"time_out":false,"dwell_time":30.93896484375,"response_time":1682636608563.5},{"trial":6,"action":1,"button_pressed":0,"time_out":false,"dwell_time":48.468017578125,"response_time":1682636609080.56},{"trial":6,"action":1,"button_pressed":9,"time_out":false,"dwell_time":81.04296875,"response_time":1682636610029.57},{"trial":6,"action":1,"button_pressed":5,"time_out":false,"dwell_time":31.361083984375,"response_time":1682636611012.84},{"trial":6,"action":9,"button_pressed":-1,"time_out":false,"dwell_time":81.291015625,"response_time":1682636613029.39},{"trial":7,"action":1,"button_pressed":10,"time_out":false,"dwell_time":81.2041015625,"response_time":1682636627824.2},{"trial":7,"action":1,"button_pressed":5,"time_out":false,"dwell_time":97.60400390625,"response_time":1682636628189.61},{"trial":7,"action":1,"button_pressed":3,"time_out":false,"dwell_time":63.339111328125,"response_time":1682636628972.56},{"trial":7,"action":1,"button_pressed":6,"time_out":false,"dwell_time":48.4990234375,"response_time":1682636629240.29},{"trial":7,"action":1,"button_pressed":2,"time_out":false,"dwell_time":80.697021484375,"response_time":1682636629722.4},{"trial":7,"action":9,"button_pressed":-1,"time_out":false,"dwell_time":114.159912109375,"response_time":1682636631338.97},{"trial":8,"action":1,"button_pressed":0,"time_out":false,"dwell_time":81.034912109375,"response_time":1682636648883.03},{"trial":8,"action":1,"button_pressed":4,"time_out":false,"dwell_time":66.620849609375,"response_time":1682636649182.72},{"trial":8,"action":1,"button_pressed":11,"time_out":false,"dwell_time":47.056884765625,"response_time":1682636649748.89},{"trial":8,"action":1,"button_pressed":5,"time_out":false,"dwell_time":131.38623046875,"response_time":1682636654230.88},{"trial":8,"action":1,"button_pressed":7,"time_out":false,"dwell_time":63.51904296875,"response_time":1682636654813.59},{"trial":8,"action":9,"button_pressed":-1,"time_out":false,"dwell_time":82.06787109375,"response_time":1682636656447.38},{"trial":9,"action":1,"button_pressed":8,"time_out":false,"dwell_time":64.735107421875,"response_time":1682636673607.19},{"trial":9,"action":1,"button_pressed":0,"time_out":false,"dwell_time":47.01416015625,"response_time":1682636674023.49},{"trial":9,"action":1,"button_pressed":1,"time_out":false,"dwell_time":80.735107421875,"response_time":1682636674456.41},{"trial":9,"action":1,"button_pressed":9,"time_out":false,"dwell_time":97.14404296875,"response_time":1682636674956.79},{"trial":9,"action":1,"button_pressed":3,"time_out":false,"dwell_time":63.77001953125,"response_time":1682636675423.16},{"trial":9,"action":1,"button_pressed":5,"time_out":false,"dwell_time":63.7548828125,"response_time":1682636675806.44},{"trial":9,"action":9,"button_pressed":-1,"time_out":false,"dwell_time":64.84912109375,"response_time":1682636676339.55},{"trial":10,"action":1,"button_pressed":9,"time_out":false,"dwell_time":63.885009765625,"response_time":1682636696065.2},{"trial":10,"action":1,"button_pressed":7,"time_out":false,"dwell_time":81.156005859375,"response_time":1682636697048.84},{"trial":10,"action":1,"button_pressed":4,"time_out":false,"dwell_time":80.11083984375,"response_time":1682636698230.96},{"trial":10,"action":1,"button_pressed":1,"time_out":false,"dwell_time":64.046875,"response_time":1682636698748.16},{"trial":10,"action":1,"button_pressed":11,"time_out":false,"dwell_time":63.783203125,"response_time":1682636699230.66},{"trial":10,"action":1,"button_pressed":6,"time_out":false,"dwell_time":81.26806640625,"response_time":1682636699631.54},{"trial":10,"action":1,"button_pressed":8,"time_out":false,"dwell_time":47.81005859375,"response_time":1682636700047.5},{"trial":10,"action":9,"button_pressed":-1,"time_out":false,"dwell_time":16.802001953125,"response_time":1682636701430.02},{"trial":11,"action":1,"button_pressed":11,"time_out":false,"dwell_time":81.007080078125,"response_time":1682636723473},{"trial":11,"action":1,"button_pressed":3,"time_out":false,"dwell_time":47.009033203125,"response_time":1682636723788.79},{"trial":11,"action":1,"button_pressed":7,"time_out":false,"dwell_time":80.5048828125,"response_time":1682636724155.67},{"trial":11,"action":1,"button_pressed":9,"time_out":false,"dwell_time":47.70703125,"response_time":1682636724655.91},{"trial":11,"action":1,"button_pressed":4,"time_out":false,"dwell_time":98.377197265625,"response_time":1682636725355.42},{"trial":11,"action":1,"button_pressed":2,"time_out":false,"dwell_time":98.148193359375,"response_time":1682636726838.16},{"trial":11,"action":1,"button_pressed":10,"time_out":false,"dwell_time":81.534912109375,"response_time":1682636727371.46},{"trial":11,"action":1,"button_pressed":1,"time_out":false,"dwell_time":98.14599609375,"response_time":1682636727937.69},{"trial":11,"action":9,"button_pressed":-1,"time_out":false,"dwell_time":81.350830078125,"response_time":1682636728288.09},{"trial":12,"action":1,"button_pressed":3,"time_out":false,"dwell_time":64.51806640625,"response_time":1682636750695.61},{"trial":12,"action":1,"button_pressed":1,"time_out":false,"dwell_time":47.995849609375,"response_time":1682636751662.91},{"trial":12,"action":1,"button_pressed":8,"time_out":false,"dwell_time":63.8779296875,"response_time":1682636752128.91},{"trial":12,"action":1,"button_pressed":5,"time_out":false,"dwell_time":81.666015625,"response_time":1682636752479.08},{"trial":12,"action":1,"button_pressed":7,"time_out":false,"dwell_time":96.656982421875,"response_time":1682636753094.69},{"trial":12,"action":1,"button_pressed":9,"time_out":false,"dwell_time":80.532958984375,"response_time":1682636754993.98},{"trial":12,"action":1,"button_pressed":0,"time_out":false,"dwell_time":80.02197265625,"response_time":1682636755393.75},{"trial":12,"action":1,"button_pressed":10,"time_out":false,"dwell_time":64.462158203125,"response_time":1682636755793.93},{"trial":12,"action":9,"button_pressed":-1,"time_out":false,"dwell_time":65.47607421875,"response_time":1682636756694.45}]}