{"meta_data":{"additional_headers":{},"game_name":"Recollect","version":"2.53.01","user_name":"89","organization":"braingamecenter","study":"mpl2_2022_11","session_number":0,"device_id":"74342D95-EE82-45E3-8ADF-48FB3203C5DD"},"data":[{"stage":"Practice","trial":0,"sequence":"6F","letter_input":"F","number_input":"6","is_correct":true,"presentation_start_time":1682709769252.08,"presentation_end_time":1682709772253.35,"response_time":1682709778835.38},{"stage":"Practice","trial":1,"sequence":"G4","letter_input":"G","number_input":"4","is_correct":true,"presentation_start_time":1682709780365.07,"presentation_end_time":1682709783366.58,"response_time":1682709787246.27},{"stage":"Practice","trial":2,"sequence":"3W5","letter_input":"G","number_input":"35","is_correct":false,"presentation_start_time":1682709788778.98,"presentation_end_time":1682709793279.94,"response_time":1682709797859.48},{"stage":"Practice","trial":3,"sequence":"T7L","letter_input":"LT","number_input":"7","is_correct":true,"presentation_start_time":1682709800891.62,"presentation_end_time":1682709805392.53,"response_time":1682709809905.52},{"stage":"Practice","trial":4,"sequence":"9J1","letter_input":"J","number_input":"19","is_correct":true,"presentation_start_time":1682709811438.14,"presentation_end_time":1682709815939.05,"response_time":1682709821235.08},{"stage":"Calibration","trial":0,"sequence":"P5","letter_input":"P","number_input":"5","is_correct":true,"presentation_start_time":1682709830648.58,"presentation_end_time":1682709833649.88,"response_time":1682709837829.66},{"stage":"Calibration","trial":1,"sequence":"1L","letter_input":"L","number_input":"1","is_correct":true,"presentation_start_time":1682709839362.27,"presentation_end_time":1682709842363.78,"response_time":1682709846210.15},{"stage":"Calibration","trial":2,"sequence":"S8J","letter_input":"JS","number_input":"8","is_correct":true,"presentation_start_time":1682709847742.93,"presentation_end_time":1682709852244.07,"response_time":1682709857473.16},{"stage":"Calibration","trial":3,"sequence":"6K1","letter_input":"K","number_input":"16","is_correct":true,"presentation_start_time":1682709859005.81,"presentation_end_time":1682709863506.7,"response_time":1682709867469.91},{"stage":"Calibration","trial":4,"sequence":"R7C4","letter_input":"CR","number_input":"47","is_correct":true,"presentation_start_time":1682709869002.6,"presentation_end_time":1682709875003.05,"response_time":1682709879799.14},{"stage":"Calibration","trial":5,"sequence":"6Y2P","letter_input":"PY","number_input":"26","is_correct":true,"presentation_start_time":1682709881331.92,"presentation_end_time":1682709887332.28,"response_time":1682709892828.15},{"stage":"Calibration","trial":6,"sequence":"E5S3L","letter_input":"ELS","number_input":"35","is_correct":true,"presentation_start_time":1682709894360.92,"presentation_end_time":1682709901861,"response_time":1682709909705.96},{"stage":"Calibration","trial":7,"sequence":"7Y4M1","letter_input":"MSY","number_input":"147","is_correct":false,"presentation_start_time":1682709911238.69,"presentation_end_time":1682709918738.64,"response_time":1682709926033.84},{"stage":"Calibration","trial":8,"sequence":"S8H5B2","letter_input":"BLS","number_input":"258","is_correct":false,"presentation_start_time":1682709927566.54,"presentation_end_time":1682709936566.04,"response_time":1682709944611.13},{"stage":"Calibration","trial":9,"sequence":"1Y9G6E","letter_input":"GRS","number_input":"156","is_correct":false,"presentation_start_time":1682709946143.84,"presentation_end_time":1682709955143.35,"response_time":1682709967970.18}]}