{"meta_data":{"additional_headers":{},"game_name":"Recollect","version":"2.53.01","user_name":"8","organization":"braingamecenter","study":"mpl2_2022_11","session_number":0,"device_id":"74342D95-EE82-45E3-8ADF-48FB3203C5DD"},"data":[{"stage":"Practice","trial":0,"sequence":"6F","letter_input":"F","number_input":"6","is_correct":true,"presentation_start_time":1675814898747.15,"presentation_end_time":1675814901747.47,"response_time":1675814907380.99},{"stage":"Practice","trial":1,"sequence":"G4","letter_input":"G","number_input":"4","is_correct":true,"presentation_start_time":1675814908910.51,"presentation_end_time":1675814911910.72,"response_time":1675814915791.65},{"stage":"Practice","trial":2,"sequence":"3W5","letter_input":"W","number_input":"35","is_correct":true,"presentation_start_time":1675814917324.39,"presentation_end_time":1675814921824.18,"response_time":1675814927254.58},{"stage":"Practice","trial":3,"sequence":"T7L","letter_input":"LT","number_input":"7","is_correct":true,"presentation_start_time":1675814928787.29,"presentation_end_time":1675814933286.98,"response_time":1675814937567.93},{"stage":"Practice","trial":4,"sequence":"9J1","letter_input":"J","number_input":"19","is_correct":true,"presentation_start_time":1675814939100.71,"presentation_end_time":1675814943600.36,"response_time":1675814947881.21},{"stage":"Calibration","trial":0,"sequence":"6K","letter_input":"K","number_input":"6","is_correct":true,"presentation_start_time":1675814955311.95,"presentation_end_time":1675814958312.35,"response_time":1675814961626.73},{"stage":"Calibration","trial":1,"sequence":"M3","letter_input":"M","number_input":"3","is_correct":true,"presentation_start_time":1675814963159.4,"presentation_end_time":1675814966159.62,"response_time":1675814969474.05},{"stage":"Calibration","trial":2,"sequence":"6S4","letter_input":"S","number_input":"46","is_correct":true,"presentation_start_time":1675814971006.82,"presentation_end_time":1675814975506.54,"response_time":1675814979087.66},{"stage":"Calibration","trial":3,"sequence":"P9H","letter_input":"HP","number_input":"9","is_correct":true,"presentation_start_time":1675814980620.31,"presentation_end_time":1675814985120.1,"response_time":1675814989117.64},{"stage":"Calibration","trial":4,"sequence":"5N2D","letter_input":"DN","number_input":"25","is_correct":true,"presentation_start_time":1675814990650.43,"presentation_end_time":1675814996649.81,"response_time":1675815000580.61},{"stage":"Calibration","trial":5,"sequence":"M7B3","letter_input":"BM","number_input":"37","is_correct":true,"presentation_start_time":1675815002113.34,"presentation_end_time":1675815008112.58,"response_time":1675815012626.7},{"stage":"Calibration","trial":6,"sequence":"2T9K4","letter_input":"KT","number_input":"249","is_correct":true,"presentation_start_time":1675815014159.52,"presentation_end_time":1675815021658.12,"response_time":1675815026921.94},{"stage":"Calibration","trial":7,"sequence":"Z8V3J","letter_input":"JVZ","number_input":"38","is_correct":true,"presentation_start_time":1675815028454.72,"presentation_end_time":1675815035953.55,"response_time":1675815041050.67},{"stage":"Calibration","trial":8,"sequence":"4D9Y6Q","letter_input":"DQY","number_input":"469","is_correct":true,"presentation_start_time":1675815042583.43,"presentation_end_time":1675815051581.76,"response_time":1675815065226.15},{"stage":"Calibration","trial":9,"sequence":"C3J8G5","letter_input":"CGJ","number_input":"358","is_correct":true,"presentation_start_time":1675815066758.78,"presentation_end_time":1675815075757.17,"response_time":1675815081654.12},{"stage":"Calibration","trial":10,"sequence":"4Z9M7D1","letter_input":"DMZ","number_input":"1479","is_correct":true,"presentation_start_time":1675815083186.82,"presentation_end_time":1675815093684.59,"response_time":1675815099714.89},{"stage":"Calibration","trial":11,"sequence":"H6B2T8F","letter_input":"BHMT","number_input":"268","is_correct":false,"presentation_start_time":1675815101247.57,"presentation_end_time":1675815111745.43,"response_time":1675815119225.07},{"stage":"Calibration","trial":12,"sequence":"5Y3C9Q7J","letter_input":"CJYZ","number_input":"3579","is_correct":false,"presentation_start_time":1675815120757.85,"presentation_end_time":1675815132755.16,"response_time":1675815143233.98},{"stage":"Calibration","trial":13,"sequence":"V6R2Z8G4","letter_input":"RGVZ","number_input":"2468","is_correct":false,"presentation_start_time":1675815144766.67,"presentation_end_time":1675815156763.91,"response_time":1675815169542.06}]}