{"meta_data":{"additional_headers":{},"game_name":"Recollect","version":"2.53.01","user_name":"90","organization":"braingamecenter","study":"mpl2_2022_11","session_number":0,"device_id":"74342D95-EE82-45E3-8ADF-48FB3203C5DD"},"data":[{"trial":0,"action":1,"button_pressed":7,"time_out":false,"dwell_time":131.9140625,"response_time":1682726324281.54},{"trial":0,"action":1,"button_pressed":4,"time_out":false,"dwell_time":32.039794921875,"response_time":1682726324881.67},{"trial":0,"action":9,"button_pressed":-1,"time_out":false,"dwell_time":42.280029296875,"response_time":1682726325692.53},{"trial":1,"action":1,"button_pressed":5,"time_out":false,"dwell_time":97.837890625,"response_time":1682726335327.29},{"trial":1,"action":1,"button_pressed":8,"time_out":false,"dwell_time":32.182861328125,"response_time":1682726335678.42},{"trial":1,"action":1,"button_pressed":0,"time_out":false,"dwell_time":98.2998046875,"response_time":1682726336394.2},{"trial":1,"action":9,"button_pressed":-1,"time_out":false,"dwell_time":63.72802734375,"response_time":1682726337160.15},{"trial":2,"action":1,"button_pressed":4,"time_out":false,"dwell_time":64.634033203125,"response_time":1682726349440.01},{"trial":2,"action":1,"button_pressed":2,"time_out":false,"dwell_time":63.45703125,"response_time":1682726349839.09},{"trial":2,"action":1,"button_pressed":7,"time_out":false,"dwell_time":148.115966796875,"response_time":1682726350556.18},{"trial":2,"action":1,"button_pressed":3,"time_out":false,"dwell_time":64.083984375,"response_time":1682726351006.04},{"trial":2,"action":9,"button_pressed":-1,"time_out":false,"dwell_time":16.718994140625,"response_time":1682726351788.62},{"trial":3,"action":1,"button_pressed":2,"time_out":false,"dwell_time":114.3681640625,"response_time":1682726366683.75},{"trial":3,"action":1,"button_pressed":7,"time_out":false,"dwell_time":147.386962890625,"response_time":1682726367616.58},{"trial":3,"action":1,"button_pressed":6,"time_out":false,"dwell_time":113.35009765625,"response_time":1682726368582.99},{"trial":3,"action":1,"button_pressed":0,"time_out":false,"dwell_time":81.2109375,"response_time":1682726369466.45},{"trial":3,"action":1,"button_pressed":8,"time_out":false,"dwell_time":47.781982421875,"response_time":1682726369933.65},{"trial":3,"action":9,"button_pressed":-1,"time_out":false,"dwell_time":97.35205078125,"response_time":1682726370849.38},{"trial":4,"action":1,"button_pressed":10,"time_out":false,"dwell_time":131.424072265625,"response_time":1682726385628.15},{"trial":4,"action":1,"button_pressed":5,"time_out":false,"dwell_time":113.578125,"response_time":1682726386110.82},{"trial":4,"action":1,"button_pressed":6,"time_out":false,"dwell_time":147.14501953125,"response_time":1682726386760.94},{"trial":4,"action":1,"button_pressed":3,"time_out":false,"dwell_time":80.841064453125,"response_time":1682726387226.83},{"trial":4,"action":1,"button_pressed":2,"time_out":false,"dwell_time":98.18603515625,"response_time":1682726387760.76},{"trial":4,"action":9,"button_pressed":-1,"time_out":false,"dwell_time":114.73291015625,"response_time":1682726388543.7},{"trial":5,"action":1,"button_pressed":4,"time_out":false,"dwell_time":115.171142578125,"response_time":1682726398490.69},{"trial":5,"action":1,"button_pressed":2,"time_out":false,"dwell_time":80.7919921875,"response_time":1682726398823.9},{"trial":5,"action":1,"button_pressed":1,"time_out":false,"dwell_time":97.43701171875,"response_time":1682726399306.3},{"trial":5,"action":9,"button_pressed":-1,"time_out":false,"dwell_time":49.18896484375,"response_time":1682726400190.87},{"trial":6,"action":1,"button_pressed":7,"time_out":false,"dwell_time":129.767822265625,"response_time":1682726409986.21},{"trial":6,"action":1,"button_pressed":3,"time_out":false,"dwell_time":63.22412109375,"response_time":1682726410502.46},{"trial":6,"action":1,"button_pressed":2,"time_out":false,"dwell_time":79.906982421875,"response_time":1682726410952.38},{"trial":6,"action":9,"button_pressed":-1,"time_out":false,"dwell_time":65.06396484375,"response_time":1682726412170.21},{"trial":7,"action":1,"button_pressed":0,"time_out":false,"dwell_time":133.574951171875,"response_time":1682726424249.01},{"trial":7,"action":1,"button_pressed":10,"time_out":false,"dwell_time":63.35107421875,"response_time":1682726424531.43},{"trial":7,"action":1,"button_pressed":2,"time_out":false,"dwell_time":63.5361328125,"response_time":1682726425114.59},{"trial":7,"action":1,"button_pressed":6,"time_out":false,"dwell_time":81.41015625,"response_time":1682726425615.14},{"trial":7,"action":9,"button_pressed":-1,"time_out":false,"dwell_time":16.666015625,"response_time":1682726426114.38},{"trial":8,"action":1,"button_pressed":0,"time_out":false,"dwell_time":148.548095703125,"response_time":1682726441010.23},{"trial":8,"action":1,"button_pressed":7,"time_out":false,"dwell_time":114.035888671875,"response_time":1682726441325.77},{"trial":8,"action":1,"button_pressed":10,"time_out":false,"dwell_time":63.927978515625,"response_time":1682726441626.32},{"trial":8,"action":1,"button_pressed":4,"time_out":false,"dwell_time":49.2421875,"response_time":1682726442176.04},{"trial":8,"action":1,"button_pressed":1,"time_out":false,"dwell_time":96.89404296875,"response_time":1682726442758.79},{"trial":8,"action":9,"button_pressed":-1,"time_out":false,"dwell_time":49.072021484375,"response_time":1682726443959.92},{"trial":9,"action":1,"button_pressed":2,"time_out":false,"dwell_time":114.333984375,"response_time":1682726461086.92},{"trial":9,"action":1,"button_pressed":10,"time_out":false,"dwell_time":98.06298828125,"response_time":1682726461603.33},{"trial":9,"action":1,"button_pressed":7,"time_out":false,"dwell_time":163.344970703125,"response_time":1682726462852.23},{"trial":9,"action":1,"button_pressed":6,"time_out":false,"dwell_time":82.85302734375,"response_time":1682726463968.07},{"trial":9,"action":1,"button_pressed":9,"time_out":false,"dwell_time":48.68798828125,"response_time":1682726464869.43},{"trial":9,"action":1,"button_pressed":3,"time_out":false,"dwell_time":47.2529296875,"response_time":1682726465285.23},{"trial":9,"action":9,"button_pressed":-1,"time_out":false,"dwell_time":13.27783203125,"response_time":1682726466717.83},{"trial":10,"action":1,"button_pressed":6,"time_out":false,"dwell_time":164.201171875,"response_time":1682726485295.07},{"trial":10,"action":1,"button_pressed":5,"time_out":false,"dwell_time":130.89013671875,"response_time":1682726486011.35},{"trial":10,"action":1,"button_pressed":0,"time_out":false,"dwell_time":13.986083984375,"response_time":1682726491392.61},{"trial":10,"action":1,"button_pressed":11,"time_out":false,"dwell_time":114.153076171875,"response_time":1682726492776.63},{"trial":10,"action":1,"button_pressed":8,"time_out":false,"dwell_time":64.160888671875,"response_time":1682726492975.78},{"trial":10,"action":1,"button_pressed":4,"time_out":false,"dwell_time":48.81396484375,"response_time":1682726493360.1},{"trial":10,"action":9,"button_pressed":-1,"time_out":false,"dwell_time":16.857177734375,"response_time":1682726494692.25},{"trial":11,"action":1,"button_pressed":3,"time_out":false,"dwell_time":180.9541015625,"response_time":1682726514902.69},{"trial":11,"action":1,"button_pressed":0,"time_out":false,"dwell_time":130.735107421875,"response_time":1682726515502.34},{"trial":11,"action":1,"button_pressed":10,"time_out":false,"dwell_time":97.364013671875,"response_time":1682726516068.13},{"trial":11,"action":1,"button_pressed":5,"time_out":false,"dwell_time":114.85693359375,"response_time":1682726516402.12},{"trial":11,"action":1,"button_pressed":4,"time_out":false,"dwell_time":64.744140625,"response_time":1682726517668.31},{"trial":11,"action":1,"button_pressed":1,"time_out":false,"dwell_time":131.587890625,"response_time":1682726518218.19},{"trial":11,"action":1,"button_pressed":2,"time_out":false,"dwell_time":113.549072265625,"response_time":1682726518617.39},{"trial":11,"action":9,"button_pressed":-1,"time_out":false,"dwell_time":98.580078125,"response_time":1682726519801.33},{"trial":12,"action":1,"button_pressed":8,"time_out":false,"dwell_time":81.35791015625,"response_time":1682726543343.55},{"trial":12,"action":1,"button_pressed":10,"time_out":false,"dwell_time":64.717041015625,"response_time":1682726543876.59},{"trial":12,"action":1,"button_pressed":9,"time_out":false,"dwell_time":47.72802734375,"response_time":1682726544526.79},{"trial":12,"action":1,"button_pressed":2,"time_out":false,"dwell_time":31.531982421875,"response_time":1682726545375.86},{"trial":12,"action":1,"button_pressed":1,"time_out":false,"dwell_time":130.162109375,"response_time":1682726548024.7},{"trial":12,"action":1,"button_pressed":7,"time_out":false,"dwell_time":147.8369140625,"response_time":1682726552706.96},{"trial":12,"action":1,"button_pressed":5,"time_out":false,"dwell_time":47.294921875,"response_time":1682726552990.14},{"trial":12,"action":9,"button_pressed":-1,"time_out":false,"dwell_time":81.322021484375,"response_time":1682726553956.5},{"trial":13,"action":1,"button_pressed":11,"time_out":false,"dwell_time":231.31591796875,"response_time":1682726578332.12},{"trial":13,"action":1,"button_pressed":7,"time_out":false,"dwell_time":246.626953125,"response_time":1682726579497.67},{"trial":13,"action":1,"button_pressed":7,"time_out":false,"dwell_time":196.40087890625,"response_time":1682726580130.69},{"trial":13,"action":1,"button_pressed":7,"time_out":false,"dwell_time":163.09814453125,"response_time":1682726580747.36},{"trial":13,"action":1,"button_pressed":9,"time_out":false,"dwell_time":130.208984375,"response_time":1682726586778.39},{"trial":13,"action":1,"button_pressed":10,"time_out":false,"dwell_time":97.428955078125,"response_time":1682726589245.23},{"trial":13,"action":1,"button_pressed":2,"time_out":false,"dwell_time":97.98193359375,"response_time":1682726590311.47},{"trial":13,"action":9,"button_pressed":-1,"time_out":false,"dwell_time":16.803955078125,"response_time":1682726591527.29}]}