{"meta_data":{"additional_headers":{},"game_name":"Recollect","version":"2.53.01","user_name":"91","organization":"braingamecenter","study":"mpl2_2022_11","session_number":0,"device_id":"74342D95-EE82-45E3-8ADF-48FB3203C5DD"},"data":[{"trial":0,"action":1,"button_pressed":1,"time_out":false,"dwell_time":81.7138671875,"response_time":1683144295908.6},{"trial":0,"action":1,"button_pressed":5,"time_out":false,"dwell_time":64.216796875,"response_time":1683144296540.96},{"trial":0,"action":9,"button_pressed":-1,"time_out":false,"dwell_time":109.686767578125,"response_time":1683144297935.87},{"trial":1,"action":1,"button_pressed":4,"time_out":false,"dwell_time":81.050048828125,"response_time":1683144307504.81},{"trial":1,"action":1,"button_pressed":7,"time_out":false,"dwell_time":80.778076171875,"response_time":1683144307954.67},{"trial":1,"action":1,"button_pressed":10,"time_out":false,"dwell_time":47.964111328125,"response_time":1683144308387.52},{"trial":1,"action":9,"button_pressed":-1,"time_out":false,"dwell_time":81.19384765625,"response_time":1683144309087.93},{"trial":2,"action":1,"button_pressed":7,"time_out":false,"dwell_time":81.10009765625,"response_time":1683144320999.79},{"trial":2,"action":1,"button_pressed":9,"time_out":false,"dwell_time":64.10205078125,"response_time":1683144321432.75},{"trial":2,"action":1,"button_pressed":0,"time_out":false,"dwell_time":47.0849609375,"response_time":1683144321883.11},{"trial":2,"action":1,"button_pressed":4,"time_out":false,"dwell_time":64.40185546875,"response_time":1683144322249.37},{"trial":2,"action":9,"button_pressed":-1,"time_out":false,"dwell_time":81.40087890625,"response_time":1683144322816.88},{"trial":3,"action":1,"button_pressed":5,"time_out":false,"dwell_time":64.136962890625,"response_time":1683144337294.91},{"trial":3,"action":1,"button_pressed":9,"time_out":false,"dwell_time":81.5859375,"response_time":1683144337844.72},{"trial":3,"action":1,"button_pressed":6,"time_out":false,"dwell_time":63.10107421875,"response_time":1683144338193.8},{"trial":3,"action":1,"button_pressed":8,"time_out":false,"dwell_time":64.558837890625,"response_time":1683144338644.25},{"trial":3,"action":1,"button_pressed":7,"time_out":false,"dwell_time":30.460205078125,"response_time":1683144339160.65},{"trial":3,"action":9,"button_pressed":-1,"time_out":false,"dwell_time":81.35009765625,"response_time":1683144339960.38},{"trial":4,"action":1,"button_pressed":6,"time_out":false,"dwell_time":81.0458984375,"response_time":1683144357054.64},{"trial":4,"action":1,"button_pressed":5,"time_out":false,"dwell_time":80.511962890625,"response_time":1683144357354.18},{"trial":4,"action":1,"button_pressed":0,"time_out":false,"dwell_time":64.087890625,"response_time":1683144357770.75},{"trial":4,"action":1,"button_pressed":11,"time_out":false,"dwell_time":63.305908203125,"response_time":1683144358337.18},{"trial":4,"action":1,"button_pressed":8,"time_out":false,"dwell_time":80.9501953125,"response_time":1683144358720.65},{"trial":4,"action":1,"button_pressed":4,"time_out":false,"dwell_time":64.099853515625,"response_time":1683144359103.75},{"trial":4,"action":9,"button_pressed":-1,"time_out":false,"dwell_time":97.953125,"response_time":1683144359754.61},{"trial":5,"action":1,"button_pressed":8,"time_out":false,"dwell_time":81.676025390625,"response_time":1683144379364.59},{"trial":5,"action":1,"button_pressed":5,"time_out":false,"dwell_time":64.954833984375,"response_time":1683144379764.22},{"trial":5,"action":1,"button_pressed":1,"time_out":false,"dwell_time":114.133056640625,"response_time":1683144380196.67},{"trial":5,"action":1,"button_pressed":6,"time_out":false,"dwell_time":97.14892578125,"response_time":1683144380647.32},{"trial":5,"action":1,"button_pressed":0,"time_out":false,"dwell_time":81.34912109375,"response_time":1683144381097.06},{"trial":5,"action":1,"button_pressed":7,"time_out":false,"dwell_time":63.326904296875,"response_time":1683144381646.39},{"trial":5,"action":1,"button_pressed":11,"time_out":false,"dwell_time":80.7880859375,"response_time":1683144382180.15},{"trial":5,"action":9,"button_pressed":-1,"time_out":false,"dwell_time":65.903076171875,"response_time":1683144383014.03},{"trial":6,"action":1,"button_pressed":5,"time_out":false,"dwell_time":48.10205078125,"response_time":1683144405206.52},{"trial":6,"action":1,"button_pressed":6,"time_out":false,"dwell_time":63.89794921875,"response_time":1683144405638.97},{"trial":6,"action":1,"button_pressed":11,"time_out":false,"dwell_time":80.844970703125,"response_time":1683144405938.4},{"trial":6,"action":1,"button_pressed":1,"time_out":false,"dwell_time":64.8349609375,"response_time":1683144406372.11},{"trial":6,"action":1,"button_pressed":4,"time_out":false,"dwell_time":81.406982421875,"response_time":1683144406755.45},{"trial":6,"action":1,"button_pressed":10,"time_out":false,"dwell_time":64.279052734375,"response_time":1683144407154.67},{"trial":6,"action":1,"button_pressed":7,"time_out":false,"dwell_time":47.200927734375,"response_time":1683144407638.96},{"trial":6,"action":1,"button_pressed":0,"time_out":false,"dwell_time":47.718994140625,"response_time":1683144408154.82},{"trial":6,"action":9,"button_pressed":-1,"time_out":false,"dwell_time":48.795166015625,"response_time":1683144408822.83},{"trial":7,"action":1,"button_pressed":4,"time_out":false,"dwell_time":97.652099609375,"response_time":1683144434279.34},{"trial":7,"action":1,"button_pressed":2,"time_out":false,"dwell_time":47.785888671875,"response_time":1683144434696.05},{"trial":7,"action":1,"button_pressed":1,"time_out":false,"dwell_time":48.679931640625,"response_time":1683144435180.09},{"trial":7,"action":1,"button_pressed":7,"time_out":false,"dwell_time":63.87890625,"response_time":1683144436062.49},{"trial":7,"action":1,"button_pressed":9,"time_out":false,"dwell_time":64.296875,"response_time":1683144436595.3},{"trial":7,"action":1,"button_pressed":3,"time_out":false,"dwell_time":64.056884765625,"response_time":1683144436978.11},{"trial":7,"action":1,"button_pressed":6,"time_out":false,"dwell_time":63.9111328125,"response_time":1683144437345.4},{"trial":7,"action":1,"button_pressed":5,"time_out":false,"dwell_time":63.781005859375,"response_time":1683144437778.53},{"trial":7,"action":1,"button_pressed":11,"time_out":false,"dwell_time":47.015869140625,"response_time":1683144438278.24},{"trial":7,"action":9,"button_pressed":-1,"time_out":false,"dwell_time":48.303955078125,"response_time":1683144439145.08},{"trial":8,"action":1,"button_pressed":8,"time_out":false,"dwell_time":64.671875,"response_time":1683144465886.15},{"trial":8,"action":1,"button_pressed":10,"time_out":false,"dwell_time":63.389892578125,"response_time":1683144466218.63},{"trial":8,"action":1,"button_pressed":6,"time_out":false,"dwell_time":80.470947265625,"response_time":1683144466601.89},{"trial":8,"action":1,"button_pressed":11,"time_out":false,"dwell_time":80.952880859375,"response_time":1683144467068.73},{"trial":8,"action":1,"button_pressed":9,"time_out":false,"dwell_time":64.69189453125,"response_time":1683144470134.62},{"trial":8,"action":1,"button_pressed":7,"time_out":false,"dwell_time":81.35595703125,"response_time":1683144470867.64},{"trial":8,"action":1,"button_pressed":2,"time_out":false,"dwell_time":64.132080078125,"response_time":1683144471234.39},{"trial":8,"action":1,"button_pressed":4,"time_out":false,"dwell_time":63.3291015625,"response_time":1683144471783.49},{"trial":8,"action":1,"button_pressed":0,"time_out":false,"dwell_time":47.5439453125,"response_time":1683144472150.41},{"trial":8,"action":9,"button_pressed":-1,"time_out":false,"dwell_time":80.565185546875,"response_time":1683144473666.64},{"trial":9,"action":1,"button_pressed":2,"time_out":false,"dwell_time":81.868896484375,"response_time":1683144494610.3},{"trial":9,"action":1,"button_pressed":6,"time_out":false,"dwell_time":64.60888671875,"response_time":1683144495126.47},{"trial":9,"action":1,"button_pressed":9,"time_out":false,"dwell_time":47.086181640625,"response_time":1683144495376.12},{"trial":9,"action":1,"button_pressed":0,"time_out":false,"dwell_time":64.743896484375,"response_time":1683144495709.54},{"trial":9,"action":1,"button_pressed":3,"time_out":false,"dwell_time":64.574951171875,"response_time":1683144495959.28},{"trial":9,"action":1,"button_pressed":10,"time_out":false,"dwell_time":30.47021484375,"response_time":1683144496259.17},{"trial":9,"action":1,"button_pressed":7,"time_out":false,"dwell_time":48.76904296875,"response_time":1683144496543.31},{"trial":9,"action":9,"button_pressed":-1,"time_out":false,"dwell_time":81.06591796875,"response_time":1683144497109.45},{"trial":10,"action":1,"button_pressed":7,"time_out":false,"dwell_time":47.798095703125,"response_time":1683144519285.84},{"trial":10,"action":1,"button_pressed":5,"time_out":false,"dwell_time":64.177978515625,"response_time":1683144519618.4},{"trial":10,"action":1,"button_pressed":3,"time_out":false,"dwell_time":48.051025390625,"response_time":1683144520052.25},{"trial":10,"action":1,"button_pressed":4,"time_out":false,"dwell_time":81.0400390625,"response_time":1683144520384.45},{"trial":10,"action":1,"button_pressed":1,"time_out":false,"dwell_time":30.44921875,"response_time":1683144520934.39},{"trial":10,"action":1,"button_pressed":10,"time_out":false,"dwell_time":64.069091796875,"response_time":1683144521833.9},{"trial":10,"action":1,"button_pressed":2,"time_out":false,"dwell_time":64.02294921875,"response_time":1683144522234.03},{"trial":10,"action":1,"button_pressed":8,"time_out":false,"dwell_time":30.237060546875,"response_time":1683144522467.2},{"trial":10,"action":9,"button_pressed":-1,"time_out":false,"dwell_time":65.324951171875,"response_time":1683144523217.91},{"trial":11,"action":1,"button_pressed":7,"time_out":false,"dwell_time":47.294921875,"response_time":1683144548592.11},{"trial":11,"action":1,"button_pressed":1,"time_out":false,"dwell_time":47.35693359375,"response_time":1683144549391.99},{"trial":11,"action":1,"button_pressed":10,"time_out":false,"dwell_time":64.2880859375,"response_time":1683144550041.36},{"trial":11,"action":1,"button_pressed":0,"time_out":false,"dwell_time":47.02099609375,"response_time":1683144550674.65},{"trial":11,"action":1,"button_pressed":6,"time_out":false,"dwell_time":64.64306640625,"response_time":1683144551157.98},{"trial":11,"action":1,"button_pressed":9,"time_out":false,"dwell_time":64.44482421875,"response_time":1683144551574.51},{"trial":11,"action":1,"button_pressed":3,"time_out":false,"dwell_time":47.748046875,"response_time":1683144552741.28},{"trial":11,"action":1,"button_pressed":5,"time_out":false,"dwell_time":47.801025390625,"response_time":1683144553040.5},{"trial":11,"action":9,"button_pressed":-1,"time_out":false,"dwell_time":98.444091796875,"response_time":1683144553607.7},{"trial":12,"action":1,"button_pressed":0,"time_out":false,"dwell_time":47.24609375,"response_time":1683144578099.13},{"trial":12,"action":1,"button_pressed":3,"time_out":false,"dwell_time":80.765869140625,"response_time":1683144578582.26},{"trial":12,"action":1,"button_pressed":6,"time_out":false,"dwell_time":80.6279296875,"response_time":1683144579098.29},{"trial":12,"action":1,"button_pressed":10,"time_out":false,"dwell_time":47.7060546875,"response_time":1683144579982.25},{"trial":12,"action":1,"button_pressed":2,"time_out":false,"dwell_time":64.025146484375,"response_time":1683144580481.7},{"trial":12,"action":1,"button_pressed":7,"time_out":false,"dwell_time":47.239990234375,"response_time":1683144580964.77},{"trial":12,"action":1,"button_pressed":8,"time_out":false,"dwell_time":63.925048828125,"response_time":1683144582064.02},{"trial":12,"action":1,"button_pressed":4,"time_out":false,"dwell_time":64.203125,"response_time":1683144583563.38},{"trial":12,"action":1,"button_pressed":5,"time_out":false,"dwell_time":80.615966796875,"response_time":1683144586346.42},{"trial":12,"action":9,"button_pressed":-1,"time_out":false,"dwell_time":97.261962890625,"response_time":1683144586979.46}]}