{"meta_data":{"additional_headers":{},"game_name":"Recollect","version":"2.53.01","user_name":"91","organization":"braingamecenter","study":"mpl2_2022_11","session_number":0,"device_id":"74342D95-EE82-45E3-8ADF-48FB3203C5DD"},"data":[{"stage":"Practice","trial":0,"sequence":"6F","letter_input":"F","number_input":"6","is_correct":true,"presentation_start_time":1683144636094.96,"presentation_end_time":1683144639096.24,"response_time":1683144645578.41},{"stage":"Practice","trial":1,"sequence":"G4","letter_input":"G","number_input":"4","is_correct":true,"presentation_start_time":1683144647107.95,"presentation_end_time":1683144650109.49,"response_time":1683144655572.03},{"stage":"Practice","trial":2,"sequence":"3W5","letter_input":"W","number_input":"35","is_correct":true,"presentation_start_time":1683144657104.7,"presentation_end_time":1683144661605.61,"response_time":1683144668084.57},{"stage":"Practice","trial":3,"sequence":"T7L","letter_input":"LT","number_input":"7","is_correct":true,"presentation_start_time":1683144669617.25,"presentation_end_time":1683144674118.21,"response_time":1683144684029.29},{"stage":"Practice","trial":4,"sequence":"9J1","letter_input":"J","number_input":"19","is_correct":true,"presentation_start_time":1683144685562.03,"presentation_end_time":1683144690063.05,"response_time":1683144695292.31},{"stage":"Calibration","trial":0,"sequence":"S6","letter_input":"S","number_input":"6","is_correct":true,"presentation_start_time":1683144703789.4,"presentation_end_time":1683144706790.94,"response_time":1683144711287.05},{"stage":"Calibration","trial":1,"sequence":"2E","letter_input":"E","number_input":"2","is_correct":true,"presentation_start_time":1683144712819.71,"presentation_end_time":1683144715821.27,"response_time":1683144720600.64},{"stage":"Calibration","trial":2,"sequence":"Y1W","letter_input":"WY","number_input":"1","is_correct":true,"presentation_start_time":1683144722133.4,"presentation_end_time":1683144726634.24,"response_time":1683144734795.97},{"stage":"Calibration","trial":3,"sequence":"6T4","letter_input":"T","number_input":"46","is_correct":true,"presentation_start_time":1683144736328.68,"presentation_end_time":1683144740829.55,"response_time":1683144746975.22},{"stage":"Calibration","trial":4,"sequence":"P5F2","letter_input":"FP","number_input":"25","is_correct":true,"presentation_start_time":1683144748507.98,"presentation_end_time":1683144754508.41,"response_time":1683144761220.61},{"stage":"Calibration","trial":5,"sequence":"7Q4E","letter_input":"EQ","number_input":"47","is_correct":true,"presentation_start_time":1683144762753.34,"presentation_end_time":1683144768753.74,"response_time":1683144780180.96},{"stage":"Calibration","trial":6,"sequence":"R9Z2V","letter_input":"RVZ","number_input":"29","is_correct":true,"presentation_start_time":1683144781713.75,"presentation_end_time":1683144789213.67,"response_time":1683144808188.46},{"stage":"Calibration","trial":7,"sequence":"4S8H6","letter_input":"HRS","number_input":"4","is_correct":false,"presentation_start_time":1683144809721.22,"presentation_end_time":1683144817221.03,"response_time":1683144855273.02},{"stage":"Calibration","trial":8,"sequence":"M2F9Y7","letter_input":"FMY","number_input":"279","is_correct":true,"presentation_start_time":1683144856805.83,"presentation_end_time":1683144865805.24,"response_time":1683144884913.32},{"stage":"Calibration","trial":9,"sequence":"1L8A6S","letter_input":"FL","number_input":"128","is_correct":false,"presentation_start_time":1683144886446.04,"presentation_end_time":1683144895445.49,"response_time":1683144927516.02},{"stage":"Calibration","trial":10,"sequence":"J2W9R4H","letter_input":"JLW","number_input":"2","is_correct":false,"presentation_start_time":1683144929048.68,"presentation_end_time":1683144939547.7,"response_time":1683144969368.84},{"stage":"Calibration","trial":11,"sequence":"8D3P1L5","letter_input":"DLP","number_input":"1358","is_correct":true,"presentation_start_time":1683144970901.55,"presentation_end_time":1683144981400.52,"response_time":1683145012471.42},{"stage":"Calibration","trial":12,"sequence":"C9M2J7G4","letter_input":"CJM","number_input":"2379","is_correct":false,"presentation_start_time":1683145014004.05,"presentation_end_time":1683145026002.64,"response_time":1683145062538.27},{"stage":"Calibration","trial":13,"sequence":"8W3E1Y6S","letter_input":"WY","number_input":"138","is_correct":false,"presentation_start_time":1683145064070.89,"presentation_end_time":1683145076069.55,"response_time":1683145115554.18}]}