{"meta_data":{"additional_headers":{},"game_name":"Recollect","version":"2.53.01","user_name":"92","organization":"braingamecenter","study":"mpl2_2022_11","session_number":0,"device_id":"74342D95-EE82-45E3-8ADF-48FB3203C5DD"},"data":[{"stage":"Practice","trial":0,"sequence":"6F","letter_input":"F","number_input":"6","is_correct":true,"presentation_start_time":1683230926621.39,"presentation_end_time":1683230929622.93,"response_time":1683230936704.52},{"stage":"Practice","trial":1,"sequence":"G4","letter_input":"G","number_input":"4","is_correct":true,"presentation_start_time":1683230938234.27,"presentation_end_time":1683230941235.82,"response_time":1683230946031.79},{"stage":"Practice","trial":2,"sequence":"3W5","letter_input":"W","number_input":"35","is_correct":true,"presentation_start_time":1683230947564.51,"presentation_end_time":1683230952065.37,"response_time":1683230958011.17},{"stage":"Practice","trial":3,"sequence":"T7L","letter_input":"LT","number_input":"7","is_correct":true,"presentation_start_time":1683230959543.83,"presentation_end_time":1683230964044.85,"response_time":1683230969973.83},{"stage":"Practice","trial":4,"sequence":"9J1","letter_input":"J","number_input":"19","is_correct":true,"presentation_start_time":1683230971506.54,"presentation_end_time":1683230976007.6,"response_time":1683230980253.84},{"stage":"Calibration","trial":0,"sequence":"M5","letter_input":"M","number_input":"5","is_correct":true,"presentation_start_time":1683231008827.53,"presentation_end_time":1683231011828.92,"response_time":1683231016042},{"stage":"Calibration","trial":1,"sequence":"2D","letter_input":"D","number_input":"2","is_correct":true,"presentation_start_time":1683231017574.6,"presentation_end_time":1683231020576.19,"response_time":1683231023922.73},{"stage":"Calibration","trial":2,"sequence":"R5L","letter_input":"LR","number_input":"5","is_correct":true,"presentation_start_time":1683231025455.34,"presentation_end_time":1683231029956.27,"response_time":1683231037368.22},{"stage":"Calibration","trial":3,"sequence":"7J1","letter_input":"J","number_input":"17","is_correct":true,"presentation_start_time":1683231038900.93,"presentation_end_time":1683231043401.92,"response_time":1683231047864.71},{"stage":"Calibration","trial":4,"sequence":"L8G3","letter_input":"GL","number_input":"38","is_correct":true,"presentation_start_time":1683231049397.46,"presentation_end_time":1683231055398.04,"response_time":1683231068274.59},{"stage":"Calibration","trial":5,"sequence":"4V2J","letter_input":"JV","number_input":"24","is_correct":true,"presentation_start_time":1683231069807.35,"presentation_end_time":1683231075807.82,"response_time":1683231089967.45},{"stage":"Calibration","trial":6,"sequence":"C3T1M","letter_input":"CMT","number_input":"13","is_correct":true,"presentation_start_time":1683231091500.2,"presentation_end_time":1683231099000.2,"response_time":1683231107128.43},{"stage":"Calibration","trial":7,"sequence":"2R8L4","letter_input":"T","number_input":"24","is_correct":false,"presentation_start_time":1683231108661.2,"presentation_end_time":1683231116161.19,"response_time":1683231146848.59},{"stage":"Calibration","trial":8,"sequence":"A9V7Q3","letter_input":"AQV","number_input":"789","is_correct":false,"presentation_start_time":1683231148381.31,"presentation_end_time":1683231157380.86,"response_time":1683231207095.39},{"stage":"Calibration","trial":9,"sequence":"4Y8K6H","letter_input":"KY","number_input":"468","is_correct":false,"presentation_start_time":1683231208628.06,"presentation_end_time":1683231217627.62,"response_time":1683231248015.13}]}