{"meta_data":{"additional_headers":{},"game_name":"Recollect","version":"2.53.01","user_name":"93","organization":"braingamecenter","study":"mpl2_2022_11","session_number":0,"device_id":"74342D95-EE82-45E3-8ADF-48FB3203C5DD"},"data":[{"trial":0,"action":1,"button_pressed":10,"time_out":false,"dwell_time":64.284912109375,"response_time":1683241291439.72},{"trial":0,"action":1,"button_pressed":7,"time_out":false,"dwell_time":80.843017578125,"response_time":1683241292006.01},{"trial":0,"action":9,"button_pressed":-1,"time_out":false,"dwell_time":107.1259765625,"response_time":1683241292666.26},{"trial":1,"action":1,"button_pressed":1,"time_out":false,"dwell_time":81.89501953125,"response_time":1683241302120.48},{"trial":1,"action":1,"button_pressed":6,"time_out":false,"dwell_time":80.52099609375,"response_time":1683241302503.34},{"trial":1,"action":1,"button_pressed":8,"time_out":false,"dwell_time":97.460205078125,"response_time":1683241302936.64},{"trial":1,"action":9,"button_pressed":-1,"time_out":false,"dwell_time":97.93798828125,"response_time":1683241303536.07},{"trial":2,"action":1,"button_pressed":8,"time_out":false,"dwell_time":81.7060546875,"response_time":1683241315382.62},{"trial":2,"action":1,"button_pressed":1,"time_out":false,"dwell_time":64.168212890625,"response_time":1683241315798.31},{"trial":2,"action":1,"button_pressed":3,"time_out":false,"dwell_time":64.0400390625,"response_time":1683241316148.81},{"trial":2,"action":1,"button_pressed":11,"time_out":false,"dwell_time":63.987060546875,"response_time":1683241316632.09},{"trial":2,"action":9,"button_pressed":-1,"time_out":false,"dwell_time":64.674072265625,"response_time":1683241317265.77},{"trial":3,"action":1,"button_pressed":0,"time_out":false,"dwell_time":63.85009765625,"response_time":1683241331526.94},{"trial":3,"action":1,"button_pressed":7,"time_out":false,"dwell_time":64.5400390625,"response_time":1683241331977.41},{"trial":3,"action":1,"button_pressed":10,"time_out":false,"dwell_time":81.623046875,"response_time":1683241332343.82},{"trial":3,"action":1,"button_pressed":4,"time_out":false,"dwell_time":80.003173828125,"response_time":1683241332709.68},{"trial":3,"action":1,"button_pressed":1,"time_out":false,"dwell_time":64.7880859375,"response_time":1683241333110.21},{"trial":3,"action":9,"button_pressed":-1,"time_out":false,"dwell_time":64.5830078125,"response_time":1683241333543.12},{"trial":4,"action":1,"button_pressed":11,"time_out":false,"dwell_time":64.18505859375,"response_time":1683241350637.81},{"trial":4,"action":1,"button_pressed":8,"time_out":false,"dwell_time":64.35693359375,"response_time":1683241351137.27},{"trial":4,"action":1,"button_pressed":6,"time_out":false,"dwell_time":47.9560546875,"response_time":1683241351554.63},{"trial":4,"action":1,"button_pressed":4,"time_out":false,"dwell_time":63.9931640625,"response_time":1683241351953.98},{"trial":4,"action":1,"button_pressed":1,"time_out":false,"dwell_time":48.507080078125,"response_time":1683241352304.28},{"trial":4,"action":1,"button_pressed":10,"time_out":false,"dwell_time":64.18017578125,"response_time":1683241352736.98},{"trial":4,"action":9,"button_pressed":-1,"time_out":false,"dwell_time":16.66796875,"response_time":1683241353369.73},{"trial":5,"action":1,"button_pressed":9,"time_out":false,"dwell_time":81.44384765625,"response_time":1683241372914.04},{"trial":5,"action":1,"button_pressed":7,"time_out":false,"dwell_time":47.347900390625,"response_time":1683241373213.72},{"trial":5,"action":1,"button_pressed":4,"time_out":false,"dwell_time":64.02685546875,"response_time":1683241373680.26},{"trial":5,"action":1,"button_pressed":1,"time_out":false,"dwell_time":47.06396484375,"response_time":1683241374029.93},{"trial":5,"action":1,"button_pressed":11,"time_out":false,"dwell_time":47.033935546875,"response_time":1683241374396.53},{"trial":5,"action":1,"button_pressed":6,"time_out":false,"dwell_time":47.06591796875,"response_time":1683241374729.78},{"trial":5,"action":1,"button_pressed":8,"time_out":false,"dwell_time":30.4248046875,"response_time":1683241375146.35},{"trial":5,"action":9,"button_pressed":-1,"time_out":false,"dwell_time":81.421875,"response_time":1683241375780.09},{"trial":6,"action":1,"button_pressed":11,"time_out":false,"dwell_time":81.4931640625,"response_time":1683241398889.01},{"trial":6,"action":1,"button_pressed":7,"time_out":false,"dwell_time":63.906005859375,"response_time":1683241399305.33},{"trial":6,"action":1,"button_pressed":4,"time_out":false,"dwell_time":98.35205078125,"response_time":1683241399838.57},{"trial":6,"action":1,"button_pressed":3,"time_out":false,"dwell_time":63.9619140625,"response_time":1683241400187.6},{"trial":6,"action":1,"button_pressed":2,"time_out":false,"dwell_time":98.177001953125,"response_time":1683241400654.93},{"trial":6,"action":1,"button_pressed":1,"time_out":false,"dwell_time":64.8701171875,"response_time":1683241401104.78},{"trial":6,"action":1,"button_pressed":3,"time_out":false,"dwell_time":81.506103515625,"response_time":1683241401587.96},{"trial":6,"action":1,"button_pressed":9,"time_out":false,"dwell_time":64.26416015625,"response_time":1683241402520.56},{"trial":6,"action":9,"button_pressed":-1,"time_out":false,"dwell_time":114.43701171875,"response_time":1683241403387.76},{"trial":7,"action":1,"button_pressed":7,"time_out":false,"dwell_time":81.758056640625,"response_time":1683241425613.98},{"trial":7,"action":1,"button_pressed":5,"time_out":false,"dwell_time":97.416015625,"response_time":1683241426146.86},{"trial":7,"action":1,"button_pressed":3,"time_out":false,"dwell_time":63.35986328125,"response_time":1683241426578.54},{"trial":7,"action":1,"button_pressed":4,"time_out":false,"dwell_time":97.306884765625,"response_time":1683241426979.87},{"trial":7,"action":1,"button_pressed":1,"time_out":false,"dwell_time":47.680908203125,"response_time":1683241427479.27},{"trial":7,"action":1,"button_pressed":10,"time_out":false,"dwell_time":80.845947265625,"response_time":1683241428028.97},{"trial":7,"action":1,"button_pressed":2,"time_out":false,"dwell_time":64.23193359375,"response_time":1683241429095.41},{"trial":7,"action":1,"button_pressed":8,"time_out":false,"dwell_time":81.22802734375,"response_time":1683241429562.3},{"trial":7,"action":9,"button_pressed":-1,"time_out":false,"dwell_time":132.636962890625,"response_time":1683241430463.25},{"trial":8,"action":1,"button_pressed":8,"time_out":false,"dwell_time":96.80810546875,"response_time":1683241454970.22},{"trial":8,"action":1,"button_pressed":10,"time_out":false,"dwell_time":64.7998046875,"response_time":1683241455254.11},{"trial":8,"action":1,"button_pressed":4,"time_out":false,"dwell_time":63.261962890625,"response_time":1683241455603.36},{"trial":8,"action":1,"button_pressed":1,"time_out":false,"dwell_time":31.31494140625,"response_time":1683241455954.45},{"trial":8,"action":1,"button_pressed":9,"time_out":false,"dwell_time":63.927001953125,"response_time":1683241456386.31},{"trial":8,"action":1,"button_pressed":6,"time_out":false,"dwell_time":63.884033203125,"response_time":1683241456936.82},{"trial":8,"action":1,"button_pressed":2,"time_out":false,"dwell_time":64.116943359375,"response_time":1683241457486.68},{"trial":8,"action":1,"button_pressed":7,"time_out":false,"dwell_time":47.025146484375,"response_time":1683241458036.24},{"trial":8,"action":9,"button_pressed":-1,"time_out":false,"dwell_time":97.635009765625,"response_time":1683241458803.24},{"trial":9,"action":1,"button_pressed":9,"time_out":false,"dwell_time":81.7119140625,"response_time":1683241483445.15},{"trial":9,"action":1,"button_pressed":8,"time_out":false,"dwell_time":63.871826171875,"response_time":1683241483844.04},{"trial":9,"action":1,"button_pressed":2,"time_out":false,"dwell_time":64.075927734375,"response_time":1683241484294.04},{"trial":9,"action":1,"button_pressed":11,"time_out":false,"dwell_time":47.031005859375,"response_time":1683241484777.56},{"trial":9,"action":1,"button_pressed":5,"time_out":false,"dwell_time":96.7021484375,"response_time":1683241486826.61},{"trial":9,"action":1,"button_pressed":6,"time_out":false,"dwell_time":30.276123046875,"response_time":1683241487276.77},{"trial":9,"action":1,"button_pressed":10,"time_out":false,"dwell_time":80.33984375,"response_time":1683241487809.83},{"trial":9,"action":1,"button_pressed":1,"time_out":false,"dwell_time":97.888916015625,"response_time":1683241488526.33},{"trial":9,"action":9,"button_pressed":-1,"time_out":false,"dwell_time":164.9580078125,"response_time":1683241490142.65},{"trial":10,"action":1,"button_pressed":1,"time_out":false,"dwell_time":81.669921875,"response_time":1683241509553.56},{"trial":10,"action":1,"button_pressed":9,"time_out":false,"dwell_time":97.464111328125,"response_time":1683241509969.02},{"trial":10,"action":1,"button_pressed":7,"time_out":false,"dwell_time":64.01708984375,"response_time":1683241510286.32},{"trial":10,"action":1,"button_pressed":2,"time_out":false,"dwell_time":63.433837890625,"response_time":1683241510885.4},{"trial":10,"action":1,"button_pressed":5,"time_out":false,"dwell_time":80.7490234375,"response_time":1683241511335.9},{"trial":10,"action":1,"button_pressed":11,"time_out":false,"dwell_time":63.871826171875,"response_time":1683241511751.74},{"trial":10,"action":1,"button_pressed":0,"time_out":false,"dwell_time":114.759033203125,"response_time":1683241513301.89},{"trial":10,"action":1,"button_pressed":6,"time_out":false,"dwell_time":47.319091796875,"response_time":1683241513652.15},{"trial":10,"action":9,"button_pressed":-1,"time_out":false,"dwell_time":16.88916015625,"response_time":1683241515650.7},{"trial":11,"action":1,"button_pressed":6,"time_out":false,"dwell_time":130.712158203125,"response_time":1683241538144.13},{"trial":11,"action":1,"button_pressed":9,"time_out":false,"dwell_time":97.123046875,"response_time":1683241538577.1},{"trial":11,"action":1,"button_pressed":11,"time_out":false,"dwell_time":64.08984375,"response_time":1683241539009.51},{"trial":11,"action":1,"button_pressed":8,"time_out":false,"dwell_time":30.734130859375,"response_time":1683241539493.17},{"trial":11,"action":1,"button_pressed":4,"time_out":false,"dwell_time":130.955810546875,"response_time":1683241540209.4},{"trial":11,"action":1,"button_pressed":3,"time_out":false,"dwell_time":64.762939453125,"response_time":1683241541392.83},{"trial":11,"action":1,"button_pressed":5,"time_out":false,"dwell_time":146.55712890625,"response_time":1683241542092},{"trial":11,"action":0,"button_pressed":-1,"time_out":false,"dwell_time":97.703125,"response_time":1683241543958.33},{"trial":11,"action":1,"button_pressed":4,"time_out":false,"dwell_time":97.6669921875,"response_time":1683241544708.66},{"trial":11,"action":1,"button_pressed":9,"time_out":false,"dwell_time":96.285888671875,"response_time":1683241545407.46},{"trial":11,"action":1,"button_pressed":11,"time_out":false,"dwell_time":63.930908203125,"response_time":1683241545791.25},{"trial":11,"action":1,"button_pressed":8,"time_out":false,"dwell_time":113.22998046875,"response_time":1683241547173.59},{"trial":11,"action":1,"button_pressed":6,"time_out":false,"dwell_time":46.7451171875,"response_time":1683241547573.78},{"trial":11,"action":1,"button_pressed":3,"time_out":false,"dwell_time":64.3681640625,"response_time":1683241548256.67},{"trial":11,"action":1,"button_pressed":5,"time_out":false,"dwell_time":66.287841796875,"response_time":1683241548790.39},{"trial":11,"action":9,"button_pressed":-1,"time_out":false,"dwell_time":165.18798828125,"response_time":1683241549640.54}]}