{"meta_data":{"additional_headers":{},"game_name":"Recollect","version":"2.53.01","user_name":"93","organization":"braingamecenter","study":"mpl2_2022_11","session_number":0,"device_id":"74342D95-EE82-45E3-8ADF-48FB3203C5DD"},"data":[{"stage":"Practice","trial":0,"sequence":"6F","letter_input":"F","number_input":"6","is_correct":true,"presentation_start_time":1683241593724.02,"presentation_end_time":1683241596725.46,"response_time":1683241603122.7},{"stage":"Practice","trial":1,"sequence":"G4","letter_input":"G","number_input":"4","is_correct":true,"presentation_start_time":1683241604653.85,"presentation_end_time":1683241607655.26,"response_time":1683241615583.78},{"stage":"Practice","trial":2,"sequence":"3W5","letter_input":"W","number_input":"35","is_correct":true,"presentation_start_time":1683241617116.45,"presentation_end_time":1683241621617.6,"response_time":1683241633827.86},{"stage":"Practice","trial":3,"sequence":"T7L","letter_input":"LT","number_input":"7","is_correct":true,"presentation_start_time":1683241635360.54,"presentation_end_time":1683241639861.63,"response_time":1683241649072.94},{"stage":"Practice","trial":4,"sequence":"9J1","letter_input":"J","number_input":"19","is_correct":true,"presentation_start_time":1683241650605.56,"presentation_end_time":1683241655106.6,"response_time":1683241659702.77},{"stage":"Calibration","trial":0,"sequence":"T6","letter_input":"T","number_input":"6","is_correct":true,"presentation_start_time":1683241673898.06,"presentation_end_time":1683241676899.57,"response_time":1683241680562.75},{"stage":"Calibration","trial":1,"sequence":"4E","letter_input":"E","number_input":"4","is_correct":true,"presentation_start_time":1683241682095.47,"presentation_end_time":1683241685096.88,"response_time":1683241689143.32},{"stage":"Calibration","trial":2,"sequence":"S3C","letter_input":"CS","number_input":"3","is_correct":true,"presentation_start_time":1683241690676.02,"presentation_end_time":1683241695177.03,"response_time":1683241700039.79},{"stage":"Calibration","trial":3,"sequence":"8E5","letter_input":"E","number_input":"58","is_correct":true,"presentation_start_time":1683241701572.51,"presentation_end_time":1683241706073.53,"response_time":1683241714185.19},{"stage":"Calibration","trial":4,"sequence":"L6D3","letter_input":"DL","number_input":"36","is_correct":true,"presentation_start_time":1683241715717.9,"presentation_end_time":1683241721718.37,"response_time":1683241729013.71},{"stage":"Calibration","trial":5,"sequence":"8M2H","letter_input":"HM","number_input":"28","is_correct":true,"presentation_start_time":1683241730546.47,"presentation_end_time":1683241736547.06,"response_time":1683241746807.95},{"stage":"Calibration","trial":6,"sequence":"Z9Q3B","letter_input":"BQZ","number_input":"38","is_correct":false,"presentation_start_time":1683241748340.7,"presentation_end_time":1683241755840.7,"response_time":1683241782279.88},{"stage":"Calibration","trial":7,"sequence":"7L5J2","letter_input":"JL","number_input":"257","is_correct":true,"presentation_start_time":1683241783812.58,"presentation_end_time":1683241791312.63,"response_time":1683241812969.89},{"stage":"Calibration","trial":8,"sequence":"P9N6R4","letter_input":"NPR","number_input":"469","is_correct":true,"presentation_start_time":1683241814502.59,"presentation_end_time":1683241823502.14,"response_time":1683241841077.5},{"stage":"Calibration","trial":9,"sequence":"5B1L7F","letter_input":"BFL","number_input":"157","is_correct":true,"presentation_start_time":1683241842610.23,"presentation_end_time":1683241851609.9,"response_time":1683241865919.44},{"stage":"Calibration","trial":10,"sequence":"Z4T8Q6E","letter_input":"LTQ","number_input":"4682","is_correct":false,"presentation_start_time":1683241867452.11,"presentation_end_time":1683241877951.36,"response_time":1683241902557.67},{"stage":"Calibration","trial":11,"sequence":"9W5L3H7","letter_input":"ELW","number_input":"359","is_correct":false,"presentation_start_time":1683241904090.33,"presentation_end_time":1683241914589.31,"response_time":1683241941178.42}]}