{"meta_data":{"additional_headers":{},"game_name":"Recollect","version":"2.53.01","user_name":"94","organization":"braingamecenter","study":"mpl2_2022_11","session_number":0,"device_id":"74342D95-EE82-45E3-8ADF-48FB3203C5DD"},"data":[{"trial":0,"action":1,"button_pressed":11,"time_out":false,"dwell_time":81.0029296875,"response_time":1683329678599.6},{"trial":0,"action":1,"button_pressed":8,"time_out":false,"dwell_time":79.98486328125,"response_time":1683329679231.96},{"trial":0,"action":9,"button_pressed":-1,"time_out":false,"dwell_time":109.572021484375,"response_time":1683329679910.34},{"trial":1,"action":1,"button_pressed":7,"time_out":false,"dwell_time":81.385986328125,"response_time":1683329689612.56},{"trial":1,"action":1,"button_pressed":3,"time_out":false,"dwell_time":65.365966796875,"response_time":1683329690028.96},{"trial":1,"action":1,"button_pressed":2,"time_out":false,"dwell_time":80.863037109375,"response_time":1683329690628.09},{"trial":1,"action":9,"button_pressed":-1,"time_out":false,"dwell_time":98.494873046875,"response_time":1683329691295.53},{"trial":2,"action":1,"button_pressed":6,"time_out":false,"dwell_time":98.3720703125,"response_time":1683329703141.7},{"trial":2,"action":1,"button_pressed":8,"time_out":false,"dwell_time":63.130859375,"response_time":1683329703523.69},{"trial":2,"action":1,"button_pressed":11,"time_out":false,"dwell_time":81.46484375,"response_time":1683329704190.99},{"trial":2,"action":1,"button_pressed":7,"time_out":false,"dwell_time":80.804931640625,"response_time":1683329704656.84},{"trial":2,"action":9,"button_pressed":-1,"time_out":false,"dwell_time":98.664794921875,"response_time":1683329705324.33},{"trial":3,"action":1,"button_pressed":3,"time_out":false,"dwell_time":47.50390625,"response_time":1683329719802.44},{"trial":3,"action":1,"button_pressed":8,"time_out":false,"dwell_time":80.694091796875,"response_time":1683329720318.46},{"trial":3,"action":1,"button_pressed":4,"time_out":false,"dwell_time":81.362060546875,"response_time":1683329720785.5},{"trial":3,"action":1,"button_pressed":10,"time_out":false,"dwell_time":97.599853515625,"response_time":1683329721251.5},{"trial":3,"action":1,"button_pressed":11,"time_out":false,"dwell_time":81.613037109375,"response_time":1683329721835.26},{"trial":3,"action":9,"button_pressed":-1,"time_out":false,"dwell_time":16.737060546875,"response_time":1683329722684.47},{"trial":4,"action":1,"button_pressed":7,"time_out":false,"dwell_time":97.7939453125,"response_time":1683329739945.46},{"trial":4,"action":1,"button_pressed":3,"time_out":false,"dwell_time":81.65185546875,"response_time":1683329740529.12},{"trial":4,"action":1,"button_pressed":10,"time_out":false,"dwell_time":80.7109375,"response_time":1683329741012.16},{"trial":4,"action":1,"button_pressed":4,"time_out":false,"dwell_time":81.492919921875,"response_time":1683329741562},{"trial":4,"action":1,"button_pressed":9,"time_out":false,"dwell_time":47.1630859375,"response_time":1683329742111.53},{"trial":4,"action":1,"button_pressed":2,"time_out":false,"dwell_time":64.347900390625,"response_time":1683329742744.41},{"trial":4,"action":9,"button_pressed":-1,"time_out":false,"dwell_time":64.712890625,"response_time":1683329743644.64},{"trial":5,"action":1,"button_pressed":10,"time_out":false,"dwell_time":64.31689453125,"response_time":1683329760855.78},{"trial":5,"action":1,"button_pressed":2,"time_out":false,"dwell_time":47.19482421875,"response_time":1683329761538.44},{"trial":5,"action":1,"button_pressed":9,"time_out":false,"dwell_time":64.10693359375,"response_time":1683329762104.63},{"trial":5,"action":1,"button_pressed":5,"time_out":false,"dwell_time":47.93896484375,"response_time":1683329762755.43},{"trial":5,"action":1,"button_pressed":11,"time_out":false,"dwell_time":47.76708984375,"response_time":1683329763938.46},{"trial":5,"action":1,"button_pressed":0,"time_out":false,"dwell_time":63.421142578125,"response_time":1683329764553.75},{"trial":5,"action":9,"button_pressed":-1,"time_out":false,"dwell_time":65.214111328125,"response_time":1683329765171.91},{"trial":6,"action":1,"button_pressed":9,"time_out":false,"dwell_time":80.97705078125,"response_time":1683329784863.84},{"trial":6,"action":1,"button_pressed":7,"time_out":false,"dwell_time":47.8681640625,"response_time":1683329785347.44},{"trial":6,"action":1,"button_pressed":4,"time_out":false,"dwell_time":80.98095703125,"response_time":1683329785864.21},{"trial":6,"action":1,"button_pressed":1,"time_out":false,"dwell_time":97.40185546875,"response_time":1683329786380.52},{"trial":6,"action":1,"button_pressed":11,"time_out":false,"dwell_time":80.669921875,"response_time":1683329786879.66},{"trial":6,"action":1,"button_pressed":6,"time_out":false,"dwell_time":79.85498046875,"response_time":1683329787279.61},{"trial":6,"action":9,"button_pressed":-1,"time_out":false,"dwell_time":80.616943359375,"response_time":1683329787946.67},{"trial":7,"action":1,"button_pressed":11,"time_out":false,"dwell_time":81.745849609375,"response_time":1683329807573.84},{"trial":7,"action":1,"button_pressed":7,"time_out":false,"dwell_time":80.708984375,"response_time":1683329808106.04},{"trial":7,"action":1,"button_pressed":0,"time_out":false,"dwell_time":96.7890625,"response_time":1683329808639.3},{"trial":7,"action":1,"button_pressed":6,"time_out":false,"dwell_time":97.364990234375,"response_time":1683329810005.43},{"trial":7,"action":1,"button_pressed":9,"time_out":false,"dwell_time":31.971923828125,"response_time":1683329810839.62},{"trial":7,"action":1,"button_pressed":5,"time_out":false,"dwell_time":81.410888671875,"response_time":1683329811355.63},{"trial":7,"action":1,"button_pressed":3,"time_out":false,"dwell_time":80.801025390625,"response_time":1683329811738.35},{"trial":7,"action":9,"button_pressed":-1,"time_out":false,"dwell_time":81.9150390625,"response_time":1683329812489.13},{"trial":8,"action":1,"button_pressed":0,"time_out":false,"dwell_time":80.85693359375,"response_time":1683329827233.83},{"trial":8,"action":1,"button_pressed":7,"time_out":false,"dwell_time":98.04296875,"response_time":1683329827500.35},{"trial":8,"action":1,"button_pressed":10,"time_out":false,"dwell_time":81.361083984375,"response_time":1683329827866.85},{"trial":8,"action":1,"button_pressed":4,"time_out":false,"dwell_time":63.60693359375,"response_time":1683329828149.56},{"trial":8,"action":1,"button_pressed":1,"time_out":false,"dwell_time":64.16015625,"response_time":1683329828416.21},{"trial":8,"action":9,"button_pressed":-1,"time_out":false,"dwell_time":81.506103515625,"response_time":1683329829049.8},{"trial":9,"action":1,"button_pressed":5,"time_out":false,"dwell_time":97.06298828125,"response_time":1683329846210.51},{"trial":9,"action":1,"button_pressed":10,"time_out":false,"dwell_time":80.819091796875,"response_time":1683329846610.8},{"trial":9,"action":1,"button_pressed":7,"time_out":false,"dwell_time":97.9599609375,"response_time":1683329847060.52},{"trial":9,"action":1,"button_pressed":0,"time_out":false,"dwell_time":80.01318359375,"response_time":1683329847559.7},{"trial":9,"action":1,"button_pressed":4,"time_out":false,"dwell_time":97.509033203125,"response_time":1683329848159.59},{"trial":9,"action":9,"button_pressed":-1,"time_out":false,"dwell_time":47.56103515625,"response_time":1683329849260.04},{"trial":10,"action":1,"button_pressed":1,"time_out":false,"dwell_time":48.29296875,"response_time":1683329866354.92},{"trial":10,"action":1,"button_pressed":9,"time_out":false,"dwell_time":30.375,"response_time":1683329866653.84},{"trial":10,"action":1,"button_pressed":5,"time_out":false,"dwell_time":80.81201171875,"response_time":1683329867153.91},{"trial":10,"action":1,"button_pressed":6,"time_out":false,"dwell_time":80.673828125,"response_time":1683329867470.59},{"trial":10,"action":1,"button_pressed":7,"time_out":false,"dwell_time":47.869873046875,"response_time":1683329867804.24},{"trial":10,"action":1,"button_pressed":2,"time_out":false,"dwell_time":80.8388671875,"response_time":1683329868087.03},{"trial":10,"action":9,"button_pressed":-1,"time_out":false,"dwell_time":16.633056640625,"response_time":1683329868653},{"trial":11,"action":1,"button_pressed":1,"time_out":false,"dwell_time":48.87890625,"response_time":1683329888047.69},{"trial":11,"action":1,"button_pressed":9,"time_out":false,"dwell_time":47.846923828125,"response_time":1683329888530.7},{"trial":11,"action":1,"button_pressed":7,"time_out":false,"dwell_time":63.90185546875,"response_time":1683329889063.33},{"trial":11,"action":1,"button_pressed":11,"time_out":false,"dwell_time":81.552978515625,"response_time":1683329889629.91},{"trial":11,"action":1,"button_pressed":2,"time_out":false,"dwell_time":64.428955078125,"response_time":1683329890263.26},{"trial":11,"action":1,"button_pressed":6,"time_out":false,"dwell_time":48.466796875,"response_time":1683329890613.29},{"trial":11,"action":1,"button_pressed":6,"time_out":false,"dwell_time":30.566162109375,"response_time":1683329891529.1},{"trial":11,"action":0,"button_pressed":-1,"time_out":false,"dwell_time":80.43310546875,"response_time":1683329892745.11},{"trial":11,"action":1,"button_pressed":1,"time_out":false,"dwell_time":63.968017578125,"response_time":1683329893661.83},{"trial":11,"action":1,"button_pressed":9,"time_out":false,"dwell_time":97.39599609375,"response_time":1683329894227.7},{"trial":11,"action":1,"button_pressed":7,"time_out":false,"dwell_time":47.843994140625,"response_time":1683329894695.33},{"trial":11,"action":1,"button_pressed":11,"time_out":false,"dwell_time":64.31103515625,"response_time":1683329895044.27},{"trial":11,"action":1,"button_pressed":3,"time_out":false,"dwell_time":80.846923828125,"response_time":1683329895478.1},{"trial":11,"action":1,"button_pressed":5,"time_out":false,"dwell_time":98.2587890625,"response_time":1683329896727.61},{"trial":11,"action":9,"button_pressed":-1,"time_out":false,"dwell_time":81.385009765625,"response_time":1683329899443.18},{"trial":12,"action":1,"button_pressed":5,"time_out":false,"dwell_time":81.10302734375,"response_time":1683329919453.64},{"trial":12,"action":1,"button_pressed":3,"time_out":false,"dwell_time":80.89404296875,"response_time":1683329920052.54},{"trial":12,"action":1,"button_pressed":8,"time_out":false,"dwell_time":63.883056640625,"response_time":1683329920752.92},{"trial":12,"action":1,"button_pressed":11,"time_out":false,"dwell_time":47.1259765625,"response_time":1683329921719.1},{"trial":12,"action":0,"button_pressed":-1,"time_out":false,"dwell_time":64.36376953125,"response_time":1683329923935.42},{"trial":12,"action":1,"button_pressed":5,"time_out":false,"dwell_time":64.858154296875,"response_time":1683329924501.7},{"trial":12,"action":1,"button_pressed":3,"time_out":false,"dwell_time":98.14306640625,"response_time":1683329925434.83},{"trial":12,"action":1,"button_pressed":8,"time_out":false,"dwell_time":81.527099609375,"response_time":1683329926517.87},{"trial":12,"action":9,"button_pressed":-1,"time_out":true,"dwell_time":10093.3791503906,"response_time":1683329936529.73}]}