{"meta_data":{"additional_headers":{},"game_name":"Recollect","version":"2.53.01","user_name":"95","organization":"braingamecenter","study":"mpl2_2022_11","session_number":0,"device_id":"74342D95-EE82-45E3-8ADF-48FB3203C5DD"},"data":[{"stage":"Practice","trial":0,"sequence":"6F","letter_input":"F","number_input":"6","is_correct":true,"presentation_start_time":1683744417195.15,"presentation_end_time":1683744420196.62,"response_time":1683744429177.48},{"stage":"Practice","trial":1,"sequence":"G4","letter_input":"G","number_input":"4","is_correct":true,"presentation_start_time":1683744430707.31,"presentation_end_time":1683744433708.98,"response_time":1683744438204.98},{"stage":"Practice","trial":2,"sequence":"3W5","letter_input":"W","number_input":"35","is_correct":true,"presentation_start_time":1683744439737.63,"presentation_end_time":1683744444238.76,"response_time":1683744449434.52},{"stage":"Practice","trial":3,"sequence":"T7L","letter_input":"LT","number_input":"7","is_correct":true,"presentation_start_time":1683744450967.31,"presentation_end_time":1683744455468.26,"response_time":1683744468744.96},{"stage":"Practice","trial":4,"sequence":"9J1","letter_input":"J","number_input":"19","is_correct":true,"presentation_start_time":1683744470277.64,"presentation_end_time":1683744474778.61,"response_time":1683744480457.66},{"stage":"Calibration","trial":0,"sequence":"H5","letter_input":"H","number_input":"5","is_correct":true,"presentation_start_time":1683744487871.77,"presentation_end_time":1683744490873.3,"response_time":1683744494803},{"stage":"Calibration","trial":1,"sequence":"4C","letter_input":"C","number_input":"4","is_correct":true,"presentation_start_time":1683744496335.74,"presentation_end_time":1683744499337.27,"response_time":1683744503400.06},{"stage":"Calibration","trial":2,"sequence":"R3N","letter_input":"NR","number_input":"3","is_correct":true,"presentation_start_time":1683744504932.81,"presentation_end_time":1683744509433.9,"response_time":1683744528441.9},{"stage":"Calibration","trial":3,"sequence":"8Y1","letter_input":"Y","number_input":"18","is_correct":true,"presentation_start_time":1683744529974.6,"presentation_end_time":1683744534475.6,"response_time":1683744537655.52},{"stage":"Calibration","trial":4,"sequence":"N9J5","letter_input":"JN","number_input":"59","is_correct":true,"presentation_start_time":1683744539188.25,"presentation_end_time":1683744545188.75,"response_time":1683744560181.41},{"stage":"Calibration","trial":5,"sequence":"3T1M","letter_input":"MT","number_input":"13","is_correct":true,"presentation_start_time":1683744561714.12,"presentation_end_time":1683744567714.67,"response_time":1683744579741.57},{"stage":"Calibration","trial":6,"sequence":"R4P2D","letter_input":"DPR","number_input":"24","is_correct":true,"presentation_start_time":1683744581274.39,"presentation_end_time":1683744588774.37,"response_time":1683744609215.24},{"stage":"Calibration","trial":7,"sequence":"3V1F6","letter_input":"FV","number_input":"136","is_correct":true,"presentation_start_time":1683744610747.95,"presentation_end_time":1683744618248.08,"response_time":1683744629208.72},{"stage":"Calibration","trial":8,"sequence":"Q7M4B2","letter_input":"BMQ","number_input":"247","is_correct":true,"presentation_start_time":1683744630741.41,"presentation_end_time":1683744639741.04,"response_time":1683744665363.43},{"stage":"Calibration","trial":9,"sequence":"1F8A5Y","letter_input":"AFY","number_input":"158","is_correct":true,"presentation_start_time":1683744666896.15,"presentation_end_time":1683744675895.62,"response_time":1683744691321.63},{"stage":"Calibration","trial":10,"sequence":"K6W2T9P","letter_input":"KPTW","number_input":"269","is_correct":true,"presentation_start_time":1683744692854.19,"presentation_end_time":1683744703353.37,"response_time":1683744782658.11},{"stage":"Calibration","trial":11,"sequence":"8Y3V1N5","letter_input":"NVY","number_input":"1358","is_correct":true,"presentation_start_time":1683744784190.8,"presentation_end_time":1683744794689.7,"response_time":1683744822511.57},{"stage":"Calibration","trial":12,"sequence":"B4W9R6P2","letter_input":"BRW","number_input":"2469","is_correct":false,"presentation_start_time":1683744824044.27,"presentation_end_time":1683744836042.75,"response_time":1683744908016.71},{"stage":"Calibration","trial":13,"sequence":"1J7V5T3M","letter_input":"JMVT","number_input":"1357","is_correct":false,"presentation_start_time":1683744909549.46,"presentation_end_time":1683744921548.07,"response_time":1683744972495.5}]}