{"meta_data":{"additional_headers":{},"game_name":"Recollect","version":"2.53.01","user_name":"95","organization":"braingamecenter","study":"mpl2_2022_11","session_number":0,"device_id":"74342D95-EE82-45E3-8ADF-48FB3203C5DD"},"data":[{"trial":0,"action":1,"button_pressed":2,"time_out":false,"dwell_time":80.956787109375,"response_time":1683744127958.17},{"trial":0,"action":1,"button_pressed":9,"time_out":false,"dwell_time":47.824951171875,"response_time":1683744128358.33},{"trial":0,"action":9,"button_pressed":-1,"time_out":false,"dwell_time":75.125,"response_time":1683744129435.84},{"trial":1,"action":1,"button_pressed":0,"time_out":false,"dwell_time":98.406982421875,"response_time":1683744138838.7},{"trial":1,"action":1,"button_pressed":10,"time_out":false,"dwell_time":64.195068359375,"response_time":1683744139187.7},{"trial":1,"action":1,"button_pressed":11,"time_out":false,"dwell_time":98.105224609375,"response_time":1683744139554.97},{"trial":1,"action":9,"button_pressed":-1,"time_out":false,"dwell_time":80.2080078125,"response_time":1683744140087.65},{"trial":2,"action":1,"button_pressed":10,"time_out":false,"dwell_time":64.155029296875,"response_time":1683744152050.92},{"trial":2,"action":1,"button_pressed":3,"time_out":false,"dwell_time":47.89892578125,"response_time":1683744152517.04},{"trial":2,"action":1,"button_pressed":6,"time_out":false,"dwell_time":47.094970703125,"response_time":1683744152867},{"trial":2,"action":1,"button_pressed":8,"time_out":false,"dwell_time":48.556884765625,"response_time":1683744153317.55},{"trial":2,"action":9,"button_pressed":-1,"time_out":false,"dwell_time":16.60595703125,"response_time":1683744153999.67},{"trial":3,"action":1,"button_pressed":0,"time_out":false,"dwell_time":65.02685546875,"response_time":1683744168445.49},{"trial":3,"action":1,"button_pressed":7,"time_out":false,"dwell_time":64.02587890625,"response_time":1683744168928.02},{"trial":3,"action":1,"button_pressed":10,"time_out":false,"dwell_time":46.85400390625,"response_time":1683744169361.57},{"trial":3,"action":1,"button_pressed":4,"time_out":false,"dwell_time":64.14501953125,"response_time":1683744169744.27},{"trial":3,"action":1,"button_pressed":1,"time_out":false,"dwell_time":64.704833984375,"response_time":1683744170178.14},{"trial":3,"action":9,"button_pressed":-1,"time_out":false,"dwell_time":16.7919921875,"response_time":1683744171094.04},{"trial":4,"action":1,"button_pressed":8,"time_out":false,"dwell_time":64.260986328125,"response_time":1683744188071.73},{"trial":4,"action":1,"button_pressed":0,"time_out":false,"dwell_time":81.009033203125,"response_time":1683744188555.59},{"trial":4,"action":1,"button_pressed":1,"time_out":false,"dwell_time":64.214111328125,"response_time":1683744188988.62},{"trial":4,"action":1,"button_pressed":9,"time_out":false,"dwell_time":47.178955078125,"response_time":1683744189771.59},{"trial":4,"action":1,"button_pressed":3,"time_out":false,"dwell_time":48.594970703125,"response_time":1683744190205.29},{"trial":4,"action":1,"button_pressed":5,"time_out":false,"dwell_time":48.030029296875,"response_time":1683744190671.92},{"trial":4,"action":9,"button_pressed":-1,"time_out":false,"dwell_time":64.8359375,"response_time":1683744191570.88},{"trial":5,"action":1,"button_pressed":4,"time_out":false,"dwell_time":48.765869140625,"response_time":1683744211298.51},{"trial":5,"action":1,"button_pressed":2,"time_out":false,"dwell_time":47.656982421875,"response_time":1683744211764.86},{"trial":5,"action":1,"button_pressed":6,"time_out":false,"dwell_time":80.426025390625,"response_time":1683744212196.95},{"trial":5,"action":1,"button_pressed":8,"time_out":false,"dwell_time":47.741943359375,"response_time":1683744212631.31},{"trial":5,"action":1,"button_pressed":1,"time_out":false,"dwell_time":80.73681640625,"response_time":1683744213113.36},{"trial":5,"action":1,"button_pressed":9,"time_out":false,"dwell_time":47.875,"response_time":1683744213697.65},{"trial":5,"action":1,"button_pressed":0,"time_out":false,"dwell_time":30.5869140625,"response_time":1683744214163.39},{"trial":5,"action":9,"button_pressed":-1,"time_out":false,"dwell_time":64.677978515625,"response_time":1683744214663.99},{"trial":6,"action":1,"button_pressed":7,"time_out":false,"dwell_time":97.638916015625,"response_time":1683744236839.07},{"trial":6,"action":1,"button_pressed":5,"time_out":false,"dwell_time":64.302978515625,"response_time":1683744237522.1},{"trial":6,"action":1,"button_pressed":3,"time_out":false,"dwell_time":47.882080078125,"response_time":1683744238955.17},{"trial":6,"action":1,"button_pressed":4,"time_out":false,"dwell_time":47.947021484375,"response_time":1683744239571.72},{"trial":6,"action":1,"button_pressed":1,"time_out":false,"dwell_time":80.64013671875,"response_time":1683744240404.98},{"trial":6,"action":1,"button_pressed":10,"time_out":false,"dwell_time":63.85302734375,"response_time":1683744241021.55},{"trial":6,"action":1,"button_pressed":2,"time_out":false,"dwell_time":64.589111328125,"response_time":1683744241588.09},{"trial":6,"action":1,"button_pressed":8,"time_out":false,"dwell_time":47.69091796875,"response_time":1683744242054.29},{"trial":6,"action":9,"button_pressed":-1,"time_out":false,"dwell_time":49.76806640625,"response_time":1683744242605.88},{"trial":7,"action":1,"button_pressed":11,"time_out":false,"dwell_time":65.0361328125,"response_time":1683744267479.62},{"trial":7,"action":1,"button_pressed":9,"time_out":false,"dwell_time":47.756103515625,"response_time":1683744268063.08},{"trial":7,"action":1,"button_pressed":0,"time_out":false,"dwell_time":80.93603515625,"response_time":1683744270927.72},{"trial":7,"action":1,"button_pressed":2,"time_out":false,"dwell_time":64.01220703125,"response_time":1683744272261.15},{"trial":7,"action":1,"button_pressed":3,"time_out":false,"dwell_time":47.748046875,"response_time":1683744274544.26},{"trial":7,"action":1,"button_pressed":7,"time_out":false,"dwell_time":97.367919921875,"response_time":1683744275209.61},{"trial":7,"action":1,"button_pressed":8,"time_out":false,"dwell_time":47.714111328125,"response_time":1683744277542.61},{"trial":7,"action":1,"button_pressed":1,"time_out":false,"dwell_time":81.594970703125,"response_time":1683744278276},{"trial":7,"action":1,"button_pressed":10,"time_out":false,"dwell_time":47.934814453125,"response_time":1683744278675.65},{"trial":7,"action":9,"button_pressed":-1,"time_out":false,"dwell_time":64.76708984375,"response_time":1683744279275.55},{"trial":8,"action":1,"button_pressed":6,"time_out":false,"dwell_time":81.715087890625,"response_time":1683744313014.77},{"trial":8,"action":1,"button_pressed":7,"time_out":false,"dwell_time":64.69287109375,"response_time":1683744313581},{"trial":8,"action":1,"button_pressed":8,"time_out":false,"dwell_time":81.48095703125,"response_time":1683744319712.41},{"trial":8,"action":1,"button_pressed":10,"time_out":false,"dwell_time":80.491943359375,"response_time":1683744321211.91},{"trial":8,"action":1,"button_pressed":4,"time_out":false,"dwell_time":80.509033203125,"response_time":1683744321711.58},{"trial":8,"action":1,"button_pressed":1,"time_out":false,"dwell_time":80.1259765625,"response_time":1683744322294.06},{"trial":8,"action":1,"button_pressed":11,"time_out":false,"dwell_time":49.114013671875,"response_time":1683744322911.73},{"trial":8,"action":1,"button_pressed":2,"time_out":false,"dwell_time":47.689208984375,"response_time":1683744323544.81},{"trial":8,"action":9,"button_pressed":-1,"time_out":false,"dwell_time":66.39697265625,"response_time":1683744323995.83},{"trial":9,"action":1,"button_pressed":6,"time_out":false,"dwell_time":64.19189453125,"response_time":1683744348119.97},{"trial":9,"action":1,"button_pressed":8,"time_out":false,"dwell_time":47.054931640625,"response_time":1683744348685.93},{"trial":9,"action":1,"button_pressed":11,"time_out":false,"dwell_time":97.927978515625,"response_time":1683744349286.01},{"trial":9,"action":9,"button_pressed":-1,"time_out":true,"dwell_time":10110.0617675781,"response_time":1683744359298.14},{"trial":10,"action":1,"button_pressed":2,"time_out":false,"dwell_time":31.35595703125,"response_time":1683744379225.99},{"trial":10,"action":1,"button_pressed":6,"time_out":false,"dwell_time":46.945068359375,"response_time":1683744381075.26},{"trial":10,"action":1,"button_pressed":9,"time_out":false,"dwell_time":47.614990234375,"response_time":1683744381542.57},{"trial":10,"action":1,"button_pressed":0,"time_out":false,"dwell_time":64.2099609375,"response_time":1683744382241.09},{"trial":10,"action":1,"button_pressed":10,"time_out":false,"dwell_time":48.685791015625,"response_time":1683744382975.61},{"trial":10,"action":1,"button_pressed":7,"time_out":false,"dwell_time":64.23291015625,"response_time":1683744383508.11},{"trial":10,"action":9,"button_pressed":-1,"time_out":false,"dwell_time":47.452880859375,"response_time":1683744384091.31}]}