{"meta_data":{"additional_headers":{},"game_name":"Recollect","version":"2.53.01","user_name":"96","organization":"braingamecenter","study":"mpl2_2022_11","session_number":0,"device_id":"74342D95-EE82-45E3-8ADF-48FB3203C5DD"},"data":[{"trial":0,"action":1,"button_pressed":0,"time_out":false,"dwell_time":47.5390625,"response_time":1683824978062.48},{"trial":0,"action":1,"button_pressed":6,"time_out":false,"dwell_time":64.4931640625,"response_time":1683824978428.91},{"trial":0,"action":9,"button_pressed":-1,"time_out":false,"dwell_time":59.362060546875,"response_time":1683824979090.53},{"trial":1,"action":1,"button_pressed":6,"time_out":false,"dwell_time":64.23095703125,"response_time":1683824988158.67},{"trial":1,"action":1,"button_pressed":5,"time_out":false,"dwell_time":96.738037109375,"response_time":1683824988475.04},{"trial":1,"action":1,"button_pressed":4,"time_out":false,"dwell_time":64.48486328125,"response_time":1683824988808.48},{"trial":1,"action":9,"button_pressed":-1,"time_out":false,"dwell_time":16.488037109375,"response_time":1683824989392.03},{"trial":2,"action":1,"button_pressed":0,"time_out":false,"dwell_time":47.328125,"response_time":1683825001171.4},{"trial":2,"action":1,"button_pressed":10,"time_out":false,"dwell_time":64.798095703125,"response_time":1683825002304.52},{"trial":2,"action":1,"button_pressed":2,"time_out":false,"dwell_time":48.4169921875,"response_time":1683825003404.78},{"trial":2,"action":1,"button_pressed":6,"time_out":false,"dwell_time":80.666015625,"response_time":1683825003920.65},{"trial":2,"action":9,"button_pressed":-1,"time_out":false,"dwell_time":65.468017578125,"response_time":1683825004520.97},{"trial":3,"action":1,"button_pressed":3,"time_out":false,"dwell_time":64.10400390625,"response_time":1683825018682.35},{"trial":3,"action":1,"button_pressed":8,"time_out":false,"dwell_time":64.822998046875,"response_time":1683825019165.65},{"trial":3,"action":1,"button_pressed":4,"time_out":false,"dwell_time":63.445068359375,"response_time":1683825019631.54},{"trial":3,"action":1,"button_pressed":10,"time_out":false,"dwell_time":64.507080078125,"response_time":1683825020165.26},{"trial":3,"action":1,"button_pressed":11,"time_out":false,"dwell_time":14.514892578125,"response_time":1683825020665.41},{"trial":3,"action":9,"button_pressed":-1,"time_out":false,"dwell_time":16.758056640625,"response_time":1683825022580.74},{"trial":4,"action":1,"button_pressed":3,"time_out":false,"dwell_time":47.482177734375,"response_time":1683825039392.27},{"trial":4,"action":1,"button_pressed":7,"time_out":false,"dwell_time":47.008056640625,"response_time":1683825039758.84},{"trial":4,"action":1,"button_pressed":4,"time_out":false,"dwell_time":48.77685546875,"response_time":1683825040142.62},{"trial":4,"action":1,"button_pressed":10,"time_out":false,"dwell_time":47.614990234375,"response_time":1683825040509.03},{"trial":4,"action":1,"button_pressed":2,"time_out":false,"dwell_time":81.172119140625,"response_time":1683825040858.35},{"trial":4,"action":1,"button_pressed":9,"time_out":false,"dwell_time":80.75,"response_time":1683825041174.48},{"trial":4,"action":9,"button_pressed":-1,"time_out":false,"dwell_time":31.7080078125,"response_time":1683825042975.46},{"trial":5,"action":1,"button_pressed":7,"time_out":false,"dwell_time":47.9658203125,"response_time":1683825066766.72},{"trial":5,"action":1,"button_pressed":11,"time_out":false,"dwell_time":63.932861328125,"response_time":1683825067266.54},{"trial":5,"action":1,"button_pressed":0,"time_out":false,"dwell_time":63.635009765625,"response_time":1683825068131.76},{"trial":5,"action":1,"button_pressed":6,"time_out":false,"dwell_time":64.06689453125,"response_time":1683825068632.19},{"trial":5,"action":1,"button_pressed":5,"time_out":false,"dwell_time":63.912109375,"response_time":1683825071281.68},{"trial":5,"action":1,"button_pressed":9,"time_out":false,"dwell_time":63.5390625,"response_time":1683825071630.61},{"trial":5,"action":1,"button_pressed":3,"time_out":false,"dwell_time":47.626953125,"response_time":1683825072181.93},{"trial":5,"action":9,"button_pressed":-1,"time_out":false,"dwell_time":98.867919921875,"response_time":1683825072648.78},{"trial":6,"action":1,"button_pressed":10,"time_out":false,"dwell_time":30.43701171875,"response_time":1683825092658.18},{"trial":6,"action":1,"button_pressed":1,"time_out":false,"dwell_time":97.614013671875,"response_time":1683825095806.72},{"trial":6,"action":1,"button_pressed":2,"time_out":false,"dwell_time":47.989990234375,"response_time":1683825097056.77},{"trial":6,"action":1,"button_pressed":7,"time_out":false,"dwell_time":62.797119140625,"response_time":1683825097955.3},{"trial":6,"action":1,"button_pressed":0,"time_out":false,"dwell_time":98.406982421875,"response_time":1683825101538.85},{"trial":6,"action":1,"button_pressed":6,"time_out":false,"dwell_time":81.14501953125,"response_time":1683825101854.96},{"trial":6,"action":9,"button_pressed":-1,"time_out":false,"dwell_time":65.3720703125,"response_time":1683825102322.26},{"trial":7,"action":1,"button_pressed":11,"time_out":false,"dwell_time":32.400146484375,"response_time":1683825117184.52},{"trial":7,"action":1,"button_pressed":1,"time_out":false,"dwell_time":48.116943359375,"response_time":1683825117783.3},{"trial":7,"action":1,"button_pressed":9,"time_out":false,"dwell_time":47.818115234375,"response_time":1683825118283.13},{"trial":7,"action":1,"button_pressed":7,"time_out":false,"dwell_time":46.85693359375,"response_time":1683825118649.63},{"trial":7,"action":1,"button_pressed":4,"time_out":false,"dwell_time":47.796142578125,"response_time":1683825119016.86},{"trial":7,"action":9,"button_pressed":-1,"time_out":false,"dwell_time":31.795166015625,"response_time":1683825120083.92},{"trial":8,"action":1,"button_pressed":9,"time_out":false,"dwell_time":64.287109375,"response_time":1683825137193.2},{"trial":8,"action":1,"button_pressed":1,"time_out":false,"dwell_time":64.65087890625,"response_time":1683825137743.46},{"trial":8,"action":1,"button_pressed":2,"time_out":false,"dwell_time":64.696044921875,"response_time":1683825138276.38},{"trial":8,"action":1,"button_pressed":8,"time_out":false,"dwell_time":30.377197265625,"response_time":1683825138676.38},{"trial":8,"action":1,"button_pressed":6,"time_out":false,"dwell_time":63.90087890625,"response_time":1683825139242.39},{"trial":8,"action":1,"button_pressed":11,"time_out":false,"dwell_time":47.305908203125,"response_time":1683825139592.92},{"trial":8,"action":9,"button_pressed":-1,"time_out":false,"dwell_time":48.887939453125,"response_time":1683825140359.94},{"trial":9,"action":1,"button_pressed":6,"time_out":false,"dwell_time":98.211181640625,"response_time":1683825160319.67},{"trial":9,"action":1,"button_pressed":2,"time_out":false,"dwell_time":30.45703125,"response_time":1683825160719.07},{"trial":9,"action":1,"button_pressed":4,"time_out":false,"dwell_time":64.171142578125,"response_time":1683825161018.61},{"trial":9,"action":1,"button_pressed":8,"time_out":false,"dwell_time":47.89794921875,"response_time":1683825161452.23},{"trial":9,"action":1,"button_pressed":1,"time_out":false,"dwell_time":31.893798828125,"response_time":1683825162069.26},{"trial":9,"action":1,"button_pressed":9,"time_out":false,"dwell_time":63.85693359375,"response_time":1683825163801.58},{"trial":9,"action":1,"button_pressed":0,"time_out":false,"dwell_time":64.52197265625,"response_time":1683825164201.53},{"trial":9,"action":9,"button_pressed":-1,"time_out":false,"dwell_time":48.025146484375,"response_time":1683825164518.32},{"trial":10,"action":1,"button_pressed":0,"time_out":false,"dwell_time":48.380126953125,"response_time":1683825184995.43},{"trial":10,"action":1,"button_pressed":8,"time_out":false,"dwell_time":30.56787109375,"response_time":1683825185444.47},{"trial":10,"action":1,"button_pressed":5,"time_out":false,"dwell_time":47.22705078125,"response_time":1683825185710.99},{"trial":10,"action":1,"button_pressed":6,"time_out":false,"dwell_time":47.76708984375,"response_time":1683825186210.82},{"trial":10,"action":1,"button_pressed":2,"time_out":false,"dwell_time":98.26904296875,"response_time":1683825193008.93},{"trial":10,"action":1,"button_pressed":10,"time_out":false,"dwell_time":12.30810546875,"response_time":1683825193323.97},{"trial":10,"action":1,"button_pressed":9,"time_out":false,"dwell_time":63.989990234375,"response_time":1683825193958.46},{"trial":10,"action":9,"button_pressed":-1,"time_out":false,"dwell_time":82.381103515625,"response_time":1683825194542.37}]}