{"meta_data":{"additional_headers":{},"game_name":"Recollect","version":"2.53.01","user_name":"96","organization":"braingamecenter","study":"mpl2_2022_11","session_number":0,"device_id":"74342D95-EE82-45E3-8ADF-48FB3203C5DD"},"data":[{"stage":"Practice","trial":0,"sequence":"6F","letter_input":"F","number_input":"6","is_correct":true,"presentation_start_time":1683825226496.1,"presentation_end_time":1683825229497.65,"response_time":1683825235279.44},{"stage":"Practice","trial":1,"sequence":"G4","letter_input":"G","number_input":"4","is_correct":true,"presentation_start_time":1683825236809.46,"presentation_end_time":1683825239810.98,"response_time":1683825244323.73},{"stage":"Practice","trial":2,"sequence":"3W5","letter_input":"W","number_input":"35","is_correct":true,"presentation_start_time":1683825245856.46,"presentation_end_time":1683825250357.61,"response_time":1683825255186.8},{"stage":"Practice","trial":3,"sequence":"T7L","letter_input":"LT","number_input":"7","is_correct":true,"presentation_start_time":1683825256719.57,"presentation_end_time":1683825261220.67,"response_time":1683825266149.88},{"stage":"Practice","trial":4,"sequence":"9J1","letter_input":"J","number_input":"19","is_correct":true,"presentation_start_time":1683825267682.62,"presentation_end_time":1683825272183.66,"response_time":1683825276529.87},{"stage":"Calibration","trial":0,"sequence":"V4","letter_input":"V","number_input":"4","is_correct":true,"presentation_start_time":1683825287059.68,"presentation_end_time":1683825290061.14,"response_time":1683825295073.8},{"stage":"Calibration","trial":1,"sequence":"6J","letter_input":"J","number_input":"6","is_correct":true,"presentation_start_time":1683825296606.5,"presentation_end_time":1683825299607.99,"response_time":1683825302771.28},{"stage":"Calibration","trial":2,"sequence":"P3G","letter_input":"GP","number_input":"3","is_correct":true,"presentation_start_time":1683825304303.98,"presentation_end_time":1683825308805.05,"response_time":1683825313800.99},{"stage":"Calibration","trial":3,"sequence":"8M2","letter_input":"M","number_input":"28","is_correct":true,"presentation_start_time":1683825315333.8,"presentation_end_time":1683825319834.66,"response_time":1683825324230.93},{"stage":"Calibration","trial":4,"sequence":"L9H6","letter_input":"HL","number_input":"69","is_correct":true,"presentation_start_time":1683825325763.7,"presentation_end_time":1683825331764.25,"response_time":1683825342641.63},{"stage":"Calibration","trial":5,"sequence":"5S2J","letter_input":"JS","number_input":"2","is_correct":false,"presentation_start_time":1683825344174.26,"presentation_end_time":1683825350174.75,"response_time":1683825356970.18},{"stage":"Calibration","trial":6,"sequence":"Z7K4F","letter_input":"FKZ","number_input":"47","is_correct":true,"presentation_start_time":1683825358502.88,"presentation_end_time":1683825366002.97,"response_time":1683825383878.06},{"stage":"Calibration","trial":7,"sequence":"1R9B6","letter_input":"BR","number_input":"169","is_correct":true,"presentation_start_time":1683825385410.8,"presentation_end_time":1683825392910.82,"response_time":1683825409053.18},{"stage":"Calibration","trial":8,"sequence":"N3J7Z5","letter_input":"JNZ","number_input":"357","is_correct":true,"presentation_start_time":1683825410585.92,"presentation_end_time":1683825419585.49,"response_time":1683825433961.71},{"stage":"Calibration","trial":9,"sequence":"9Y4S2B","letter_input":"BSY","number_input":"249","is_correct":true,"presentation_start_time":1683825435494.41,"presentation_end_time":1683825444493.96,"response_time":1683825463868.58},{"stage":"Calibration","trial":10,"sequence":"A1P7N3C","letter_input":"ACNP","number_input":"137","is_correct":true,"presentation_start_time":1683825465401.4,"presentation_end_time":1683825475900.31,"response_time":1683825497390.91},{"stage":"Calibration","trial":11,"sequence":"4M2B9V6","letter_input":"BMV","number_input":"2469","is_correct":true,"presentation_start_time":1683825498923.64,"presentation_end_time":1683825509422.7,"response_time":1683825546808.15},{"stage":"Calibration","trial":12,"sequence":"D8Y5W3H1","letter_input":"DHWY","number_input":"1358","is_correct":true,"presentation_start_time":1683825548341.16,"presentation_end_time":1683825560339.58,"response_time":1683825590827.07},{"stage":"Calibration","trial":13,"sequence":"2G7V4T9L","letter_input":"GHLV","number_input":"2479","is_correct":false,"presentation_start_time":1683825592359.8,"presentation_end_time":1683825604358.34,"response_time":1683825650424.21},{"stage":"Calibration","trial":14,"sequence":"W1M8K6F3A","letter_input":"FKWV","number_input":"1689","is_correct":false,"presentation_start_time":1683825651957,"presentation_end_time":1683825665455.06,"response_time":1683825720368.1},{"stage":"Calibration","trial":15,"sequence":"7D2Q9G5T3","letter_input":"EGQT","number_input":"2357","is_correct":false,"presentation_start_time":1683825721900.82,"presentation_end_time":1683825735398.78,"response_time":1683825808172.65}]}