{"meta_data":{"additional_headers":{},"game_name":"Recollect","version":"2.53.01","user_name":"97","organization":"braingamecenter","study":"mpl2_2022_11","session_number":0,"device_id":"74342D95-EE82-45E3-8ADF-48FB3203C5DD"},"data":[{"stage":"Practice","trial":0,"sequence":"6F","letter_input":"F","number_input":"6","is_correct":true,"presentation_start_time":1683835966160.1,"presentation_end_time":1683835969161.6,"response_time":1683835975975.19},{"stage":"Practice","trial":1,"sequence":"G4","letter_input":"G","number_input":"4","is_correct":true,"presentation_start_time":1683835977506.29,"presentation_end_time":1683835980507.83,"response_time":1683835986819.99},{"stage":"Practice","trial":2,"sequence":"3W5","letter_input":"W","number_input":"35","is_correct":true,"presentation_start_time":1683835988352.69,"presentation_end_time":1683835992853.82,"response_time":1683835998549.41},{"stage":"Practice","trial":3,"sequence":"T7L","letter_input":"LT","number_input":"7","is_correct":true,"presentation_start_time":1683836000082.08,"presentation_end_time":1683836004583.2,"response_time":1683836013161.24},{"stage":"Practice","trial":4,"sequence":"9J1","letter_input":"J","number_input":"19","is_correct":true,"presentation_start_time":1683836014693.87,"presentation_end_time":1683836019195.04,"response_time":1683836025740.33},{"stage":"Calibration","trial":0,"sequence":"J6","letter_input":"J","number_input":"6","is_correct":true,"presentation_start_time":1683836034920.61,"presentation_end_time":1683836037922.03,"response_time":1683836042018.25},{"stage":"Calibration","trial":1,"sequence":"9M","letter_input":"M","number_input":"9","is_correct":true,"presentation_start_time":1683836043550.97,"presentation_end_time":1683836046552.49,"response_time":1683836051031.95},{"stage":"Calibration","trial":2,"sequence":"Q6F","letter_input":"FQ","number_input":"6","is_correct":true,"presentation_start_time":1683836052564.63,"presentation_end_time":1683836057065.47,"response_time":1683836067343.16},{"stage":"Calibration","trial":3,"sequence":"8L3","letter_input":"L","number_input":"38","is_correct":true,"presentation_start_time":1683836068875.85,"presentation_end_time":1683836073376.78,"response_time":1683836078822.72},{"stage":"Calibration","trial":4,"sequence":"F7A5","letter_input":"AF","number_input":"57","is_correct":true,"presentation_start_time":1683836080355.33,"presentation_end_time":1683836086355.82,"response_time":1683836097516.44},{"stage":"Calibration","trial":5,"sequence":"8Y4D","letter_input":"DY","number_input":"48","is_correct":true,"presentation_start_time":1683836099049.13,"presentation_end_time":1683836105049.65,"response_time":1683836113544.32},{"stage":"Calibration","trial":6,"sequence":"V5H3Z","letter_input":"F","number_input":"85","is_correct":false,"presentation_start_time":1683836115077.09,"presentation_end_time":1683836122577.11,"response_time":1683836143217.77},{"stage":"Calibration","trial":7,"sequence":"4S9Q7","letter_input":"F","number_input":"87","is_correct":false,"presentation_start_time":1683836144750.54,"presentation_end_time":1683836152250.72,"response_time":1683836164194.09}]}