Audio_Only_Files,Video_Files,Original_Word_List,noiseLevelCode,conditionCodes,noiseLevelFile1,noiseLevelFile2,InstrTextVar,targetSpeakerName,targetSpeakerEccen,targetSpkrChannel,targetSpkrSound,targetVisualDegrees,visStimLoc,visStimLoc2,visStimW,visStimH,practiceTrials.thisRepN,practiceTrials.thisTrialN,practiceTrials.thisN,practiceTrials.thisIndex,trials.thisRepN,trials.thisTrialN,trials.thisN,trials.thisIndex,audLocalLoop.thisRepN,audLocalLoop.thisTrialN,audLocalLoop.thisN,audLocalLoop.thisIndex,visualLocalLoop.thisRepN,visualLocalLoop.thisTrialN,visualLocalLoop.thisN,visualLocalLoop.thisIndex,letsGoAlready.keys,letsGoAlready.rt,letsGoAlready.started,letsGoAlready.stopped,text_2.started,text_2.stopped,text_3.started,text_3.stopped,key_resp_2.keys,key_resp_2.rt,key_resp_2.started,key_resp_2.stopped,text_5.started,text_5.stopped,fixCross.started,fixCross.stopped,fixCross2.started,fixCross2.stopped,answerPrompt.started,answerPrompt.stopped,getAnswer.text,getAnswer.started,getAnswer.stopped,goToNext.keys,goToNext.rt,goToNext.started,goToNext.stopped,stretchBreakTxrt.started,stretchBreakTxrt.stopped,key_resp_3.keys,key_resp_3.rt,key_resp_3.started,key_resp_3.stopped,letsGoLocal.keys,letsGoLocal.rt,letsGoLocal.started,letsGoLocal.stopped,text_4.started,text_4.stopped,prepFixTxt.started,prepFixTxt.stopped,prepFixTxt_2.started,prepFixTxt_2.stopped,respPromptLocal.started,respPromptLocal.stopped,slider.response,slider.rt,slider.started,slider.stopped,letsGoLocal_2.keys,letsGoLocal_2.rt,letsGoLocal_2.started,letsGoLocal_2.stopped,text_7.started,text_7.stopped,prepFixTxt_3.started,prepFixTxt_3.stopped,grating.started,grating.stopped,exitTxt.started,exitTxt.stopped,key_resp.keys,key_resp.rt,key_resp.started,key_resp.stopped,participant,session,date,expName,psychopyVersion,frameRate,
,,,,,,,,,,,,,,,,,,,,,,,,,,,,,,,,,space,1.2397667080003885,7.341182834003121,None,,,,,,,,,,,,,,,,,,,,,,,,,,,,,,,,,,,,,,,,,,,,,,,,,,,,,,,,,,,,,,97,001,2023_May_11_1414,SpeechDraft1Carolyn_lessNoise_PlusLocalization,2021.2.3,59.847762254718575,
,,,,,,,,,,,,,,,,,,,,,,,,,,,,,,,,,,,,,7.341182834003121,None,8.859051209001336,None,space,1.3574430840017158,9.039486209003371,None,,,,,,,,,,,,,,,,,,,,,,,,,,,,,,,,,,,,,,,,,,,,,,,,,,,,,,97,001,2023_May_11_1414,SpeechDraft1Carolyn_lessNoise_PlusLocalization,2021.2.3,59.847762254718575,
ash.wav,ash.mpg,ash,1,A,Pink_Noise_1_1.wav,Pink_Noise_1_2.wav,"This is an example of an

AUDIO trial",,,,,,,,,,0,0,0,0,,,,,,,,,,,,,,,,,,,,,,,,,10.445803250004246,None,11.43928970900015,None,14.467930334001721,None,15.854801584006054,None,ash,15.854801584006054,None,return,28.48976191700058,15.939333875001466,None,,,,,,,,,,,,,,,,,,,,,,,,,,,,,,,,,,,,,,,97,001,2023_May_11_1414,SpeechDraft1Carolyn_lessNoise_PlusLocalization,2021.2.3,59.847762254718575,
ash.wav,ash.mpg,ash,1,AV,Pink_Noise_1_1.wav,Pink_Noise_1_2.wav,"This is an example of an

AUDIO + VIDEO  trial",,,,,,,,,,0,1,1,1,,,,,,,,,,,,,,,,,,,,,,,,,44.455844667005294,None,45.45628041700547,None,46.9635022500006,None,48.355932709004264,None,ash,48.355932709004264,None,return,0.8467900409959839,48.43837416700262,None,,,,,,,,,,,,,,,,,,,,,,,,,,,,,,,,,,,,,,,97,001,2023_May_11_1414,SpeechDraft1Carolyn_lessNoise_PlusLocalization,2021.2.3,59.847762254718575,
,,,,,,,,,,,,,,,,,,,,,,,,,,,,,,,,,,,,,,,,,,,,,,,,,,,,,,,,,,,,49.305210917002114,None,space,1.2826942920000874,49.506410459005565,None,,,,,,,,,,,,,,,,,,,,,,,,,,,,,,,,,97,001,2023_May_11_1414,SpeechDraft1Carolyn_lessNoise_PlusLocalization,2021.2.3,59.847762254718575,
crisp.wav,crisp.mpg,crisp,5,A,Pink_Noise_5_1.wav,Pink_Noise_5_2.wav,,,,,,,,,,,,,,,0,0,0,2,,,,,,,,,,,,,,,,,,,,,,,50.83361491699907,None,52.349288709003304,None,53.73842983400391,None,crisp,53.73842983400391,None,return,1.1197791669983417,53.82136429200182,None,,,,,,,,,,,,,,,,,,,,,,,,,,,,,,,,,,,,,,,97,001,2023_May_11_1414,SpeechDraft1Carolyn_lessNoise_PlusLocalization,2021.2.3,59.847762254718575,
dead.wav,dead.mpg,dead,5,A,Pink_Noise_5_1.wav,Pink_Noise_5_2.wav,,,,,,,,,,,,,,,0,1,1,32,,,,,,,,,,,,,,,,,,,,,,,54.972179584001424,None,56.48217483400367,None,57.871693667002546,None,death,57.871693667002546,None,return,0.8900056659986149,57.955176209005,None,,,,,,,,,,,,,,,,,,,,,,,,,,,,,,,,,,,,,,,97,001,2023_May_11_1414,SpeechDraft1Carolyn_lessNoise_PlusLocalization,2021.2.3,59.847762254718575,
bribe.wav,bribe.mpg,bribe,5,AV,Pink_Noise_5_1.wav,Pink_Noise_5_2.wav,,,,,,,,,,,,,,,0,2,2,107,,,,,,,,,,,,,,,,,,,,,,,58.87215500000457,None,60.384761334004,None,61.78880454200407,None,bribe,61.78880454200407,None,return,0.8771160830001463,61.87207670900534,None,,,,,,,,,,,,,,,,,,,,,,,,,,,,,,,,,,,,,,,97,001,2023_May_11_1414,SpeechDraft1Carolyn_lessNoise_PlusLocalization,2021.2.3,59.847762254718575,
bass.wav,bass.mpg,bass,6,AV,Pink_Noise_6_1.wav,Pink_Noise_6_2.wav,,,,,,,,,,,,,,,0,3,3,104,,,,,,,,,,,,,,,,,,,,,,,62.77160420900327,None,64.28156783400482,None,65.67165883400594,None,base,65.67165883400594,None,return,0.6657827919989359,65.75544245900528,None,,,,,,,,,,,,,,,,,,,,,,,,,,,,,,,,,,,,,,,97,001,2023_May_11_1414,SpeechDraft1Carolyn_lessNoise_PlusLocalization,2021.2.3,59.847762254718575,
coup.wav,coup.mpg,coup,1,A,Pink_Noise_1_1.wav,Pink_Noise_1_2.wav,,,,,,,,,,,,,,,0,4,4,57,,,,,,,,,,,,,,,,,,,,,,,66.43918787500297,None,67.95008166700427,None,69.33858250000048,None,coup,69.33858250000048,None,return,1.527061374996265,69.42229358400073,None,,,,,,,,,,,,,,,,,,,,,,,,,,,,,,,,,,,,,,,97,001,2023_May_11_1414,SpeechDraft1Carolyn_lessNoise_PlusLocalization,2021.2.3,59.847762254718575,
fade.wav,fade.mpg,fade,1,A,Pink_Noise_1_1.wav,Pink_Noise_1_2.wav,,,,,,,,,,,,,,,0,5,5,23,,,,,,,,,,,,,,,,,,,,,,,70.97202229200047,None,72.48901312499947,None,73.88833700000396,None,fae,73.88833700000396,None,return,0.921137416997226,73.97214966700267,None,,,,,,,,,,,,,,,,,,,,,,,,,,,,,,,,,,,,,,,97,001,2023_May_11_1414,SpeechDraft1Carolyn_lessNoise_PlusLocalization,2021.2.3,59.847762254718575,
boss.wav,boss.mpg,boss,6,A,Pink_Noise_6_1.wav,Pink_Noise_6_2.wav,,,,,,,,,,,,,,,0,6,6,24,,,,,,,,,,,,,,,,,,,,,,,74.92309337500046,None,76.43502983399958,None,77.83893775000615,None,ash,77.83893775000615,None,return,0.5079489170020679,77.90536741699907,None,,,,,,,,,,,,,,,,,,,,,,,,,,,,,,,,,,,,,,,97,001,2023_May_11_1414,SpeechDraft1Carolyn_lessNoise_PlusLocalization,2021.2.3,59.847762254718575,
brown.wav,brown.mpg,brown,4,A,Pink_Noise_4_1.wav,Pink_Noise_4_2.wav,,,,,,,,,,,,,,,0,7,7,29,,,,,,,,,,,,,,,,,,,,,,,78.43856425000558,None,79.9544499170006,None,81.35530695900525,None,drum,81.35530695900525,None,return,1.182131000001391,81.43921858400427,None,,,,,,,,,,,,,,,,,,,,,,,,,,,,,,,,,,,,,,,97,001,2023_May_11_1414,SpeechDraft1Carolyn_lessNoise_PlusLocalization,2021.2.3,59.847762254718575,
teen.wav,teen.mpg,teen,1,AV,Pink_Noise_1_1.wav,Pink_Noise_1_2.wav,,,,,,,,,,,,,,,0,8,8,90,,,,,,,,,,,,,,,,,,,,,,,82.63963687499927,None,84.15410958400025,None,85.55526916700182,None,teen,85.55526916700182,None,return,1.0549905840016436,85.62240875000134,None,,,,,,,,,,,,,,,,,,,,,,,,,,,,,,,,,,,,,,,97,001,2023_May_11_1414,SpeechDraft1Carolyn_lessNoise_PlusLocalization,2021.2.3,59.847762254718575,
greed.wav,greed.mpg,greed,3,A,Pink_Noise_3_1.wav,Pink_Noise_3_2.wav,,,,,,,,,,,,,,,0,9,9,51,,,,,,,,,,,,,,,,,,,,,,,86.70515379200515,None,88.22381933400175,None,89.62206191700534,None,greed,89.62206191700534,None,return,1.228230540997174,89.70518599999923,None,,,,,,,,,,,,,,,,,,,,,,,,,,,,,,,,,,,,,,,97,001,2023_May_11_1414,SpeechDraft1Carolyn_lessNoise_PlusLocalization,2021.2.3,59.847762254718575,
climb.wav,climb.mpg,climb,3,AV,Pink_Noise_3_1.wav,Pink_Noise_3_2.wav,,,,,,,,,,,,,,,0,10,10,88,,,,,,,,,,,,,,,,,,,,,,,90.95534879200568,None,92.47452404200158,None,93.87193454200315,None,climb,93.87193454200315,None,return,2.0898150419961894,93.95558341700234,None,,,,,,,,,,,,,,,,,,,,,,,,,,,,,,,,,,,,,,,97,001,2023_May_11_1414,SpeechDraft1Carolyn_lessNoise_PlusLocalization,2021.2.3,59.847762254718575,
grain.wav,grain.mpg,grain,5,A,Pink_Noise_5_1.wav,Pink_Noise_5_2.wav,,,,,,,,,,,,,,,0,11,11,11,,,,,,,,,,,,,,,,,,,,,,,96.07188183400285,None,97.58974258400121,None,98.98845704200357,None,vain,98.98845704200357,None,return,0.7415107909982908,99.07192933400074,None,,,,,,,,,,,,,,,,,,,,,,,,,,,,,,,,,,,,,,,97,001,2023_May_11_1414,SpeechDraft1Carolyn_lessNoise_PlusLocalization,2021.2.3,59.847762254718575,
ease.wav,ease.mpg,ease,4,AV,Pink_Noise_4_1.wav,Pink_Noise_4_2.wav,,,,,,,,,,,,,,,0,12,12,101,,,,,,,,,,,,,,,,,,,,,,,99.83838074999949,None,101.35803979200136,None,102.75519458400231,None,ease,102.75519458400231,None,return,0.6142328749992885,102.8392453750057,None,,,,,,,,,,,,,,,,,,,,,,,,,,,,,,,,,,,,,,,97,001,2023_May_11_1414,SpeechDraft1Carolyn_lessNoise_PlusLocalization,2021.2.3,59.847762254718575,
crowd.wav,crowd.mpg,crowd,6,AV,Pink_Noise_6_1.wav,Pink_Noise_6_2.wav,,,,,,,,,,,,,,,0,13,13,110,,,,,,,,,,,,,,,,,,,,,,,103.47253583400015,None,104.98924550000083,None,106.38875841700064,None,cry,106.38875841700064,None,return,2.8930133750036475,106.47251987500204,None,,,,,,,,,,,,,,,,,,,,,,,,,,,,,,,,,,,,,,,97,001,2023_May_11_1414,SpeechDraft1Carolyn_lessNoise_PlusLocalization,2021.2.3,59.847762254718575,
east.wav,east.mpg,east,6,AV,Pink_Noise_6_1.wav,Pink_Noise_6_2.wav,,,,,,,,,,,,,,,0,14,14,85,,,,,,,,,,,,,,,,,,,,,,,109.38852995900379,None,110.90932095899916,None,112.30533229200228,None,"eat
",112.30533229200228,None,return,0.5845425000006799,112.38896495900553,None,,,,,,,,,,,,,,,,,,,,,,,,,,,,,,,,,,,,,,,97,001,2023_May_11_1414,SpeechDraft1Carolyn_lessNoise_PlusLocalization,2021.2.3,59.847762254718575,
cow.wav,cow.mpg,cow,3,AV,Pink_Noise_3_1.wav,Pink_Noise_3_2.wav,,,,,,,,,,,,,,,0,15,15,78,,,,,,,,,,,,,,,,,,,,,,,113.0053457920003,None,114.52981808400364,None,115.92253991700272,None,call,115.92253991700272,None,return,7.983039040998847,116.00652154200361,None,,,,,,,,,,,,,,,,,,,,,,,,,,,,,,,,,,,,,,,97,001,2023_May_11_1414,SpeechDraft1Carolyn_lessNoise_PlusLocalization,2021.2.3,59.847762254718575,
grind.wav,grind.mpg,grind,2,AV,Pink_Noise_2_1.wav,Pink_Noise_2_2.wav,,,,,,,,,,,,,,,0,16,16,118,,,,,,,,,,,,,,,,,,,,,,,124.00654383400251,None,125.53348795900092,None,126.92253429200355,None,grind,126.92253429200355,None,return,0.7200431250021211,127.00554683399969,None,,,,,,,,,,,,,,,,,,,,,,,,,,,,,,,,,,,,,,,97,001,2023_May_11_1414,SpeechDraft1Carolyn_lessNoise_PlusLocalization,2021.2.3,59.847762254718575,
base.wav,base.mpg,base,2,AV,Pink_Noise_2_1.wav,Pink_Noise_2_2.wav,,,,,,,,,,,,,,,0,17,17,106,,,,,,,,,,,,,,,,,,,,,,,127.75571833400318,None,129.27734733400575,None,130.67236045900063,None,base,130.67236045900063,None,return,0.9222634170000674,130.75537779200386,None,,,,,,,,,,,,,,,,,,,,,,,,,,,,,,,,,,,,,,,97,001,2023_May_11_1414,SpeechDraft1Carolyn_lessNoise_PlusLocalization,2021.2.3,59.847762254718575,
brief.wav,brief.mpg,brief,5,AV,Pink_Noise_5_1.wav,Pink_Noise_5_2.wav,,,,,,,,,,,,,,,0,18,18,86,,,,,,,,,,,,,,,,,,,,,,,131.7053076250013,None,133.22736533400166,None,134.62288300000364,None,brief,134.62288300000364,None,return,0.9162846660037758,134.70540629199968,None,,,,,,,,,,,,,,,,,,,,,,,,,,,,,,,,,,,,,,,97,001,2023_May_11_1414,SpeechDraft1Carolyn_lessNoise_PlusLocalization,2021.2.3,59.847762254718575,
gas.wav,gas.mpg,gas,4,A,Pink_Noise_4_1.wav,Pink_Noise_4_2.wav,,,,,,,,,,,,,,,0,19,19,42,,,,,,,,,,,,,,,,,,,,,,,135.63985270900594,None,137.1652957500046,None,138.55591366700537,None,gas,138.55591366700537,None,return,1.7426622499988298,138.6390694590009,None,,,,,,,,,,,,,,,,,,,,,,,,,,,,,,,,,,,,,,,97,001,2023_May_11_1414,SpeechDraft1Carolyn_lessNoise_PlusLocalization,2021.2.3,59.847762254718575,
shrimp.wav,shrimp.mpg,shrimp,1,AV,Pink_Noise_1_1.wav,Pink_Noise_1_2.wav,,,,,,,,,,,,,,,0,20,20,89,,,,,,,,,,,,,,,,,,,,,,,140.40537079200294,None,141.9309494170011,None,143.32235370900162,None,shrimo,143.32235370900162,None,return,2.127688082997338,143.40610337500402,None,,,,,,,,,,,,,,,,,,,,,,,,,,,,,,,,,,,,,,,97,001,2023_May_11_1414,SpeechDraft1Carolyn_lessNoise_PlusLocalization,2021.2.3,59.847762254718575,
feast.wav,feast.mpg,feast,6,AV,Pink_Noise_6_1.wav,Pink_Noise_6_2.wav,,,,,,,,,,,,,,,0,21,21,67,,,,,,,,,,,,,,,,,,,,,,,145.55565479200595,None,147.0827727920041,None,148.47233950000373,None,feet,148.47233950000373,None,return,0.8579297089963802,148.5558461670007,None,,,,,,,,,,,,,,,,,,,,,,,,,,,,,,,,,,,,,,,97,001,2023_May_11_1414,SpeechDraft1Carolyn_lessNoise_PlusLocalization,2021.2.3,59.847762254718575,
cube.wav,cube.mpg,cube,5,A,Pink_Noise_5_1.wav,Pink_Noise_5_2.wav,,,,,,,,,,,,,,,0,22,22,9,,,,,,,,,,,,,,,,,,,,,,,149.4394301249995,None,150.96991949999938,None,152.37209904200427,None,cue,152.37209904200427,None,return,0.9342994170001475,152.45545487500203,None,,,,,,,,,,,,,,,,,,,,,,,,,,,,,,,,,,,,,,,97,001,2023_May_11_1414,SpeechDraft1Carolyn_lessNoise_PlusLocalization,2021.2.3,59.847762254718575,
beast.wav,beast.mpg,beast,2,AV,Pink_Noise_2_1.wav,Pink_Noise_2_2.wav,,,,,,,,,,,,,,,0,23,23,105,,,,,,,,,,,,,,,,,,,,,,,153.422208709002,None,154.95090004200028,None,156.33871250000084,None,besat,156.33871250000084,None,return,0.8394424170037382,156.4223364999998,None,,,,,,,,,,,,,,,,,,,,,,,,,,,,,,,,,,,,,,,97,001,2023_May_11_1414,SpeechDraft1Carolyn_lessNoise_PlusLocalization,2021.2.3,59.847762254718575,
crime.wav,crime.mpg,crime,2,A,Pink_Noise_2_1.wav,Pink_Noise_2_2.wav,,,,,,,,,,,,,,,0,24,24,53,,,,,,,,,,,,,,,,,,,,,,,157.28891575000307,None,158.815838292001,None,160.2061860419999,None,crime,160.2061860419999,None,return,1.1244083330020658,160.28942000000097,None,,,,,,,,,,,,,,,,,,,,,,,,,,,,,,,,,,,,,,,97,001,2023_May_11_1414,SpeechDraft1Carolyn_lessNoise_PlusLocalization,2021.2.3,59.847762254718575,
float.wav,float.mpg,float,6,AV,Pink_Noise_6_1.wav,Pink_Noise_6_2.wav,,,,,,,,,,,,,,,0,25,25,119,,,,,,,,,,,,,,,,,,,,,,,161.43895562500256,None,162.9670398340022,None,164.35563475000527,None,float,164.35563475000527,None,return,0.9112466250007856,164.43863770900498,None,,,,,,,,,,,,,,,,,,,,,,,,,,,,,,,,,,,,,,,97,001,2023_May_11_1414,SpeechDraft1Carolyn_lessNoise_PlusLocalization,2021.2.3,59.847762254718575,
rent.wav,rent.mpg,rent,4,AV,Pink_Noise_4_1.wav,Pink_Noise_4_2.wav,,,,,,,,,,,,,,,0,26,26,80,,,,,,,,,,,,,,,,,,,,,,,165.37267716700444,None,166.90552754200326,None,168.30603612500272,None,"wet
",168.30603612500272,None,return,2.9692730829992797,168.38860062500316,None,,,,,,,,,,,,,,,,,,,,,,,,,,,,,,,,,,,,,,,97,001,2023_May_11_1414,SpeechDraft1Carolyn_lessNoise_PlusLocalization,2021.2.3,59.847762254718575,
sake.wav,sake.mpg,sake,1,A,Pink_Noise_1_1.wav,Pink_Noise_1_2.wav,,,,,,,,,,,,,,,0,27,27,15,,,,,,,,,,,,,,,,,,,,,,,171.38897479200386,None,172.92278904200066,None,174.32224941700406,None,sick,174.32224941700406,None,return,0.8640305830049329,174.40591766700527,None,,,,,,,,,,,,,,,,,,,,,,,,,,,,,,,,,,,,,,,97,001,2023_May_11_1414,SpeechDraft1Carolyn_lessNoise_PlusLocalization,2021.2.3,59.847762254718575,
gown.wav,gown.mpg,gown,6,A,Pink_Noise_6_1.wav,Pink_Noise_6_2.wav,,,,,,,,,,,,,,,0,28,28,40,,,,,,,,,,,,,,,,,,,,,,,175.2895690840014,None,176.82270216700272,None,178.22274912500143,None,war,178.22274912500143,None,return,0.7406629999968573,178.3052725420057,None,,,,,,,,,,,,,,,,,,,,,,,,,,,,,,,,,,,,,,,97,001,2023_May_11_1414,SpeechDraft1Carolyn_lessNoise_PlusLocalization,2021.2.3,59.847762254718575,
fine.wav,fine.mpg,fine,2,A,Pink_Noise_2_1.wav,Pink_Noise_2_2.wav,,,,,,,,,,,,,,,0,29,29,37,,,,,,,,,,,,,,,,,,,,,,,179.07284054200136,None,180.60893775000295,None,182.00627804200485,None,find,182.00627804200485,None,return,0.74131762500474,182.08863025000028,None,,,,,,,,,,,,,,,,,,,,,,,,,,,,,,,,,,,,,,,97,001,2023_May_11_1414,SpeechDraft1Carolyn_lessNoise_PlusLocalization,2021.2.3,59.847762254718575,
grave.wav,grave.mpg,grave,2,A,Pink_Noise_2_1.wav,Pink_Noise_2_2.wav,,,,,,,,,,,,,,,0,30,30,56,,,,,,,,,,,,,,,,,,,,,,,182.85597070900258,None,184.39025212500565,None,185.78946362500574,None,grave,185.78946362500574,None,return,1.9095217499998398,185.87256308400538,None,,,,,,,,,,,,,,,,,,,,,,,,,,,,,,,,,,,,,,,97,001,2023_May_11_1414,SpeechDraft1Carolyn_lessNoise_PlusLocalization,2021.2.3,59.847762254718575,
flask.wav,flask.mpg,flask,2,A,Pink_Noise_2_1.wav,Pink_Noise_2_2.wav,,,,,,,,,,,,,,,0,31,31,22,,,,,,,,,,,,,,,,,,,,,,,187.80562183400616,None,189.34409354200034,None,190.738906958999,None,flask,190.738906958999,None,return,1.4639609169971664,190.82210425000085,None,,,,,,,,,,,,,,,,,,,,,,,,,,,,,,,,,,,,,,,97,001,2023_May_11_1414,SpeechDraft1Carolyn_lessNoise_PlusLocalization,2021.2.3,59.847762254718575,
grand.wav,grand.mpg,grand,4,A,Pink_Noise_4_1.wav,Pink_Noise_4_2.wav,,,,,,,,,,,,,,,0,32,32,33,,,,,,,,,,,,,,,,,,,,,,,192.3060513340024,None,193.84497612500127,None,195.23883879200002,None,brand,195.23883879200002,None,return,0.8189093749970198,195.32312062500569,None,,,,,,,,,,,,,,,,,,,,,,,,,,,,,,,,,,,,,,,97,001,2023_May_11_1414,SpeechDraft1Carolyn_lessNoise_PlusLocalization,2021.2.3,59.847762254718575,
foot.wav,foot.mpg,foot,1,A,Pink_Noise_1_1.wav,Pink_Noise_1_2.wav,,,,,,,,,,,,,,,0,33,33,31,,,,,,,,,,,,,,,,,,,,,,,196.17233112500253,None,197.7073629170045,None,199.1062760000059,None,foot,199.1062760000059,None,return,1.5371705840007053,199.18889358400338,None,,,,,,,,,,,,,,,,,,,,,,,,,,,,,,,,,,,,,,,97,001,2023_May_11_1414,SpeechDraft1Carolyn_lessNoise_PlusLocalization,2021.2.3,59.847762254718575,
slick.wav,slick.mpg,slick,2,AV,Pink_Noise_2_1.wav,Pink_Noise_2_2.wav,,,,,,,,,,,,,,,0,34,34,99,,,,,,,,,,,,,,,,,,,,,,,200.75586033400032,None,202.29092195900012,None,203.6896364589993,None,slick,203.6896364589993,None,return,1.0653222079999978,203.7727467920049,None,,,,,,,,,,,,,,,,,,,,,,,,,,,,,,,,,,,,,,,97,001,2023_May_11_1414,SpeechDraft1Carolyn_lessNoise_PlusLocalization,2021.2.3,59.847762254718575,
jam.wav,jam.mpg,jam,2,A,Pink_Noise_2_1.wav,Pink_Noise_2_2.wav,,,,,,,,,,,,,,,0,35,35,36,,,,,,,,,,,,,,,,,,,,,,,204.85668183400412,None,206.39265541700297,None,207.78873095900053,None,jam,207.78873095900053,None,return,1.2378143750029267,207.85627220899914,None,,,,,,,,,,,,,,,,,,,,,,,,,,,,,,,,,,,,,,,97,001,2023_May_11_1414,SpeechDraft1Carolyn_lessNoise_PlusLocalization,2021.2.3,59.847762254718575,
care.wav,care.mpg,care,3,A,Pink_Noise_3_1.wav,Pink_Noise_3_2.wav,,,,,,,,,,,,,,,0,36,36,19,,,,,,,,,,,,,,,,,,,,,,,209.12249587500264,None,210.6600250840056,None,212.0555747920007,None,care,212.0555747920007,None,return,0.7468014159967424,212.1393551250003,None,,,,,,,,,,,,,,,,,,,,,,,,,,,,,,,,,,,,,,,97,001,2023_May_11_1414,SpeechDraft1Carolyn_lessNoise_PlusLocalization,2021.2.3,59.847762254718575,
solve.wav,solve.mpg,solve,3,A,Pink_Noise_3_1.wav,Pink_Noise_3_2.wav,,,,,,,,,,,,,,,0,37,37,45,,,,,,,,,,,,,,,,,,,,,,,212.9062097920032,None,214.44828320899978,None,215.83957345900126,None,solve,215.83957345900126,None,return,2.596161875000689,215.92203875000268,None,,,,,,,,,,,,,,,,,,,,,,,,,,,,,,,,,,,,,,,97,001,2023_May_11_1414,SpeechDraft1Carolyn_lessNoise_PlusLocalization,2021.2.3,59.847762254718575,
druid.wav,druid.mpg,druid,3,A,Pink_Noise_3_1.wav,Pink_Noise_3_2.wav,,,,,,,,,,,,,,,0,38,38,30,,,,,,,,,,,,,,,,,,,,,,,218.53936225000507,None,220.08047562499996,None,221.47232700000313,None,jury,221.47232700000313,None,return,2.058970042002329,221.53929550000612,None,,,,,,,,,,,,,,,,,,,,,,,,,,,,,,,,,,,,,,,97,001,2023_May_11_1414,SpeechDraft1Carolyn_lessNoise_PlusLocalization,2021.2.3,59.847762254718575,
dune.wav,dune.mpg,dune,3,A,Pink_Noise_3_1.wav,Pink_Noise_3_2.wav,,,,,,,,,,,,,,,0,39,39,41,,,,,,,,,,,,,,,,,,,,,,,223.62227141699987,None,225.1615940000047,None,226.55548508400534,None,doom,226.55548508400534,None,return,2.094703875001869,226.63954320899938,None,,,,,,,,,,,,,,,,,,,,,,,,,,,,,,,,,,,,,,,97,001,2023_May_11_1414,SpeechDraft1Carolyn_lessNoise_PlusLocalization,2021.2.3,59.847762254718575,
file.wav,file.mpg,file,4,AV,Pink_Noise_4_1.wav,Pink_Noise_4_2.wav,,,,,,,,,,,,,,,0,40,40,94,,,,,,,,,,,,,,,,,,,,,,,228.7560411250015,None,230.3060959170034,None,231.7059584170056,None,"file
",231.7059584170056,None,return,1.017560375003086,231.78868670900556,None,,,,,,,,,,,,,,,,,,,,,,,,,,,,,,,,,,,,,,,97,001,2023_May_11_1414,SpeechDraft1Carolyn_lessNoise_PlusLocalization,2021.2.3,59.847762254718575,
budge.wav,budge.mpg,budge,3,A,Pink_Noise_3_1.wav,Pink_Noise_3_2.wav,,,,,,,,,,,,,,,0,41,41,59,,,,,,,,,,,,,,,,,,,,,,,232.8392344590029,None,234.3881116670018,None,235.78901650000626,None,bunc,235.78901650000626,None,return,0.9257103750060196,235.87261254199984,None,,,,,,,,,,,,,,,,,,,,,,,,,,,,,,,,,,,,,,,97,001,2023_May_11_1414,SpeechDraft1Carolyn_lessNoise_PlusLocalization,2021.2.3,59.847762254718575,
drip.wav,drip.mpg,drip,3,A,Pink_Noise_3_1.wav,Pink_Noise_3_2.wav,,,,,,,,,,,,,,,0,42,42,28,,,,,,,,,,,,,,,,,,,,,,,236.82255325000006,None,238.36842362500465,None,239.77262291700026,None,drift,239.77262291700026,None,return,1.662092708000273,239.85627858400403,None,,,,,,,,,,,,,,,,,,,,,,,,,,,,,,,,,,,,,,,97,001,2023_May_11_1414,SpeechDraft1Carolyn_lessNoise_PlusLocalization,2021.2.3,59.847762254718575,
gym.wav,gym.mpg,gym,5,AV,Pink_Noise_5_1.wav,Pink_Noise_5_2.wav,,,,,,,,,,,,,,,0,43,43,72,,,,,,,,,,,,,,,,,,,,,,,241.53938850000122,None,243.08225016700453,None,244.47250354200514,None,gym,244.47250354200514,None,return,1.4017312080031843,244.55659183399985,None,,,,,,,,,,,,,,,,,,,,,,,,,,,,,,,,,,,,,,,97,001,2023_May_11_1414,SpeechDraft1Carolyn_lessNoise_PlusLocalization,2021.2.3,59.847762254718575,
chef.wav,chef.mpg,chef,2,AV,Pink_Noise_2_1.wav,Pink_Noise_2_2.wav,,,,,,,,,,,,,,,0,44,44,73,,,,,,,,,,,,,,,,,,,,,,,245.98996083400561,None,247.5360287500007,None,248.93866837500536,None,chef,248.93866837500536,None,return,0.9361605000012787,249.02221108400408,None,,,,,,,,,,,,,,,,,,,,,,,,,,,,,,,,,,,,,,,97,001,2023_May_11_1414,SpeechDraft1Carolyn_lessNoise_PlusLocalization,2021.2.3,59.847762254718575,
draft.wav,draft.mpg,draft,3,AV,Pink_Noise_3_1.wav,Pink_Noise_3_2.wav,,,,,,,,,,,,,,,0,45,45,114,,,,,,,,,,,,,,,,,,,,,,,249.98902862500108,None,251.53771629200492,None,252.93964708400017,None,draft,252.93964708400017,None,return,1.256031291995896,253.0223530420044,None,,,,,,,,,,,,,,,,,,,,,,,,,,,,,,,,,,,,,,,97,001,2023_May_11_1414,SpeechDraft1Carolyn_lessNoise_PlusLocalization,2021.2.3,59.847762254718575,
ham.wav,ham.mpg,ham,2,AV,Pink_Noise_2_1.wav,Pink_Noise_2_2.wav,,,,,,,,,,,,,,,0,46,46,96,,,,,,,,,,,,,,,,,,,,,,,254.30584100000124,None,255.85730175000208,None,257.25637737500074,None,ham,257.25637737500074,None,return,0.8435157499989145,257.3389442500047,None,,,,,,,,,,,,,,,,,,,,,,,,,,,,,,,,,,,,,,,97,001,2023_May_11_1414,SpeechDraft1Carolyn_lessNoise_PlusLocalization,2021.2.3,59.847762254718575,
led.wav,led.mpg,led,5,AV,Pink_Noise_5_1.wav,Pink_Noise_5_2.wav,,,,,,,,,,,,,,,0,47,47,97,,,,,,,,,,,,,,,,,,,,,,,258.20589091700094,None,259.75415862500085,None,261.15586412500124,None,leg,261.15586412500124,None,return,0.4075703330017859,261.238837667006,None,,,,,,,,,,,,,,,,,,,,,,,,,,,,,,,,,,,,,,,97,001,2023_May_11_1414,SpeechDraft1Carolyn_lessNoise_PlusLocalization,2021.2.3,59.847762254718575,
globe.wav,globe.mpg,globe,4,A,Pink_Noise_4_1.wav,Pink_Noise_4_2.wav,,,,,,,,,,,,,,,0,48,48,13,,,,,,,,,,,,,,,,,,,,,,,261.6722737500022,None,263.2218811250059,None,264.62289254200005,None,globe,264.62289254200005,None,return,1.212857124999573,264.7056599170028,None,,,,,,,,,,,,,,,,,,,,,,,,,,,,,,,,,,,,,,,97,001,2023_May_11_1414,SpeechDraft1Carolyn_lessNoise_PlusLocalization,2021.2.3,59.847762254718575,
fence.wav,fence.mpg,fence,4,A,Pink_Noise_4_1.wav,Pink_Noise_4_2.wav,,,,,,,,,,,,,,,0,49,49,46,,,,,,,,,,,,,,,,,,,,,,,265.93975808400137,None,267.48734291700384,None,268.88931520900223,None,fence,268.88931520900223,None,return,0.8258963749976829,268.9726646670024,None,,,,,,,,,,,,,,,,,,,,,,,,,,,,,,,,,,,,,,,97,001,2023_May_11_1414,SpeechDraft1Carolyn_lessNoise_PlusLocalization,2021.2.3,59.847762254718575,
fuss.wav,fuss.mpg,fuss,6,A,Pink_Noise_6_1.wav,Pink_Noise_6_2.wav,,,,,,,,,,,,,,,0,50,50,8,,,,,,,,,,,,,,,,,,,,,,,269.8227140000017,None,271.37758925000526,None,272.772354834,None,fuss,272.772354834,None,return,1.5829040829994483,272.8556277090029,None,,,,,,,,,,,,,,,,,,,,,,,,,,,,,,,,,,,,,,,97,001,2023_May_11_1414,SpeechDraft1Carolyn_lessNoise_PlusLocalization,2021.2.3,59.847762254718575,
doom.wav,doom.mpg,doom,4,AV,Pink_Noise_4_1.wav,Pink_Noise_4_2.wav,,,,,,,,,,,,,,,0,51,51,68,,,,,,,,,,,,,,,,,,,,,,,274.4565135840021,None,276.0133643340014,None,277.4066887920053,None,doom,277.4066887920053,None,return,0.8448682090020156,277.48971666700527,None,,,,,,,,,,,,,,,,,,,,,,,,,,,,,,,,,,,,,,,97,001,2023_May_11_1414,SpeechDraft1Carolyn_lessNoise_PlusLocalization,2021.2.3,59.847762254718575,
drive.wav,drive.mpg,drive,1,A,Pink_Noise_1_1.wav,Pink_Noise_1_2.wav,,,,,,,,,,,,,,,0,52,52,54,,,,,,,,,,,,,,,,,,,,,,,278.3559143340026,None,279.91213425000024,None,281.3061352920049,None,drive,281.3061352920049,None,return,1.169545750002726,281.3890153340035,None,,,,,,,,,,,,,,,,,,,,,,,,,,,,,,,,,,,,,,,97,001,2023_May_11_1414,SpeechDraft1Carolyn_lessNoise_PlusLocalization,2021.2.3,59.847762254718575,
thief.wav,thief.mpg,thief,6,AV,Pink_Noise_6_1.wav,Pink_Noise_6_2.wav,,,,,,,,,,,,,,,0,53,53,111,,,,,,,,,,,,,,,,,,,,,,,282.5891639170004,None,284.14877537500433,None,285.5396958340061,None,leaf,285.5396958340061,None,return,0.9518674169958103,285.6227141670024,None,,,,,,,,,,,,,,,,,,,,,,,,,,,,,,,,,,,,,,,97,001,2023_May_11_1414,SpeechDraft1Carolyn_lessNoise_PlusLocalization,2021.2.3,59.847762254718575,
sue.wav,sue.mpg,sue,1,AV,Pink_Noise_1_1.wav,Pink_Noise_1_2.wav,,,,,,,,,,,,,,,0,54,54,92,,,,,,,,,,,,,,,,,,,,,,,286.60554308400606,None,288.16208220900444,None,289.55557791700267,None,sue,289.55557791700267,None,return,0.7193811670003925,289.6392095840056,None,,,,,,,,,,,,,,,,,,,,,,,,,,,,,,,,,,,,,,,97,001,2023_May_11_1414,SpeechDraft1Carolyn_lessNoise_PlusLocalization,2021.2.3,59.847762254718575,
flip.wav,flip.mpg,flip,3,AV,Pink_Noise_3_1.wav,Pink_Noise_3_2.wav,,,,,,,,,,,,,,,0,55,55,116,,,,,,,,,,,,,,,,,,,,,,,290.3897427500051,None,291.94763695900474,None,293.3393225000036,None,flip,293.3393225000036,None,return,0.9197177079986432,293.42291820900573,None,,,,,,,,,,,,,,,,,,,,,,,,,,,,,,,,,,,,,,,97,001,2023_May_11_1414,SpeechDraft1Carolyn_lessNoise_PlusLocalization,2021.2.3,59.847762254718575,
burn.wav,burn.mpg,burn,2,A,Pink_Noise_2_1.wav,Pink_Noise_2_2.wav,,,,,,,,,,,,,,,0,56,56,4,,,,,,,,,,,,,,,,,,,,,,,294.3732725840018,None,295.93409925000014,None,297.3229905840053,None,run,297.3229905840053,None,return,0.7042428749991814,297.40639795899915,None,,,,,,,,,,,,,,,,,,,,,,,,,,,,,,,,,,,,,,,97,001,2023_May_11_1414,SpeechDraft1Carolyn_lessNoise_PlusLocalization,2021.2.3,59.847762254718575,
crew.wav,crew.mpg,crew,2,A,Pink_Noise_2_1.wav,Pink_Noise_2_2.wav,,,,,,,,,,,,,,,0,57,57,18,,,,,,,,,,,,,,,,,,,,,,,298.13937666700076,None,299.70074800000293,None,301.0890954589995,None,"crew
",301.0890954589995,None,return,0.8343467079976108,301.1563039590037,None,,,,,,,,,,,,,,,,,,,,,,,,,,,,,,,,,,,,,,,97,001,2023_May_11_1414,SpeechDraft1Carolyn_lessNoise_PlusLocalization,2021.2.3,59.847762254718575,
cried.wav,cried.mpg,cried,1,AV,Pink_Noise_1_1.wav,Pink_Noise_1_2.wav,,,,,,,,,,,,,,,0,58,58,79,,,,,,,,,,,,,,,,,,,,,,,302.022423334005,None,303.5863241670013,None,304.9896778750044,None,cried,304.9896778750044,None,return,0.9580765829960001,305.0726676250051,None,,,,,,,,,,,,,,,,,,,,,,,,,,,,,,,,,,,,,,,97,001,2023_May_11_1414,SpeechDraft1Carolyn_lessNoise_PlusLocalization,2021.2.3,59.847762254718575,
due.wav,due.mpg,due,4,AV,Pink_Noise_4_1.wav,Pink_Noise_4_2.wav,,,,,,,,,,,,,,,0,59,59,87,,,,,,,,,,,,,,,,,,,,,,,306.05605983400164,None,307.61624533400027,None,309.0066538750034,None,zoo,309.0066538750034,None,return,1.5812079589959467,309.0895682920018,None,,,,,,,,,,,,,,,,,,,,,,,,,,,,,,,,,,,,,,,97,001,2023_May_11_1414,SpeechDraft1Carolyn_lessNoise_PlusLocalization,2021.2.3,59.847762254718575,
crank.wav,crank.mpg,crank,6,A,Pink_Noise_6_1.wav,Pink_Noise_6_2.wav,,,,,,,,,,,,,,,0,60,60,14,,,,,,,,,,,,,,,,,,,,,,,310.6900726669992,None,312.24905162500363,None,313.6398810840037,None,bunny,313.6398810840037,None,return,0.9800131670053815,313.7228079590059,None,,,,,,,,,,,,,,,,,,,,,,,,,,,,,,,,,,,,,,,97,001,2023_May_11_1414,SpeechDraft1Carolyn_lessNoise_PlusLocalization,2021.2.3,59.847762254718575,
clay.wav,clay.mpg,clay,6,A,Pink_Noise_6_1.wav,Pink_Noise_6_2.wav,,,,,,,,,,,,,,,0,61,61,25,,,,,,,,,,,,,,,,,,,,,,,314.72316583400243,None,316.2770512089992,None,317.67243145900284,None,flame,317.67243145900284,None,return,1.3149616250011604,317.7558582920028,None,,,,,,,,,,,,,,,,,,,,,,,,,,,,,,,,,,,,,,,97,001,2023_May_11_1414,SpeechDraft1Carolyn_lessNoise_PlusLocalization,2021.2.3,59.847762254718575,
thorn.wav,thorn.mpg,thorn,3,AV,Pink_Noise_3_1.wav,Pink_Noise_3_2.wav,,,,,,,,,,,,,,,0,62,62,115,,,,,,,,,,,,,,,,,,,,,,,319.0901922500052,None,320.65161266700306,None,322.039384417003,None,thorn,322.039384417003,None,return,1.036073666997254,322.1227373340007,None,,,,,,,,,,,,,,,,,,,,,,,,,,,,,,,,,,,,,,,97,001,2023_May_11_1414,SpeechDraft1Carolyn_lessNoise_PlusLocalization,2021.2.3,59.847762254718575,
quit.wav,quit.mpg,quit,6,AV,Pink_Noise_6_1.wav,Pink_Noise_6_2.wav,,,,,,,,,,,,,,,0,63,63,91,,,,,,,,,,,,,,,,,,,,,,,323.18925770900387,None,324.75065045900556,None,326.13974491700355,None,"quest
",326.13974491700355,None,return,1.3838242079946212,326.22299008400296,None,,,,,,,,,,,,,,,,,,,,,,,,,,,,,,,,,,,,,,,97,001,2023_May_11_1414,SpeechDraft1Carolyn_lessNoise_PlusLocalization,2021.2.3,59.847762254718575,
bed.wav,bed.mpg,bed,3,AV,Pink_Noise_3_1.wav,Pink_Noise_3_2.wav,,,,,,,,,,,,,,,0,64,64,60,,,,,,,,,,,,,,,,,,,,,,,327.6391294589994,None,329.2066951670058,None,330.60700650000217,None,beg,330.60700650000217,None,return,0.5733705000020564,330.68953379199957,None,,,,,,,,,,,,,,,,,,,,,,,,,,,,,,,,,,,,,,,97,001,2023_May_11_1414,SpeechDraft1Carolyn_lessNoise_PlusLocalization,2021.2.3,59.847762254718575,
brain.wav,brain.mpg,brain,4,A,Pink_Noise_4_1.wav,Pink_Noise_4_2.wav,,,,,,,,,,,,,,,0,65,65,48,,,,,,,,,,,,,,,,,,,,,,,331.289332750006,None,332.8522471670003,None,334.23980145899986,None,rain,334.23980145899986,None,return,0.5242920409946237,334.32260329199926,None,,,,,,,,,,,,,,,,,,,,,,,,,,,,,,,,,,,,,,,97,001,2023_May_11_1414,SpeechDraft1Carolyn_lessNoise_PlusLocalization,2021.2.3,59.847762254718575,
crush.wav,crush.mpg,crush,2,A,Pink_Noise_2_1.wav,Pink_Noise_2_2.wav,,,,,,,,,,,,,,,0,66,66,5,,,,,,,,,,,,,,,,,,,,,,,334.87287391700374,None,336.4411629590031,None,337.83916200000385,None,crush,337.83916200000385,None,return,1.108357958997658,337.92260008400626,None,,,,,,,,,,,,,,,,,,,,,,,,,,,,,,,,,,,,,,,97,001,2023_May_11_1414,SpeechDraft1Carolyn_lessNoise_PlusLocalization,2021.2.3,59.847762254718575,
swamp.wav,swamp.mpg,swamp,4,AV,Pink_Noise_4_1.wav,Pink_Noise_4_2.wav,,,,,,,,,,,,,,,0,67,67,64,,,,,,,,,,,,,,,,,,,,,,,339.05596954200155,None,340.62245129200164,None,342.0231433750014,None,swamp,342.0231433750014,None,return,0.8607761660023243,342.1061970420051,None,,,,,,,,,,,,,,,,,,,,,,,,,,,,,,,,,,,,,,,97,001,2023_May_11_1414,SpeechDraft1Carolyn_lessNoise_PlusLocalization,2021.2.3,59.847762254718575,
bush.wav,bush.mpg,bush,1,A,Pink_Noise_1_1.wav,Pink_Noise_1_2.wav,,,,,,,,,,,,,,,0,68,68,49,,,,,,,,,,,,,,,,,,,,,,,342.98979099999997,None,344.555340292005,None,345.9565506250001,None,brush,345.9565506250001,None,return,0.8876217920042109,346.0393230000045,None,,,,,,,,,,,,,,,,,,,,,,,,,,,,,,,,,,,,,,,97,001,2023_May_11_1414,SpeechDraft1Carolyn_lessNoise_PlusLocalization,2021.2.3,59.847762254718575,
broke.wav,broke.mpg,broke,3,AV,Pink_Noise_3_1.wav,Pink_Noise_3_2.wav,,,,,,,,,,,,,,,0,69,69,103,,,,,,,,,,,,,,,,,,,,,,,346.956823667002,None,348.51935945900186,None,349.9226599169997,None,"broke
",349.9226599169997,None,return,1.0170942089971504,350.00587108400214,None,,,,,,,,,,,,,,,,,,,,,,,,,,,,,,,,,,,,,,,97,001,2023_May_11_1414,SpeechDraft1Carolyn_lessNoise_PlusLocalization,2021.2.3,59.847762254718575,
cake.wav,cake.mpg,cake,6,A,Pink_Noise_6_1.wav,Pink_Noise_6_2.wav,,,,,,,,,,,,,,,0,70,70,43,,,,,,,,,,,,,,,,,,,,,,,351.0561975000019,None,352.62245925000025,None,354.0226141669991,None,cook,354.0226141669991,None,return,1.1649214589997428,354.106096042,None,,,,,,,,,,,,,,,,,,,,,,,,,,,,,,,,,,,,,,,97,001,2023_May_11_1414,SpeechDraft1Carolyn_lessNoise_PlusLocalization,2021.2.3,59.847762254718575,
calm.wav,calm.mpg,calm,5,AV,Pink_Noise_5_1.wav,Pink_Noise_5_2.wav,,,,,,,,,,,,,,,0,71,71,95,,,,,,,,,,,,,,,,,,,,,,,355.2900435420015,None,356.86182637500315,None,358.2558576250012,None,calm,358.2558576250012,None,return,0.7154808339982992,358.3395795000033,None,,,,,,,,,,,,,,,,,,,,,,,,,,,,,,,,,,,,,,,97,001,2023_May_11_1414,SpeechDraft1Carolyn_lessNoise_PlusLocalization,2021.2.3,59.847762254718575,
bleed.wav,bleed.mpg,bleed,2,AV,Pink_Noise_2_1.wav,Pink_Noise_2_2.wav,,,,,,,,,,,,,,,0,72,72,102,,,,,,,,,,,,,,,,,,,,,,,359.07336841700453,None,360.64002562500536,None,362.0397987500037,None,bleed,362.0397987500037,None,return,0.9804239580043941,362.12269012500474,None,,,,,,,,,,,,,,,,,,,,,,,,,,,,,,,,,,,,,,,97,001,2023_May_11_1414,SpeechDraft1Carolyn_lessNoise_PlusLocalization,2021.2.3,59.847762254718575,
bench.wav,bench.mpg,bench,3,AV,Pink_Noise_3_1.wav,Pink_Noise_3_2.wav,,,,,,,,,,,,,,,0,73,73,77,,,,,,,,,,,,,,,,,,,,,,,363.1228381250039,None,364.69154512500245,None,366.0892562920053,None,"bench
",366.0892562920053,None,return,1.938124082997092,366.1729661249992,None,,,,,,,,,,,,,,,,,,,,,,,,,,,,,,,,,,,,,,,97,001,2023_May_11_1414,SpeechDraft1Carolyn_lessNoise_PlusLocalization,2021.2.3,59.847762254718575,
gab.wav,gab.mpg,gab,6,A,Pink_Noise_6_1.wav,Pink_Noise_6_2.wav,,,,,,,,,,,,,,,0,74,74,10,,,,,,,,,,,,,,,,,,,,,,,368.139471459006,None,369.70673116700345,None,371.1063870420039,None,"swine
",371.1063870420039,None,return,3.817810124994139,371.18929020900396,None,,,,,,,,,,,,,,,,,,,,,,,,,,,,,,,,,,,,,,,97,001,2023_May_11_1414,SpeechDraft1Carolyn_lessNoise_PlusLocalization,2021.2.3,59.847762254718575,
fan.wav,fan.mpg,fan,1,AV,Pink_Noise_1_1.wav,Pink_Noise_1_2.wav,,,,,,,,,,,,,,,0,75,75,83,,,,,,,,,,,,,,,,,,,,,,,375.03984300000593,None,376.61384275000455,None,378.0066312090057,None,fan,378.0066312090057,None,return,0.7659316249992116,378.0892676250005,None,,,,,,,,,,,,,,,,,,,,,,,,,,,,,,,,,,,,,,,97,001,2023_May_11_1414,SpeechDraft1Carolyn_lessNoise_PlusLocalization,2021.2.3,59.847762254718575,
bar.wav,bar.mpg,bar,6,A,Pink_Noise_6_1.wav,Pink_Noise_6_2.wav,,,,,,,,,,,,,,,0,76,76,35,,,,,,,,,,,,,,,,,,,,,,,378.8733489170045,None,380.4409189170037,None,381.8392577090053,None,sar,381.8392577090053,None,return,2.06057883399626,381.92263345900574,None,,,,,,,,,,,,,,,,,,,,,,,,,,,,,,,,,,,,,,,97,001,2023_May_11_1414,SpeechDraft1Carolyn_lessNoise_PlusLocalization,2021.2.3,59.847762254718575,
script.wav,script.mpg,script,1,AV,Pink_Noise_1_1.wav,Pink_Noise_1_2.wav,,,,,,,,,,,,,,,0,77,77,109,,,,,,,,,,,,,,,,,,,,,,,384.0064755839994,None,385.5752707499996,None,386.97296254200046,None,script,386.97296254200046,None,return,1.1752933750030934,387.0559625419992,None,,,,,,,,,,,,,,,,,,,,,,,,,,,,,,,,,,,,,,,97,001,2023_May_11_1414,SpeechDraft1Carolyn_lessNoise_PlusLocalization,2021.2.3,59.847762254718575,
bunch.wav,bunch.mpg,bunch,5,A,Pink_Noise_5_1.wav,Pink_Noise_5_2.wav,,,,,,,,,,,,,,,0,78,78,12,,,,,,,,,,,,,,,,,,,,,,,388.25598141700175,None,389.8328382920008,None,391.22297637500014,None,bunch,391.22297637500014,None,return,2.005653167005221,391.2896241250055,None,,,,,,,,,,,,,,,,,,,,,,,,,,,,,,,,,,,,,,,97,001,2023_May_11_1414,SpeechDraft1Carolyn_lessNoise_PlusLocalization,2021.2.3,59.847762254718575,
coast.wav,coast.mpg,coast,5,AV,Pink_Noise_5_1.wav,Pink_Noise_5_2.wav,,,,,,,,,,,,,,,0,79,79,66,,,,,,,,,,,,,,,,,,,,,,,393.3226628340053,None,394.89675975000137,None,396.28986870900553,None,coast,396.28986870900553,None,return,0.8268365420008195,396.37247658400156,None,,,,,,,,,,,,,,,,,,,,,,,,,,,,,,,,,,,,,,,97,001,2023_May_11_1414,SpeechDraft1Carolyn_lessNoise_PlusLocalization,2021.2.3,59.847762254718575,
dove.wav,dove.mpg,dove,6,A,Pink_Noise_6_1.wav,Pink_Noise_6_2.wav,,,,,,,,,,,,,,,0,80,80,21,,,,,,,,,,,,,,,,,,,,,,,397.22286316700047,None,398.79561937499966,None,400.1903404170007,None,dill,400.1903404170007,None,return,1.494726625001931,400.27262500000506,None,,,,,,,,,,,,,,,,,,,,,,,,,,,,,,,,,,,,,,,97,001,2023_May_11_1414,SpeechDraft1Carolyn_lessNoise_PlusLocalization,2021.2.3,59.847762254718575,
faith.wav,faith.mpg,faith,5,A,Pink_Noise_5_1.wav,Pink_Noise_5_2.wav,,,,,,,,,,,,,,,0,81,81,47,,,,,,,,,,,,,,,,,,,,,,,401.78926070900343,None,403.36688108400267,None,404.7565073750011,None,coat,404.7565073750011,None,return,0.9035707080038264,404.83973925000464,None,,,,,,,,,,,,,,,,,,,,,,,,,,,,,,,,,,,,,,,97,001,2023_May_11_1414,SpeechDraft1Carolyn_lessNoise_PlusLocalization,2021.2.3,59.847762254718575,
layer.wav,layer.mpg,layer,1,A,Pink_Noise_1_1.wav,Pink_Noise_1_2.wav,,,,,,,,,,,,,,,0,82,82,34,,,,,,,,,,,,,,,,,,,,,,,405.773016459003,None,407.3589280420056,None,408.7561047920026,None,layer,408.7561047920026,None,return,1.247127583999827,408.8402339170061,None,,,,,,,,,,,,,,,,,,,,,,,,,,,,,,,,,,,,,,,97,001,2023_May_11_1414,SpeechDraft1Carolyn_lessNoise_PlusLocalization,2021.2.3,59.847762254718575,
bear.wav,bear.mpg,bear,2,AV,Pink_Noise_2_1.wav,Pink_Noise_2_2.wav,,,,,,,,,,,,,,,0,83,83,70,,,,,,,,,,,,,,,,,,,,,,,410.1068825420007,None,411.6823125840019,None,413.07284483400144,None,bear,413.07284483400144,None,return,1.363335708003433,413.1561010000005,None,,,,,,,,,,,,,,,,,,,,,,,,,,,,,,,,,,,,,,,97,001,2023_May_11_1414,SpeechDraft1Carolyn_lessNoise_PlusLocalization,2021.2.3,59.847762254718575,
barge.wav,barge.mpg,barge,1,AV,Pink_Noise_1_1.wav,Pink_Noise_1_2.wav,,,,,,,,,,,,,,,0,84,84,84,,,,,,,,,,,,,,,,,,,,,,,414.539971875005,None,416.111995709005,None,417.50730741699954,None,barge,417.50730741699954,None,return,1.0737409169960301,417.5896631249998,None,,,,,,,,,,,,,,,,,,,,,,,,,,,,,,,,,,,,,,,97,001,2023_May_11_1414,SpeechDraft1Carolyn_lessNoise_PlusLocalization,2021.2.3,59.847762254718575,
bless.wav,bless.mpg,bless,1,A,Pink_Noise_1_1.wav,Pink_Noise_1_2.wav,,,,,,,,,,,,,,,0,85,85,1,,,,,,,,,,,,,,,,,,,,,,,418.6893540000019,None,420.2727961250057,None,421.67262804200436,None,less,421.67262804200436,None,return,2.6031594589949236,421.7561318340013,None,,,,,,,,,,,,,,,,,,,,,,,,,,,,,,,,,,,,,,,97,001,2023_May_11_1414,SpeechDraft1Carolyn_lessNoise_PlusLocalization,2021.2.3,59.847762254718575,
steam.wav,steam.mpg,steam,4,AV,Pink_Noise_4_1.wav,Pink_Noise_4_2.wav,,,,,,,,,,,,,,,0,86,86,81,,,,,,,,,,,,,,,,,,,,,,,424.389401542001,None,425.97083720900264,None,427.3732716670056,None,steam,427.3732716670056,None,return,0.9752718749950873,427.4562445000047,None,,,,,,,,,,,,,,,,,,,,,,,,,,,,,,,,,,,,,,,97,001,2023_May_11_1414,SpeechDraft1Carolyn_lessNoise_PlusLocalization,2021.2.3,59.847762254718575,
stove.wav,stove.mpg,stove,5,AV,Pink_Noise_5_1.wav,Pink_Noise_5_2.wav,,,,,,,,,,,,,,,0,87,87,63,,,,,,,,,,,,,,,,,,,,,,,428.4561586250056,None,430.04000174999965,None,431.44064804200025,None,stove,431.44064804200025,None,return,2.6125312089934596,431.52303591700183,None,,,,,,,,,,,,,,,,,,,,,,,,,,,,,,,,,,,,,,,97,001,2023_May_11_1414,SpeechDraft1Carolyn_lessNoise_PlusLocalization,2021.2.3,59.847762254718575,
bean.wav,bean.mpg,bean,6,AV,Pink_Noise_6_1.wav,Pink_Noise_6_2.wav,,,,,,,,,,,,,,,0,88,88,112,,,,,,,,,,,,,,,,,,,,,,,434.15633220900054,None,435.7381923339999,None,437.139865834004,None,meat,437.139865834004,None,return,0.7438660839980002,437.2236825,None,,,,,,,,,,,,,,,,,,,,,,,,,,,,,,,,,,,,,,,97,001,2023_May_11_1414,SpeechDraft1Carolyn_lessNoise_PlusLocalization,2021.2.3,59.847762254718575,
eve.wav,eve.mpg,eve,5,A,Pink_Noise_5_1.wav,Pink_Noise_5_2.wav,,,,,,,,,,,,,,,0,89,89,44,,,,,,,,,,,,,,,,,,,,,,,437.9900624590009,None,439.5682933749995,None,440.95673595900007,None,steam,440.95673595900007,None,return,0.9997294580025482,441.0398311250028,None,,,,,,,,,,,,,,,,,,,,,,,,,,,,,,,,,,,,,,,97,001,2023_May_11_1414,SpeechDraft1Carolyn_lessNoise_PlusLocalization,2021.2.3,59.847762254718575,
floor.wav,floor.mpg,floor,4,A,Pink_Noise_4_1.wav,Pink_Noise_4_2.wav,,,,,,,,,,,,,,,0,90,90,0,,,,,,,,,,,,,,,,,,,,,,,442.05680591700366,None,443.64428779200534,None,445.0400480840035,None,floor,445.0400480840035,None,return,1.2359970840043388,445.123555709004,None,,,,,,,,,,,,,,,,,,,,,,,,,,,,,,,,,,,,,,,97,001,2023_May_11_1414,SpeechDraft1Carolyn_lessNoise_PlusLocalization,2021.2.3,59.847762254718575,
truck.wav,truck.mpg,truck,5,A,Pink_Noise_5_1.wav,Pink_Noise_5_2.wav,,,,,,,,,,,,,,,0,91,91,17,,,,,,,,,,,,,,,,,,,,,,,446.39019154199923,None,447.97218191700085,None,449.37293487500574,None,truck,449.37293487500574,None,return,1.1993169589986792,449.4562820420033,None,,,,,,,,,,,,,,,,,,,,,,,,,,,,,,,,,,,,,,,97,001,2023_May_11_1414,SpeechDraft1Carolyn_lessNoise_PlusLocalization,2021.2.3,59.847762254718575,
pike.wav,pike.mpg,pike,3,A,Pink_Noise_3_1.wav,Pink_Noise_3_2.wav,,,,,,,,,,,,,,,0,92,92,39,,,,,,,,,,,,,,,,,,,,,,,450.6737157500029,None,452.2625542500027,None,453.65654216700204,None,hike,453.65654216700204,None,return,1.0675317919958616,453.7400656669997,None,,,,,,,,,,,,,,,,,,,,,,,,,,,,,,,,,,,,,,,97,001,2023_May_11_1414,SpeechDraft1Carolyn_lessNoise_PlusLocalization,2021.2.3,59.847762254718575,
glove.wav,glove.mpg,glove,3,AV,Pink_Noise_3_1.wav,Pink_Noise_3_2.wav,,,,,,,,,,,,,,,0,93,93,65,,,,,,,,,,,,,,,,,,,,,,,454.8394803340052,None,456.4260252919994,None,457.82360720900033,None,glove,457.82360720900033,None,return,0.9249747919966467,457.90668045900384,None,,,,,,,,,,,,,,,,,,,,,,,,,,,,,,,,,,,,,,,97,001,2023_May_11_1414,SpeechDraft1Carolyn_lessNoise_PlusLocalization,2021.2.3,59.847762254718575,
bare.wav,bare.mpg,bare,1,AV,Pink_Noise_1_1.wav,Pink_Noise_1_2.wav,,,,,,,,,,,,,,,0,94,94,93,,,,,,,,,,,,,,,,,,,,,,,458.8564457090033,None,460.4415524590004,None,461.83954479200474,None,bear,461.83954479200474,None,return,0.6364490000050864,461.9231765000004,None,,,,,,,,,,,,,,,,,,,,,,,,,,,,,,,,,,,,,,,97,001,2023_May_11_1414,SpeechDraft1Carolyn_lessNoise_PlusLocalization,2021.2.3,59.847762254718575,
glare.wav,glare.mpg,glare,5,A,Pink_Noise_5_1.wav,Pink_Noise_5_2.wav,,,,,,,,,,,,,,,0,95,95,20,,,,,,,,,,,,,,,,,,,,,,,462.589442084005,None,464.17723887500324,None,465.5728750000053,None,can,465.5728750000053,None,return,0.590813333998085,465.6568777920038,None,,,,,,,,,,,,,,,,,,,,,,,,,,,,,,,,,,,,,,,97,001,2023_May_11_1414,SpeechDraft1Carolyn_lessNoise_PlusLocalization,2021.2.3,59.847762254718575,
blimp.wav,blimp.mpg,blimp,3,A,Pink_Noise_3_1.wav,Pink_Noise_3_2.wav,,,,,,,,,,,,,,,0,96,96,38,,,,,,,,,,,,,,,,,,,,,,,466.27297000000544,None,467.86442658400483,None,469.25627804200485,None,lip,469.25627804200485,None,return,0.891686374998244,469.34007404200383,None,,,,,,,,,,,,,,,,,,,,,,,,,,,,,,,,,,,,,,,97,001,2023_May_11_1414,SpeechDraft1Carolyn_lessNoise_PlusLocalization,2021.2.3,59.847762254718575,
bleak.wav,bleak.mpg,bleak,1,AV,Pink_Noise_1_1.wav,Pink_Noise_1_2.wav,,,,,,,,,,,,,,,0,97,97,74,,,,,,,,,,,,,,,,,,,,,,,470.25654554200446,None,471.84606833400176,None,473.2406433750002,None,"bleak
",473.2406433750002,None,return,1.3003212500043446,473.3234058340022,None,,,,,,,,,,,,,,,,,,,,,,,,,,,,,,,,,,,,,,,97,001,2023_May_11_1414,SpeechDraft1Carolyn_lessNoise_PlusLocalization,2021.2.3,59.847762254718575,
flog.wav,flog.mpg,flog,2,A,Pink_Noise_2_1.wav,Pink_Noise_2_2.wav,,,,,,,,,,,,,,,0,98,98,26,,,,,,,,,,,,,,,,,,,,,,,474.6562460000059,None,476.24058820900245,None,477.63943395900424,None,frog,477.63943395900424,None,return,0.685036292001314,477.722715459,None,,,,,,,,,,,,,,,,,,,,,,,,,,,,,,,,,,,,,,,97,001,2023_May_11_1414,SpeechDraft1Carolyn_lessNoise_PlusLocalization,2021.2.3,59.847762254718575,
firm.wav,firm.mpg,firm,4,A,Pink_Noise_4_1.wav,Pink_Noise_4_2.wav,,,,,,,,,,,,,,,0,99,99,7,,,,,,,,,,,,,,,,,,,,,,,478.43961345900607,None,480.02349470899935,None,481.42332766700565,None,"churn
",481.42332766700565,None,return,3.3175478330012993,481.4902312500053,None,,,,,,,,,,,,,,,,,,,,,,,,,,,,,,,,,,,,,,,97,001,2023_May_11_1414,SpeechDraft1Carolyn_lessNoise_PlusLocalization,2021.2.3,59.847762254718575,
fuse.wav,fuse.mpg,fuse,2,AV,Pink_Noise_2_1.wav,Pink_Noise_2_2.wav,,,,,,,,,,,,,,,0,100,100,98,,,,,,,,,,,,,,,,,,,,,,,484.8395180840016,None,486.42758779200085,None,487.823008667001,None,fuse,487.823008667001,None,return,0.6537226669970551,487.90610591700533,None,,,,,,,,,,,,,,,,,,,,,,,,,,,,,,,,,,,,,,,97,001,2023_May_11_1414,SpeechDraft1Carolyn_lessNoise_PlusLocalization,2021.2.3,59.847762254718575,
bride.wav,bride.mpg,bride,5,A,Pink_Noise_5_1.wav,Pink_Noise_5_2.wav,,,,,,,,,,,,,,,0,101,101,6,,,,,,,,,,,,,,,,,,,,,,,488.5903402500044,None,490.18761345900566,None,491.5901651250024,None,sly,491.5901651250024,None,return,2.1663341250023223,491.6735576670035,None,,,,,,,,,,,,,,,,,,,,,,,,,,,,,,,,,,,,,,,97,001,2023_May_11_1414,SpeechDraft1Carolyn_lessNoise_PlusLocalization,2021.2.3,59.847762254718575,
fuel.wav,fuel.mpg,fuel,4,AV,Pink_Noise_4_1.wav,Pink_Noise_4_2.wav,,,,,,,,,,,,,,,0,102,102,117,,,,,,,,,,,,,,,,,,,,,,,493.8571941670016,None,495.44803116700496,None,496.840061875002,None,fued,496.840061875002,None,return,0.6205412909985171,496.9233397920034,None,,,,,,,,,,,,,,,,,,,,,,,,,,,,,,,,,,,,,,,97,001,2023_May_11_1414,SpeechDraft1Carolyn_lessNoise_PlusLocalization,2021.2.3,59.847762254718575,
chord.wav,chord.mpg,chord,4,AV,Pink_Noise_4_1.wav,Pink_Noise_4_2.wav,,,,,,,,,,,,,,,0,103,103,75,,,,,,,,,,,,,,,,,,,,,,,497.5731401250014,None,499.1615569170026,None,500.5573923750053,None,horde,500.5573923750053,None,return,1.9122289160004584,500.63974375000544,None,,,,,,,,,,,,,,,,,,,,,,,,,,,,,,,,,,,,,,,97,001,2023_May_11_1414,SpeechDraft1Carolyn_lessNoise_PlusLocalization,2021.2.3,59.847762254718575,
cheap.wav,cheap.mpg,cheap,1,AV,Pink_Noise_1_1.wav,Pink_Noise_1_2.wav,,,,,,,,,,,,,,,0,104,104,69,,,,,,,,,,,,,,,,,,,,,,,502.57318354200106,None,504.16809745900537,None,505.55618766700354,None,cheap,505.55618766700354,None,return,1.1041998749933555,505.6397260840022,None,,,,,,,,,,,,,,,,,,,,,,,,,,,,,,,,,,,,,,,97,001,2023_May_11_1414,SpeechDraft1Carolyn_lessNoise_PlusLocalization,2021.2.3,59.847762254718575,
cleft.wav,cleft.mpg,cleft,2,A,Pink_Noise_2_1.wav,Pink_Noise_2_2.wav,,,,,,,,,,,,,,,0,105,105,58,,,,,,,,,,,,,,,,,,,,,,,506.7732032500062,None,508.36477000000014,None,509.7573312090026,None,cleft,509.7573312090026,None,return,0.9757892909983639,509.8400810420062,None,,,,,,,,,,,,,,,,,,,,,,,,,,,,,,,,,,,,,,,97,001,2023_May_11_1414,SpeechDraft1Carolyn_lessNoise_PlusLocalization,2021.2.3,59.847762254718575,
tank.wav,tank.mpg,tank,6,A,Pink_Noise_6_1.wav,Pink_Noise_6_2.wav,,,,,,,,,,,,,,,0,106,106,50,,,,,,,,,,,,,,,,,,,,,,,510.83984116700594,None,512.4313416250006,None,513.8236519999991,None,nook,513.8236519999991,None,return,7.413774291002483,513.906285875004,None,,,,,,,,,,,,,,,,,,,,,,,,,,,,,,,,,,,,,,,97,001,2023_May_11_1414,SpeechDraft1Carolyn_lessNoise_PlusLocalization,2021.2.3,59.847762254718575,
dread.wav,dread.mpg,dread,6,AV,Pink_Noise_6_1.wav,Pink_Noise_6_2.wav,,,,,,,,,,,,,,,0,107,107,108,,,,,,,,,,,,,,,,,,,,,,,521.3401246670037,None,522.9346039590018,None,524.3232294590052,None,dry,524.3232294590052,None,return,1.8493514159999904,524.4067108340023,None,,,,,,,,,,,,,,,,,,,,,,,,,,,,,,,,,,,,,,,97,001,2023_May_11_1414,SpeechDraft1Carolyn_lessNoise_PlusLocalization,2021.2.3,59.847762254718575,
wound.wav,wound.mpg,wound,4,A,Pink_Noise_4_1.wav,Pink_Noise_4_2.wav,,,,,,,,,,,,,,,0,108,108,16,,,,,,,,,,,,,,,,,,,,,,,526.2739297090011,None,527.8752312500001,None,529.2738884589999,None,blew,529.2738884589999,None,return,2.1633424579995335,529.3567645000003,None,,,,,,,,,,,,,,,,,,,,,,,,,,,,,,,,,,,,,,,97,001,2023_May_11_1414,SpeechDraft1Carolyn_lessNoise_PlusLocalization,2021.2.3,59.847762254718575,
fraud.wav,fraud.mpg,fraud,4,AV,Pink_Noise_4_1.wav,Pink_Noise_4_2.wav,,,,,,,,,,,,,,,0,109,109,71,,,,,,,,,,,,,,,,,,,,,,,531.5400300000038,None,533.1351910000012,None,534.5231851249991,None,far,534.5231851249991,None,return,1.0495645420014625,534.6065419170045,None,,,,,,,,,,,,,,,,,,,,,,,,,,,,,,,,,,,,,,,97,001,2023_May_11_1414,SpeechDraft1Carolyn_lessNoise_PlusLocalization,2021.2.3,59.847762254718575,
cream.wav,cream.mpg,cream,5,AV,Pink_Noise_5_1.wav,Pink_Noise_5_2.wav,,,,,,,,,,,,,,,0,110,110,82,,,,,,,,,,,,,,,,,,,,,,,535.6739697090015,None,537.2683783340035,None,538.656746749999,None,screan,538.656746749999,None,return,2.6281170420043054,538.7400545420023,None,,,,,,,,,,,,,,,,,,,,,,,,,,,,,,,,,,,,,,,97,001,2023_May_11_1414,SpeechDraft1Carolyn_lessNoise_PlusLocalization,2021.2.3,59.847762254718575,
fish.wav,fish.mpg,fish,5,AV,Pink_Noise_5_1.wav,Pink_Noise_5_2.wav,,,,,,,,,,,,,,,0,111,111,76,,,,,,,,,,,,,,,,,,,,,,,541.3897240840015,None,542.9883451250062,None,544.3904529170031,None,fish,544.3904529170031,None,return,4.006178000003274,544.4740214590056,None,,,,,,,,,,,,,,,,,,,,,,,,,,,,,,,,,,,,,,,97,001,2023_May_11_1414,SpeechDraft1Carolyn_lessNoise_PlusLocalization,2021.2.3,59.847762254718575,
boot.wav,boot.mpg,boot,1,A,Pink_Noise_1_1.wav,Pink_Noise_1_2.wav,,,,,,,,,,,,,,,0,112,112,55,,,,,,,,,,,,,,,,,,,,,,,548.5067355420033,None,550.1094177920022,None,551.5070978750009,None,"boot
",551.5070978750009,None,return,0.8343812499952037,551.5898081250052,None,,,,,,,,,,,,,,,,,,,,,,,,,,,,,,,,,,,,,,,97,001,2023_May_11_1414,SpeechDraft1Carolyn_lessNoise_PlusLocalization,2021.2.3,59.847762254718575,
tear.wav,tear.mpg,tear,6,AV,Pink_Noise_6_1.wav,Pink_Noise_6_2.wav,,,,,,,,,,,,,,,0,113,113,62,,,,,,,,,,,,,,,,,,,,,,,552.4565900420057,None,554.0682938340033,None,555.4570758340051,None,stare,555.4570758340051,None,return,1.1245069590004277,555.5397524590007,None,,,,,,,,,,,,,,,,,,,,,,,,,,,,,,,,,,,,,,,97,001,2023_May_11_1414,SpeechDraft1Carolyn_lessNoise_PlusLocalization,2021.2.3,59.847762254718575,
grasp.wav,grasp.mpg,grasp,4,A,Pink_Noise_4_1.wav,Pink_Noise_4_2.wav,,,,,,,,,,,,,,,0,114,114,52,,,,,,,,,,,,,,,,,,,,,,,556.6897755419996,None,558.2879365000044,None,559.6902310000005,None,"grass
",559.6902310000005,None,return,1.834671790995344,559.7735804170006,None,,,,,,,,,,,,,,,,,,,,,,,,,,,,,,,,,,,,,,,97,001,2023_May_11_1414,SpeechDraft1Carolyn_lessNoise_PlusLocalization,2021.2.3,59.847762254718575,
duct.wav,duct.mpg,duct,3,AV,Pink_Noise_3_1.wav,Pink_Noise_3_2.wav,,,,,,,,,,,,,,,0,115,115,61,,,,,,,,,,,,,,,,,,,,,,,561.639784250001,None,563.2462636250057,None,564.6402045420036,None,ducked,564.6402045420036,None,return,5.316717792004056,564.7236139170054,None,,,,,,,,,,,,,,,,,,,,,,,,,,,,,,,,,,,,,,,97,001,2023_May_11_1414,SpeechDraft1Carolyn_lessNoise_PlusLocalization,2021.2.3,59.847762254718575,
check.wav,check.mpg,check,1,A,Pink_Noise_1_1.wav,Pink_Noise_1_2.wav,,,,,,,,,,,,,,,0,116,116,27,,,,,,,,,,,,,,,,,,,,,,,570.0572747500046,None,571.6617279170023,None,573.0565619170011,None,check,573.0565619170011,None,return,4.236136250001437,573.1402234590059,None,,,,,,,,,,,,,,,,,,,,,,,,,,,,,,,,,,,,,,,97,001,2023_May_11_1414,SpeechDraft1Carolyn_lessNoise_PlusLocalization,2021.2.3,59.847762254718575,
flu.wav,flu.mpg,flu,5,AV,Pink_Noise_5_1.wav,Pink_Noise_5_2.wav,,,,,,,,,,,,,,,0,117,117,100,,,,,,,,,,,,,,,,,,,,,,,577.4064886250053,None,579.0138785420058,None,580.4068450420018,None,fiid,580.4068450420018,None,return,1.0310897919989657,580.4733256670006,None,,,,,,,,,,,,,,,,,,,,,,,,,,,,,,,,,,,,,,,97,001,2023_May_11_1414,SpeechDraft1Carolyn_lessNoise_PlusLocalization,2021.2.3,59.847762254718575,
bright.wav,bright.mpg,bright,3,A,Pink_Noise_3_1.wav,Pink_Noise_3_2.wav,,,,,,,,,,,,,,,0,118,118,3,,,,,,,,,,,,,,,,,,,,,,,581.5237232090003,None,583.133186375002,None,584.5231756249996,None,right,584.5231756249996,None,return,0.8817991249961779,584.6066307090005,None,,,,,,,,,,,,,,,,,,,,,,,,,,,,,,,,,,,,,,,97,001,2023_May_11_1414,SpeechDraft1Carolyn_lessNoise_PlusLocalization,2021.2.3,59.847762254718575,
pledge.wav,pledge.mpg,pledge,2,AV,Pink_Noise_2_1.wav,Pink_Noise_2_2.wav,,,,,,,,,,,,,,,0,119,119,113,,,,,,,,,,,,,,,,,,,,,,,585.5072738750023,None,587.1177345000033,None,588.5063764590013,None,pledge,588.5063764590013,None,return,1.018636749999132,588.5897809170056,None,,,,,,,,,,,,,,,,,,,,,,,,,,,,,,,,,,,,,,,97,001,2023_May_11_1414,SpeechDraft1Carolyn_lessNoise_PlusLocalization,2021.2.3,59.847762254718575,
,,,,,,,,,,,,,,,,,,,,,,,,,,,,,,,,,,,,,,,,,,,,,,,,,,,,,,,,,,,,,,,,,,space,10.628019583004061,589.7245345840056,None,,,,,,,,,,,,,,,,,,,,,,,,,,,,,97,001,2023_May_11_1414,SpeechDraft1Carolyn_lessNoise_PlusLocalization,2021.2.3,59.847762254718575,
,,,,,,,,center,0.0,6,ch1Sound_localizationTask.wav,0.0,"(952, 878)","(-8,-202)",0,-338,,,,,,,,,0,0,0,3,,,,,,,,,,,,,,,,,,,,,,,,,,,,,,,,,,,,,,,,,,589.7245345840056,None,600.3737032920035,None,601.4707988340015,None,602.4016660840061,None,1.3851851851851853,2.2550663340007304,602.4016660840061,None,,,,,,,,,,,,,,,,,97,001,2023_May_11_1414,SpeechDraft1Carolyn_lessNoise_PlusLocalization,2021.2.3,59.847762254718575,
,,,,,,,,farRight,19.1,4,ch1Sound_localizationTask.wav,19.1,"(1237, 878)","(277,-202)",285,-338,,,,,,,,,0,1,1,6,,,,,,,,,,,,,,,,,,,,,,,,,,,,,,,,,,,,,,,,,,,,604.6735791669998,None,605.7689262500062,None,606.6907060840022,None,1.8423280423280424,0.9644089169960353,606.6907060840022,None,,,,,,,,,,,,,,,,,97,001,2023_May_11_1414,SpeechDraft1Carolyn_lessNoise_PlusLocalization,2021.2.3,59.847762254718575,
,,,,,,,,center,0.0,6,ch1Sound_localizationTask.wav,0.0,"(952, 878)","(-8,-202)",0,-338,,,,,,,,,0,2,2,3,,,,,,,,,,,,,,,,,,,,,,,,,,,,,,,,,,,,,,,,,,,,607.673485834006,None,608.7693373750008,None,609.6907156250018,None,1.433862433862434,1.2154998330006492,609.6907156250018,None,,,,,,,,,,,,,,,,,97,001,2023_May_11_1414,SpeechDraft1Carolyn_lessNoise_PlusLocalization,2021.2.3,59.847762254718575,
,,,,,,,,farLeft,-19.1,5,ch1Sound_localizationTask.wav,-19.1,"(667, 878)","(-293,-202)",-285,-338,,,,,,,,,0,3,3,0,,,,,,,,,,,,,,,,,,,,,,,,,,,,,,,,,,,,,,,,,,,,610.9234227920024,None,612.0180826670039,None,612.9408692920042,None,1.264021164021164,0.7140732499974547,612.9408692920042,None,,,,,,,,,,,,,,,,,97,001,2023_May_11_1414,SpeechDraft1Carolyn_lessNoise_PlusLocalization,2021.2.3,59.847762254718575,
,,,,,,,,farRight,19.1,4,ch1Sound_localizationTask.wav,19.1,"(1237, 878)","(277,-202)",285,-338,,,,,,,,,0,4,4,6,,,,,,,,,,,,,,,,,,,,,,,,,,,,,,,,,,,,,,,,,,,,613.6737741250035,None,614.769560959001,None,615.6907877500053,None,1.6973544973544974,0.8819102919951547,615.6907877500053,None,,,,,,,,,,,,,,,,,97,001,2023_May_11_1414,SpeechDraft1Carolyn_lessNoise_PlusLocalization,2021.2.3,59.847762254718575,
,,,,,,,,farRight,19.1,4,ch1Sound_localizationTask.wav,19.1,"(1237, 878)","(277,-202)",285,-338,,,,,,,,,0,5,5,6,,,,,,,,,,,,,,,,,,,,,,,,,,,,,,,,,,,,,,,,,,,,616.5906692089993,None,617.6853772920003,None,618.6072362090054,None,1.538095238095238,1.5648503330012318,618.6072362090054,None,,,,,,,,,,,,,,,,,97,001,2023_May_11_1414,SpeechDraft1Carolyn_lessNoise_PlusLocalization,2021.2.3,59.847762254718575,
,,,,,,,,nearLeft,-6.5,1,ch1Sound_localizationTask.wav,-6.5,"(857, 878)","(-103,-202)",-95,-338,,,,,,,,,0,6,6,2,,,,,,,,,,,,,,,,,,,,,,,,,,,,,,,,,,,,,,,,,,,,620.1898022500027,None,621.2854355420059,None,622.2072313750032,None,1.4825396825396826,0.9156467499997234,622.2072313750032,None,,,,,,,,,,,,,,,,,97,001,2023_May_11_1414,SpeechDraft1Carolyn_lessNoise_PlusLocalization,2021.2.3,59.847762254718575,
,,,,,,,,midLeft,-13.0,2,ch1Sound_localizationTask.wav,-13.0,"(762, 878)","(-198,-202)",-190,-338,,,,,,,,,1,0,7,1,,,,,,,,,,,,,,,,,,,,,,,,,,,,,,,,,,,,,,,,,,,,623.1411072920018,None,624.2354797090011,None,625.157081917001,None,1.4105820105820106,0.8141455420045531,625.157081917001,None,,,,,,,,,,,,,,,,,97,001,2023_May_11_1414,SpeechDraft1Carolyn_lessNoise_PlusLocalization,2021.2.3,59.847762254718575,
,,,,,,,,farLeft,-19.1,5,ch1Sound_localizationTask.wav,-19.1,"(667, 878)","(-293,-202)",-285,-338,,,,,,,,,1,1,8,0,,,,,,,,,,,,,,,,,,,,,,,,,,,,,,,,,,,,,,,,,,,,625.9902539169998,None,627.0859118340013,None,628.0071685000003,None,1.3465608465608465,0.8496384999962174,628.0071685000003,None,,,,,,,,,,,,,,,,,97,001,2023_May_11_1414,SpeechDraft1Carolyn_lessNoise_PlusLocalization,2021.2.3,59.847762254718575,
,,,,,,,,nearLeft,-6.5,1,ch1Sound_localizationTask.wav,-6.5,"(857, 878)","(-103,-202)",-95,-338,,,,,,,,,1,2,9,2,,,,,,,,,,,,,,,,,,,,,,,,,,,,,,,,,,,,,,,,,,,,628.8741337920001,None,629.968827167002,None,630.8903145000004,None,1.5037037037037035,0.7638934999995399,630.8903145000004,None,,,,,,,,,,,,,,,,,97,001,2023_May_11_1414,SpeechDraft1Carolyn_lessNoise_PlusLocalization,2021.2.3,59.847762254718575,
,,,,,,,,farLeft,-19.1,5,ch1Sound_localizationTask.wav,-19.1,"(667, 878)","(-293,-202)",-285,-338,,,,,,,,,1,3,10,0,,,,,,,,,,,,,,,,,,,,,,,,,,,,,,,,,,,,,,,,,,,,631.6736066670055,None,632.769968792003,None,633.6905363750047,None,1.319047619047619,0.6661125000027823,633.6905363750047,None,,,,,,,,,,,,,,,,,97,001,2023_May_11_1414,SpeechDraft1Carolyn_lessNoise_PlusLocalization,2021.2.3,59.847762254718575,
,,,,,,,,farRight,19.1,4,ch1Sound_localizationTask.wav,19.1,"(1237, 878)","(277,-202)",285,-338,,,,,,,,,1,4,11,6,,,,,,,,,,,,,,,,,,,,,,,,,,,,,,,,,,,,,,,,,,,,634.3737266250027,None,635.4690193749993,None,636.390610167,None,1.6333333333333333,0.5991472500027157,636.390610167,None,,,,,,,,,,,,,,,,,97,001,2023_May_11_1414,SpeechDraft1Carolyn_lessNoise_PlusLocalization,2021.2.3,59.847762254718575,
,,,,,,,,midRight,13.0,3,ch1Sound_localizationTask.wav,13.0,"(1142, 878)","(182, -202)",190,-338,,,,,,,,,1,5,12,5,,,,,,,,,,,,,,,,,,,,,,,,,,,,,,,,,,,,,,,,,,,,637.0072505839998,None,638.1022831670052,None,639.0239963339991,None,1.5164021164021164,0.5824184160010191,639.0239963339991,None,,,,,,,,,,,,,,,,,97,001,2023_May_11_1414,SpeechDraft1Carolyn_lessNoise_PlusLocalization,2021.2.3,59.847762254718575,
,,,,,,,,midLeft,-13.0,2,ch1Sound_localizationTask.wav,-13.0,"(762, 878)","(-198,-202)",-190,-338,,,,,,,,,1,6,13,1,,,,,,,,,,,,,,,,,,,,,,,,,,,,,,,,,,,,,,,,,,,,639.6232034589993,None,640.7191710420011,None,641.6407450000042,None,1.3005291005291006,0.5012854999949923,641.6407450000042,None,,,,,,,,,,,,,,,,,97,001,2023_May_11_1414,SpeechDraft1Carolyn_lessNoise_PlusLocalization,2021.2.3,59.847762254718575,
,,,,,,,,center,0.0,6,ch1Sound_localizationTask.wav,0.0,"(952, 878)","(-8,-202)",0,-338,,,,,,,,,2,0,14,3,,,,,,,,,,,,,,,,,,,,,,,,,,,,,,,,,,,,,,,,,,,,642.157377042,None,643.2521825840013,None,644.174176667002,None,1.5074074074074075,0.6336769580011605,644.174176667002,None,,,,,,,,,,,,,,,,,97,001,2023_May_11_1414,SpeechDraft1Carolyn_lessNoise_PlusLocalization,2021.2.3,59.847762254718575,
,,,,,,,,midLeft,-13.0,2,ch1Sound_localizationTask.wav,-13.0,"(762, 878)","(-198,-202)",-190,-338,,,,,,,,,2,1,15,1,,,,,,,,,,,,,,,,,,,,,,,,,,,,,,,,,,,,,,,,,,,,644.8235568750024,None,645.9178670420006,None,646.8409796670021,None,1.4079365079365078,0.8493027910008095,646.8409796670021,None,,,,,,,,,,,,,,,,,97,001,2023_May_11_1414,SpeechDraft1Carolyn_lessNoise_PlusLocalization,2021.2.3,59.847762254718575,
,,,,,,,,midRight,13.0,3,ch1Sound_localizationTask.wav,13.0,"(1142, 878)","(182, -202)",190,-338,,,,,,,,,2,2,16,5,,,,,,,,,,,,,,,,,,,,,,,,,,,,,,,,,,,,,,,,,,,,647.7068427920021,None,648.8015285420042,None,649.723851667004,None,1.5597883597883597,1.1157500829940545,649.723851667004,None,,,,,,,,,,,,,,,,,97,001,2023_May_11_1414,SpeechDraft1Carolyn_lessNoise_PlusLocalization,2021.2.3,59.847762254718575,
,,,,,,,,nearRight,6.5,0,ch1Sound_localizationTask.wav,6.5,"(1047, 878)","(87, -202)",95,-338,,,,,,,,,2,3,17,4,,,,,,,,,,,,,,,,,,,,,,,,,,,,,,,,,,,,,,,,,,,,650.8573045420053,None,651.9526617920055,None,652.8742061670055,None,1.4915343915343915,0.5647744999951101,652.8742061670055,None,,,,,,,,,,,,,,,,,97,001,2023_May_11_1414,SpeechDraft1Carolyn_lessNoise_PlusLocalization,2021.2.3,59.847762254718575,
,,,,,,,,nearLeft,-6.5,1,ch1Sound_localizationTask.wav,-6.5,"(857, 878)","(-103,-202)",-95,-338,,,,,,,,,2,4,18,2,,,,,,,,,,,,,,,,,,,,,,,,,,,,,,,,,,,,,,,,,,,,653.4567268750034,None,654.5526941670032,None,655.4740558340054,None,1.5031746031746032,0.8162262920013745,655.4740558340054,None,,,,,,,,,,,,,,,,,97,001,2023_May_11_1414,SpeechDraft1Carolyn_lessNoise_PlusLocalization,2021.2.3,59.847762254718575,
,,,,,,,,midLeft,-13.0,2,ch1Sound_localizationTask.wav,-13.0,"(762, 878)","(-198,-202)",-190,-338,,,,,,,,,2,5,19,1,,,,,,,,,,,,,,,,,,,,,,,,,,,,,,,,,,,,,,,,,,,,656.3072658750025,None,657.4022035420057,None,658.3242532090007,None,1.3973544973544973,0.7652462499972899,658.3242532090007,None,,,,,,,,,,,,,,,,,97,001,2023_May_11_1414,SpeechDraft1Carolyn_lessNoise_PlusLocalization,2021.2.3,59.847762254718575,
,,,,,,,,farRight,19.1,4,ch1Sound_localizationTask.wav,19.1,"(1237, 878)","(277,-202)",285,-338,,,,,,,,,2,6,20,6,,,,,,,,,,,,,,,,,,,,,,,,,,,,,,,,,,,,,,,,,,,,659.1069424590023,None,660.2011090420056,None,661.1243847500009,None,1.6095238095238096,0.6322602079962962,661.1243847500009,None,,,,,,,,,,,,,,,,,97,001,2023_May_11_1414,SpeechDraft1Carolyn_lessNoise_PlusLocalization,2021.2.3,59.847762254718575,
,,,,,,,,midLeft,-13.0,2,ch1Sound_localizationTask.wav,-13.0,"(762, 878)","(-198,-202)",-190,-338,,,,,,,,,3,0,21,1,,,,,,,,,,,,,,,,,,,,,,,,,,,,,,,,,,,,,,,,,,,,661.7736143750008,None,662.8676454170054,None,663.790538084002,None,1.3724867724867724,1.2506751249966328,663.790538084002,None,,,,,,,,,,,,,,,,,97,001,2023_May_11_1414,SpeechDraft1Carolyn_lessNoise_PlusLocalization,2021.2.3,59.847762254718575,
,,,,,,,,midRight,13.0,3,ch1Sound_localizationTask.wav,13.0,"(1142, 878)","(182, -202)",190,-338,,,,,,,,,3,1,22,5,,,,,,,,,,,,,,,,,,,,,,,,,,,,,,,,,,,,,,,,,,,,665.0570786669996,None,666.1521652500014,None,667.0742535000027,None,1.546031746031746,0.999733999997261,667.0742535000027,None,,,,,,,,,,,,,,,,,97,001,2023_May_11_1414,SpeechDraft1Carolyn_lessNoise_PlusLocalization,2021.2.3,59.847762254718575,
,,,,,,,,midRight,13.0,3,ch1Sound_localizationTask.wav,13.0,"(1142, 878)","(182, -202)",190,-338,,,,,,,,,3,2,23,5,,,,,,,,,,,,,,,,,,,,,,,,,,,,,,,,,,,,,,,,,,,,668.0901958750037,None,669.1837181250012,None,670.1076886670053,None,1.529100529100529,0.849019583001791,670.1076886670053,None,,,,,,,,,,,,,,,,,97,001,2023_May_11_1414,SpeechDraft1Carolyn_lessNoise_PlusLocalization,2021.2.3,59.847762254718575,
,,,,,,,,nearLeft,-6.5,1,ch1Sound_localizationTask.wav,-6.5,"(857, 878)","(-103,-202)",-95,-338,,,,,,,,,3,3,24,2,,,,,,,,,,,,,,,,,,,,,,,,,,,,,,,,,,,,,,,,,,,,670.9737052500059,None,672.0686553340056,None,672.9910045420038,None,1.46984126984127,0.9332375839949236,672.9910045420038,None,,,,,,,,,,,,,,,,,97,001,2023_May_11_1414,SpeechDraft1Carolyn_lessNoise_PlusLocalization,2021.2.3,59.847762254718575,
,,,,,,,,nearRight,6.5,0,ch1Sound_localizationTask.wav,6.5,"(1047, 878)","(87, -202)",95,-338,,,,,,,,,3,4,25,4,,,,,,,,,,,,,,,,,,,,,,,,,,,,,,,,,,,,,,,,,,,,673.9401722090042,None,675.0344121250018,None,675.9575945000033,None,1.4915343915343915,0.7334961250016931,675.9575945000033,None,,,,,,,,,,,,,,,,,97,001,2023_May_11_1414,SpeechDraft1Carolyn_lessNoise_PlusLocalization,2021.2.3,59.847762254718575,
,,,,,,,,midLeft,-13.0,2,ch1Sound_localizationTask.wav,-13.0,"(762, 878)","(-198,-202)",-190,-338,,,,,,,,,3,5,26,1,,,,,,,,,,,,,,,,,,,,,,,,,,,,,,,,,,,,,,,,,,,,676.7075575420022,None,677.8037574170012,None,678.7237457090014,None,1.4063492063492062,0.6834309580008266,678.7237457090014,None,,,,,,,,,,,,,,,,,97,001,2023_May_11_1414,SpeechDraft1Carolyn_lessNoise_PlusLocalization,2021.2.3,59.847762254718575,
,,,,,,,,midRight,13.0,3,ch1Sound_localizationTask.wav,13.0,"(1142, 878)","(182, -202)",190,-338,,,,,,,,,3,6,27,5,,,,,,,,,,,,,,,,,,,,,,,,,,,,,,,,,,,,,,,,,,,,679.4235484170058,None,680.5183730839999,None,681.4411920000057,None,1.5238095238095237,0.8141920830021263,681.4411920000057,None,,,,,,,,,,,,,,,,,97,001,2023_May_11_1414,SpeechDraft1Carolyn_lessNoise_PlusLocalization,2021.2.3,59.847762254718575,
,,,,,,,,nearLeft,-6.5,1,ch1Sound_localizationTask.wav,-6.5,"(857, 878)","(-103,-202)",-95,-338,,,,,,,,,4,0,28,2,,,,,,,,,,,,,,,,,,,,,,,,,,,,,,,,,,,,,,,,,,,,682.274107792,None,683.3686675000063,None,684.2907990420063,None,1.4915343915343915,0.8502937909943284,684.2907990420063,None,,,,,,,,,,,,,,,,,97,001,2023_May_11_1414,SpeechDraft1Carolyn_lessNoise_PlusLocalization,2021.2.3,59.847762254718575,
,,,,,,,,nearLeft,-6.5,1,ch1Sound_localizationTask.wav,-6.5,"(857, 878)","(-103,-202)",-95,-338,,,,,,,,,4,1,29,2,,,,,,,,,,,,,,,,,,,,,,,,,,,,,,,,,,,,,,,,,,,,685.1570167090031,None,686.2529390000054,None,687.1742909170061,None,1.4962962962962962,0.530891459005943,687.1742909170061,None,,,,,,,,,,,,,,,,,97,001,2023_May_11_1414,SpeechDraft1Carolyn_lessNoise_PlusLocalization,2021.2.3,59.847762254718575,
,,,,,,,,farRight,19.1,4,ch1Sound_localizationTask.wav,19.1,"(1237, 878)","(277,-202)",285,-338,,,,,,,,,4,2,30,6,,,,,,,,,,,,,,,,,,,,,,,,,,,,,,,,,,,,,,,,,,,,687.7238138340035,None,688.8180895840051,None,689.7408954999992,None,1.6121693121693121,0.5157732080042479,689.7408954999992,None,,,,,,,,,,,,,,,,,97,001,2023_May_11_1414,SpeechDraft1Carolyn_lessNoise_PlusLocalization,2021.2.3,59.847762254718575,
,,,,,,,,farLeft,-19.1,5,ch1Sound_localizationTask.wav,-19.1,"(667, 878)","(-293,-202)",-285,-338,,,,,,,,,4,3,31,0,,,,,,,,,,,,,,,,,,,,,,,,,,,,,,,,,,,,,,,,,,,,690.2733552499994,None,691.3691818340012,None,692.2910380419999,None,1.3169312169312168,0.665198209004302,692.2910380419999,None,,,,,,,,,,,,,,,,,97,001,2023_May_11_1414,SpeechDraft1Carolyn_lessNoise_PlusLocalization,2021.2.3,59.847762254718575,
,,,,,,,,center,0.0,6,ch1Sound_localizationTask.wav,0.0,"(952, 878)","(-8,-202)",0,-338,,,,,,,,,4,4,32,3,,,,,,,,,,,,,,,,,,,,,,,,,,,,,,,,,,,,,,,,,,,,692.9742592920011,None,694.0678811670005,None,694.9908090000026,None,1.3328042328042329,0.8832860839975183,694.9908090000026,None,,,,,,,,,,,,,,,,,97,001,2023_May_11_1414,SpeechDraft1Carolyn_lessNoise_PlusLocalization,2021.2.3,59.847762254718575,
,,,,,,,,midRight,13.0,3,ch1Sound_localizationTask.wav,13.0,"(1142, 878)","(182, -202)",190,-338,,,,,,,,,4,5,33,5,,,,,,,,,,,,,,,,,,,,,,,,,,,,,,,,,,,,,,,,,,,,695.8903823750006,None,696.9853515840005,None,697.9073817919998,None,1.4873015873015873,0.7651780000014696,697.9073817919998,None,,,,,,,,,,,,,,,,,97,001,2023_May_11_1414,SpeechDraft1Carolyn_lessNoise_PlusLocalization,2021.2.3,59.847762254718575,
,,,,,,,,farRight,19.1,4,ch1Sound_localizationTask.wav,19.1,"(1237, 878)","(277,-202)",285,-338,,,,,,,,,4,6,34,6,,,,,,,,,,,,,,,,,,,,,,,,,,,,,,,,,,,,,,,,,,,,698.6905104590041,None,699.786115750001,None,700.7078058340048,None,1.6238095238095238,0.5176680420045159,700.7078058340048,None,,,,,,,,,,,,,,,,,97,001,2023_May_11_1414,SpeechDraft1Carolyn_lessNoise_PlusLocalization,2021.2.3,59.847762254718575,
,,,,,,,,nearRight,6.5,0,ch1Sound_localizationTask.wav,6.5,"(1047, 878)","(87, -202)",95,-338,,,,,,,,,5,0,35,4,,,,,,,,,,,,,,,,,,,,,,,,,,,,,,,,,,,,,,,,,,,,701.2404350840006,None,702.3351512920053,None,703.2577115840031,None,1.5037037037037035,1.249574041001324,703.2577115840031,None,,,,,,,,,,,,,,,,,97,001,2023_May_11_1414,SpeechDraft1Carolyn_lessNoise_PlusLocalization,2021.2.3,59.847762254718575,
,,,,,,,,midLeft,-13.0,2,ch1Sound_localizationTask.wav,-13.0,"(762, 878)","(-198,-202)",-190,-338,,,,,,,,,5,1,36,1,,,,,,,,,,,,,,,,,,,,,,,,,,,,,,,,,,,,,,,,,,,,704.5239133750001,None,705.6188935419996,None,706.5409125000006,None,1.3603174603174604,0.5330333749952842,706.5409125000006,None,,,,,,,,,,,,,,,,,97,001,2023_May_11_1414,SpeechDraft1Carolyn_lessNoise_PlusLocalization,2021.2.3,59.847762254718575,
,,,,,,,,center,0.0,6,ch1Sound_localizationTask.wav,0.0,"(952, 878)","(-8,-202)",0,-338,,,,,,,,,5,2,37,3,,,,,,,,,,,,,,,,,,,,,,,,,,,,,,,,,,,,,,,,,,,,707.0906955419996,None,708.1855993749996,None,709.1079146250049,None,1.4116402116402116,0.6818157919988153,709.1079146250049,None,,,,,,,,,,,,,,,,,97,001,2023_May_11_1414,SpeechDraft1Carolyn_lessNoise_PlusLocalization,2021.2.3,59.847762254718575,
,,,,,,,,midRight,13.0,3,ch1Sound_localizationTask.wav,13.0,"(1142, 878)","(182, -202)",190,-338,,,,,,,,,5,3,38,5,,,,,,,,,,,,,,,,,,,,,,,,,,,,,,,,,,,,,,,,,,,,709.8074140419994,None,710.9019429590044,None,711.8235437500043,None,1.4851851851851852,0.730655207997188,711.8235437500043,None,,,,,,,,,,,,,,,,,97,001,2023_May_11_1414,SpeechDraft1Carolyn_lessNoise_PlusLocalization,2021.2.3,59.847762254718575,
,,,,,,,,farLeft,-19.1,5,ch1Sound_localizationTask.wav,-19.1,"(667, 878)","(-293,-202)",-285,-338,,,,,,,,,5,4,39,0,,,,,,,,,,,,,,,,,,,,,,,,,,,,,,,,,,,,,,,,,,,,712.57382125,None,713.6683468750052,None,714.5909493750005,None,1.3264550264550263,0.8660050000034971,714.5909493750005,None,,,,,,,,,,,,,,,,,97,001,2023_May_11_1414,SpeechDraft1Carolyn_lessNoise_PlusLocalization,2021.2.3,59.847762254718575,
,,,,,,,,farLeft,-19.1,5,ch1Sound_localizationTask.wav,-19.1,"(667, 878)","(-293,-202)",-285,-338,,,,,,,,,5,5,40,0,,,,,,,,,,,,,,,,,,,,,,,,,,,,,,,,,,,,,,,,,,,,715.4739011670026,None,716.5690632090045,None,717.4910168339993,None,1.308994708994709,0.4980636669934029,717.4910168339993,None,,,,,,,,,,,,,,,,,97,001,2023_May_11_1414,SpeechDraft1Carolyn_lessNoise_PlusLocalization,2021.2.3,59.847762254718575,
,,,,,,,,nearRight,6.5,0,ch1Sound_localizationTask.wav,6.5,"(1047, 878)","(87, -202)",95,-338,,,,,,,,,5,6,41,4,,,,,,,,,,,,,,,,,,,,,,,,,,,,,,,,,,,,,,,,,,,,718.0069708340015,None,719.1008693750045,None,720.0243785420025,None,1.308994708994709,0.9640579160040943,720.0243785420025,None,,,,,,,,,,,,,,,,,97,001,2023_May_11_1414,SpeechDraft1Carolyn_lessNoise_PlusLocalization,2021.2.3,59.847762254718575,
,,,,,,,,midRight,13.0,3,ch1Sound_localizationTask.wav,13.0,"(1142, 878)","(182, -202)",190,-338,,,,,,,,,6,0,42,5,,,,,,,,,,,,,,,,,,,,,,,,,,,,,,,,,,,,,,,,,,,,721.0072160000054,None,722.1027576670022,None,723.0251229589994,None,1.6428571428571428,0.6017926659988007,723.0251229589994,None,,,,,,,,,,,,,,,,,97,001,2023_May_11_1414,SpeechDraft1Carolyn_lessNoise_PlusLocalization,2021.2.3,59.847762254718575,
,,,,,,,,farLeft,-19.1,5,ch1Sound_localizationTask.wav,-19.1,"(667, 878)","(-293,-202)",-285,-338,,,,,,,,,6,1,43,0,,,,,,,,,,,,,,,,,,,,,,,,,,,,,,,,,,,,,,,,,,,,723.6405325000014,None,724.7349054170045,None,725.6573328750019,None,1.3031746031746032,0.9500588749942835,725.6573328750019,None,,,,,,,,,,,,,,,,,97,001,2023_May_11_1414,SpeechDraft1Carolyn_lessNoise_PlusLocalization,2021.2.3,59.847762254718575,
,,,,,,,,center,0.0,6,ch1Sound_localizationTask.wav,0.0,"(952, 878)","(-8,-202)",0,-338,,,,,,,,,6,2,44,3,,,,,,,,,,,,,,,,,,,,,,,,,,,,,,,,,,,,,,,,,,,,726.6239942500033,None,727.7199117500058,None,728.6407059170015,None,1.4005291005291005,0.7475282090017572,728.6407059170015,None,,,,,,,,,,,,,,,,,97,001,2023_May_11_1414,SpeechDraft1Carolyn_lessNoise_PlusLocalization,2021.2.3,59.847762254718575,
,,,,,,,,nearLeft,-6.5,1,ch1Sound_localizationTask.wav,-6.5,"(857, 878)","(-103,-202)",-95,-338,,,,,,,,,6,3,45,2,,,,,,,,,,,,,,,,,,,,,,,,,,,,,,,,,,,,,,,,,,,,729.4071062920048,None,730.500872167002,None,731.4244174170017,None,1.470899470899471,0.5978173750045244,731.4244174170017,None,,,,,,,,,,,,,,,,,97,001,2023_May_11_1414,SpeechDraft1Carolyn_lessNoise_PlusLocalization,2021.2.3,59.847762254718575,
,,,,,,,,nearRight,6.5,0,ch1Sound_localizationTask.wav,6.5,"(1047, 878)","(87, -202)",95,-338,,,,,,,,,6,4,46,4,,,,,,,,,,,,,,,,,,,,,,,,,,,,,,,,,,,,,,,,,,,,732.0403937090014,None,733.1354402500001,None,734.0574140000026,None,1.4825396825396826,0.7995425420012907,734.0574140000026,None,,,,,,,,,,,,,,,,,97,001,2023_May_11_1414,SpeechDraft1Carolyn_lessNoise_PlusLocalization,2021.2.3,59.847762254718575,
,,,,,,,,nearLeft,-6.5,1,ch1Sound_localizationTask.wav,-6.5,"(857, 878)","(-103,-202)",-95,-338,,,,,,,,,6,5,47,2,,,,,,,,,,,,,,,,,,,,,,,,,,,,,,,,,,,,,,,,,,,,734.8739639170017,None,735.9693265840033,None,736.8907953340022,None,1.4825396825396826,0.7837299169987091,736.8907953340022,None,,,,,,,,,,,,,,,,,97,001,2023_May_11_1414,SpeechDraft1Carolyn_lessNoise_PlusLocalization,2021.2.3,59.847762254718575,
,,,,,,,,nearRight,6.5,0,ch1Sound_localizationTask.wav,6.5,"(1047, 878)","(87, -202)",95,-338,,,,,,,,,6,6,48,4,,,,,,,,,,,,,,,,,,,,,,,,,,,,,,,,,,,,,,,,,,,,737.6907854590027,None,738.7856587089991,None,739.7075245840024,None,1.4973544973544972,0.5670448749951902,739.7075245840024,None,,,,,,,,,,,,,,,,,97,001,2023_May_11_1414,SpeechDraft1Carolyn_lessNoise_PlusLocalization,2021.2.3,59.847762254718575,
,,,,,,,,nearRight,6.5,0,ch1Sound_localizationTask.wav,6.5,"(1047, 878)","(87, -202)",95,-338,,,,,,,,,7,0,49,4,,,,,,,,,,,,,,,,,,,,,,,,,,,,,,,,,,,,,,,,,,,,740.2906745,None,741.3856250000026,None,742.307904375004,None,1.4867724867724867,0.5985014580001007,742.307904375004,None,,,,,,,,,,,,,,,,,97,001,2023_May_11_1414,SpeechDraft1Carolyn_lessNoise_PlusLocalization,2021.2.3,59.847762254718575,
,,,,,,,,nearRight,6.5,0,ch1Sound_localizationTask.wav,6.5,"(1047, 878)","(87, -202)",95,-338,,,,,,,,,7,1,50,4,,,,,,,,,,,,,,,,,,,,,,,,,,,,,,,,,,,,,,,,,,,,742.923786834006,None,744.0183721670037,None,744.9406142500011,None,1.4978835978835978,0.6982499590012594,744.9406142500011,None,,,,,,,,,,,,,,,,,97,001,2023_May_11_1414,SpeechDraft1Carolyn_lessNoise_PlusLocalization,2021.2.3,59.847762254718575,
,,,,,,,,center,0.0,6,ch1Sound_localizationTask.wav,0.0,"(952, 878)","(-8,-202)",0,-338,,,,,,,,,7,2,51,3,,,,,,,,,,,,,,,,,,,,,,,,,,,,,,,,,,,,,,,,,,,,745.6569602090021,None,746.7521174170033,None,747.6746630840062,None,1.4973544973544972,0.6003312079992611,747.6746630840062,None,,,,,,,,,,,,,,,,,97,001,2023_May_11_1414,SpeechDraft1Carolyn_lessNoise_PlusLocalization,2021.2.3,59.847762254718575,
,,,,,,,,farRight,19.1,4,ch1Sound_localizationTask.wav,19.1,"(1237, 878)","(277,-202)",285,-338,,,,,,,,,7,3,52,6,,,,,,,,,,,,,,,,,,,,,,,,,,,,,,,,,,,,,,,,,,,,748.2903828340059,None,749.3852492090009,None,750.3075075840025,None,1.5708994708994708,0.5812244170010672,750.3075075840025,None,,,,,,,,,,,,,,,,,97,001,2023_May_11_1414,SpeechDraft1Carolyn_lessNoise_PlusLocalization,2021.2.3,59.847762254718575,
,,,,,,,,center,0.0,6,ch1Sound_localizationTask.wav,0.0,"(952, 878)","(-8,-202)",0,-338,,,,,,,,,7,4,53,3,,,,,,,,,,,,,,,,,,,,,,,,,,,,,,,,,,,,,,,,,,,,750.907267542003,None,752.0029843750017,None,752.923949834003,None,1.4984126984126984,0.7480617910041474,752.923949834003,None,,,,,,,,,,,,,,,,,97,001,2023_May_11_1414,SpeechDraft1Carolyn_lessNoise_PlusLocalization,2021.2.3,59.847762254718575,
,,,,,,,,farLeft,-19.1,5,ch1Sound_localizationTask.wav,-19.1,"(667, 878)","(-293,-202)",-285,-338,,,,,,,,,7,5,54,0,,,,,,,,,,,,,,,,,,,,,,,,,,,,,,,,,,,,,,,,,,,,753.6907560840045,None,754.7857339170005,None,755.7075381250033,None,1.398941798941799,0.5481106250008452,755.7075381250033,None,,,,,,,,,,,,,,,,,97,001,2023_May_11_1414,SpeechDraft1Carolyn_lessNoise_PlusLocalization,2021.2.3,59.847762254718575,
,,,,,,,,midLeft,-13.0,2,ch1Sound_localizationTask.wav,-13.0,"(762, 878)","(-198,-202)",-190,-338,,,,,,,,,7,6,55,1,,,,,,,,,,,,,,,,,,,,,,,,,,,,,,,,,,,,,,,,,,,,756.2742522090048,None,757.3681639999995,None,758.2909817920008,None,1.4121693121693122,0.5178623340034392,758.2909817920008,None,,,,,,,,,,,,,,,,,97,001,2023_May_11_1414,SpeechDraft1Carolyn_lessNoise_PlusLocalization,2021.2.3,59.847762254718575,
,,,,,,,,,,,,,,,,,,,,,,,,,,,,,,,,,,,,,,,,,,,,,,,,,,,,,,,,,,,,,,,,,,,,,,,,,,,,,,,,,,space,14.365550208000059,758.908017875001,None,,,,,,,,,,,,,97,001,2023_May_11_1414,SpeechDraft1Carolyn_lessNoise_PlusLocalization,2021.2.3,59.847762254718575,
,,,,,,,,midRight,13.0,3,ch1Sound_localizationTask.wav,13.0,"(1142, 878)","(182, -202)",190,-338,,,,,,,,,,,,,0,0,0,5,,,,,,,,,,,,,,,,,,,,,,,,,,,,,,,,,,,,,,,,773.2904797090014,None,,,776.2933456669998,None,1.6058201058201058,0.9907177909990423,776.2933456669998,None,,,,,758.908017875001,None,774.2910124590053,None,774.4744567920061,774.4901371670057,,,,,,,97,001,2023_May_11_1414,SpeechDraft1Carolyn_lessNoise_PlusLocalization,2021.2.3,59.847762254718575,
,,,,,,,,nearLeft,-6.5,1,ch1Sound_localizationTask.wav,-6.5,"(857, 878)","(-103,-202)",-95,-338,,,,,,,,,,,,,0,1,1,2,,,,,,,,,,,,,,,,,,,,,,,,,,,,,,,,,,,,,,,,777.307573500002,None,,,780.3076937090009,None,1.4417989417989419,0.8157629580018693,780.3076937090009,None,,,,,,,778.3075027500017,None,778.4910749170012,778.5080343340014,,,,,,,97,001,2023_May_11_1414,SpeechDraft1Carolyn_lessNoise_PlusLocalization,2021.2.3,59.847762254718575,
,,,,,,,,center,0.0,6,ch1Sound_localizationTask.wav,0.0,"(952, 878)","(-8,-202)",0,-338,,,,,,,,,,,,,0,2,2,3,,,,,,,,,,,,,,,,,,,,,,,,,,,,,,,,,,,,,,,,781.1404256250025,None,,,784.1414396250038,None,1.508994708994709,0.6322940839963849,784.1414396250038,None,,,,,,,782.1414182920053,None,782.3242535000027,782.3407211670055,,,,,,,97,001,2023_May_11_1414,SpeechDraft1Carolyn_lessNoise_PlusLocalization,2021.2.3,59.847762254718575,
,,,,,,,,midRight,13.0,3,ch1Sound_localizationTask.wav,13.0,"(1142, 878)","(182, -202)",190,-338,,,,,,,,,,,,,0,3,3,5,,,,,,,,,,,,,,,,,,,,,,,,,,,,,,,,,,,,,,,,784.7904446250031,None,,,787.7910460839994,None,1.5931216931216932,0.8514702079992276,787.7910460839994,None,,,,,,,785.7915390000053,None,785.9742274170057,785.9914970840036,,,,,,,97,001,2023_May_11_1414,SpeechDraft1Carolyn_lessNoise_PlusLocalization,2021.2.3,59.847762254718575,
,,,,,,,,center,0.0,6,ch1Sound_localizationTask.wav,0.0,"(952, 878)","(-8,-202)",0,-338,,,,,,,,,,,,,0,4,4,3,,,,,,,,,,,,,,,,,,,,,,,,,,,,,,,,,,,,,,,,788.6578775840026,None,,,791.658007334001,None,1.4925925925925925,1.1485986249972484,791.658007334001,None,,,,,,,789.6577948340055,None,789.8411765420024,789.8576812500032,,,,,,,97,001,2023_May_11_1414,SpeechDraft1Carolyn_lessNoise_PlusLocalization,2021.2.3,59.847762254718575,
,,,,,,,,center,0.0,6,ch1Sound_localizationTask.wav,0.0,"(952, 878)","(-8,-202)",0,-338,,,,,,,,,,,,,0,5,5,3,,,,,,,,,,,,,,,,,,,,,,,,,,,,,,,,,,,,,,,,792.8238237090045,None,,,795.8245885420038,None,1.4957671957671956,0.5832986669993261,795.8245885420038,None,,,,,,,793.8239374170007,None,793.991430042006,794.007540000006,,,,,,,97,001,2023_May_11_1414,SpeechDraft1Carolyn_lessNoise_PlusLocalization,2021.2.3,59.847762254718575,
,,,,,,,,farRight,19.1,4,ch1Sound_localizationTask.wav,19.1,"(1237, 878)","(277,-202)",285,-338,,,,,,,,,,,,,0,6,6,6,,,,,,,,,,,,,,,,,,,,,,,,,,,,,,,,,,,,,,,,796.4243608750039,None,,,799.4239477920055,None,1.646031746031746,1.1976121670013526,799.4239477920055,None,,,,,,,797.4240776670049,None,797.5913346250018,797.6075590420005,,,,,,,97,001,2023_May_11_1414,SpeechDraft1Carolyn_lessNoise_PlusLocalization,2021.2.3,59.847762254718575,
,,,,,,,,nearLeft,-6.5,1,ch1Sound_localizationTask.wav,-6.5,"(857, 878)","(-103,-202)",-95,-338,,,,,,,,,,,,,1,0,7,2,,,,,,,,,,,,,,,,,,,,,,,,,,,,,,,,,,,,,,,,800.640697917006,None,,,803.6414234170006,None,1.435978835978836,1.531493833004788,803.6414234170006,None,,,,,,,801.6412765000059,None,801.8076573750004,801.824727459003,,,,,,,97,001,2023_May_11_1414,SpeechDraft1Carolyn_lessNoise_PlusLocalization,2021.2.3,59.847762254718575,
,,,,,,,,center,0.0,6,ch1Sound_localizationTask.wav,0.0,"(952, 878)","(-8,-202)",0,-338,,,,,,,,,,,,,1,1,8,3,,,,,,,,,,,,,,,,,,,,,,,,,,,,,,,,,,,,,,,,805.190905334006,None,,,808.191421334006,None,1.516931216931217,1.0174852499985718,808.191421334006,None,,,,,,,806.1913732920002,None,806.3573092920051,806.3739862500006,,,,,,,97,001,2023_May_11_1414,SpeechDraft1Carolyn_lessNoise_PlusLocalization,2021.2.3,59.847762254718575,
,,,,,,,,center,0.0,6,ch1Sound_localizationTask.wav,0.0,"(952, 878)","(-8,-202)",0,-338,,,,,,,,,,,,,1,2,9,3,,,,,,,,,,,,,,,,,,,,,,,,,,,,,,,,,,,,,,,,809.2243553340013,None,,,812.2244876250043,None,1.505820105820106,1.0314576669989037,812.2244876250043,None,,,,,,,810.2240525840025,None,810.3913406249994,810.4077426670046,,,,,,,97,001,2023_May_11_1414,SpeechDraft1Carolyn_lessNoise_PlusLocalization,2021.2.3,59.847762254718575,
,,,,,,,,nearRight,6.5,0,ch1Sound_localizationTask.wav,6.5,"(1047, 878)","(87, -202)",95,-338,,,,,,,,,,,,,1,3,10,4,,,,,,,,,,,,,,,,,,,,,,,,,,,,,,,,,,,,,,,,813.2740862920036,None,,,816.2742656670016,None,1.5428571428571427,0.8817894579988206,816.2742656670016,None,,,,,,,814.2739663750035,None,814.4580513340043,814.4745765420012,,,,,,,97,001,2023_May_11_1414,SpeechDraft1Carolyn_lessNoise_PlusLocalization,2021.2.3,59.847762254718575,
,,,,,,,,nearRight,6.5,0,ch1Sound_localizationTask.wav,6.5,"(1047, 878)","(87, -202)",95,-338,,,,,,,,,,,,,1,4,11,4,,,,,,,,,,,,,,,,,,,,,,,,,,,,,,,,,,,,,,,,817.174225917006,None,,,820.174473250001,None,1.552910052910053,0.8801838330036844,820.174473250001,None,,,,,,,818.174673417001,None,818.3579508340044,818.3742614170042,,,,,,,97,001,2023_May_11_1414,SpeechDraft1Carolyn_lessNoise_PlusLocalization,2021.2.3,59.847762254718575,
,,,,,,,,nearRight,6.5,0,ch1Sound_localizationTask.wav,6.5,"(1047, 878)","(87, -202)",95,-338,,,,,,,,,,,,,1,5,12,4,,,,,,,,,,,,,,,,,,,,,,,,,,,,,,,,,,,,,,,,821.0740265000059,None,,,824.0745767920016,None,1.5513227513227514,0.6983840409957338,824.0745767920016,None,,,,,,,822.074582125002,None,822.2580748750042,822.2746097920026,,,,,,,97,001,2023_May_11_1414,SpeechDraft1Carolyn_lessNoise_PlusLocalization,2021.2.3,59.847762254718575,
,,,,,,,,farRight,19.1,4,ch1Sound_localizationTask.wav,19.1,"(1237, 878)","(277,-202)",285,-338,,,,,,,,,,,,,1,6,13,6,,,,,,,,,,,,,,,,,,,,,,,,,,,,,,,,,,,,,,,,824.7907001670028,None,,,827.7914179170039,None,1.6857142857142857,0.7318667079962324,827.7914179170039,None,,,,,,,825.7912825420062,None,825.9749440000014,825.9914973340055,,,,,,,97,001,2023_May_11_1414,SpeechDraft1Carolyn_lessNoise_PlusLocalization,2021.2.3,59.847762254718575,
,,,,,,,,farLeft,-19.1,5,ch1Sound_localizationTask.wav,-19.1,"(667, 878)","(-293,-202)",-285,-338,,,,,,,,,,,,,2,0,14,0,,,,,,,,,,,,,,,,,,,,,,,,,,,,,,,,,,,,,,,,828.5406926249998,None,,,831.5414128340053,None,1.3354497354497354,1.3330594590006513,831.5414128340053,None,,,,,,,829.5414790840005,None,829.7248058750047,829.7414842500002,,,,,,,97,001,2023_May_11_1414,SpeechDraft1Carolyn_lessNoise_PlusLocalization,2021.2.3,59.847762254718575,
,,,,,,,,nearLeft,-6.5,1,ch1Sound_localizationTask.wav,-6.5,"(857, 878)","(-103,-202)",-95,-338,,,,,,,,,,,,,2,1,15,2,,,,,,,,,,,,,,,,,,,,,,,,,,,,,,,,,,,,,,,,832.8906126250004,None,,,835.8913478340037,None,1.4238095238095239,0.7484327499987558,835.8913478340037,None,,,,,,,833.8912288339998,None,834.0578028750024,834.0743753339993,,,,,,,97,001,2023_May_11_1414,SpeechDraft1Carolyn_lessNoise_PlusLocalization,2021.2.3,59.847762254718575,
,,,,,,,,nearRight,6.5,0,ch1Sound_localizationTask.wav,6.5,"(1047, 878)","(87, -202)",95,-338,,,,,,,,,,,,,2,2,16,4,,,,,,,,,,,,,,,,,,,,,,,,,,,,,,,,,,,,,,,,836.6575198339997,None,,,839.6576806250014,None,1.5444444444444443,0.7496575829936774,839.6576806250014,None,,,,,,,837.6581994170047,None,837.8414452920042,837.8577013750037,,,,,,,97,001,2023_May_11_1414,SpeechDraft1Carolyn_lessNoise_PlusLocalization,2021.2.3,59.847762254718575,
,,,,,,,,farRight,19.1,4,ch1Sound_localizationTask.wav,19.1,"(1237, 878)","(277,-202)",285,-338,,,,,,,,,,,,,2,3,17,6,,,,,,,,,,,,,,,,,,,,,,,,,,,,,,,,,,,,,,,,840.4242204590046,None,,,843.424166417004,None,1.6444444444444444,0.5827711250021821,843.424166417004,None,,,,,,,841.4244637920056,None,841.5910787500034,841.6080391670039,,,,,,,97,001,2023_May_11_1414,SpeechDraft1Carolyn_lessNoise_PlusLocalization,2021.2.3,59.847762254718575,
,,,,,,,,nearLeft,-6.5,1,ch1Sound_localizationTask.wav,-6.5,"(857, 878)","(-103,-202)",-95,-338,,,,,,,,,,,,,2,4,18,2,,,,,,,,,,,,,,,,,,,,,,,,,,,,,,,,,,,,,,,,844.0238898340031,None,,,847.0244253750061,None,1.438095238095238,0.5820076249947306,847.0244253750061,None,,,,,,,845.0246979170042,None,845.2077732920006,845.224852834006,,,,,,,97,001,2023_May_11_1414,SpeechDraft1Carolyn_lessNoise_PlusLocalization,2021.2.3,59.847762254718575,
,,,,,,,,farLeft,-19.1,5,ch1Sound_localizationTask.wav,-19.1,"(667, 878)","(-293,-202)",-285,-338,,,,,,,,,,,,,2,5,19,0,,,,,,,,,,,,,,,,,,,,,,,,,,,,,,,,,,,,,,,,847.6239227500046,None,,,850.6245235000024,None,1.3343915343915345,0.7829784579953412,850.6245235000024,None,,,,,,,848.6244872919997,None,848.807755709,848.8241789590029,,,,,,,97,001,2023_May_11_1414,SpeechDraft1Carolyn_lessNoise_PlusLocalization,2021.2.3,59.847762254718575,
,,,,,,,,midLeft,-13.0,2,ch1Sound_localizationTask.wav,-13.0,"(762, 878)","(-198,-202)",-190,-338,,,,,,,,,,,,,2,6,20,1,,,,,,,,,,,,,,,,,,,,,,,,,,,,,,,,,,,,,,,,851.4245849170038,None,,,854.4246031670045,None,1.3947089947089948,1.0336099170017405,854.4246031670045,None,,,,,,,852.4247646250005,None,852.6074272090045,852.6242067090061,,,,,,,97,001,2023_May_11_1414,SpeechDraft1Carolyn_lessNoise_PlusLocalization,2021.2.3,59.847762254718575,
,,,,,,,,midLeft,-13.0,2,ch1Sound_localizationTask.wav,-13.0,"(762, 878)","(-198,-202)",-190,-338,,,,,,,,,,,,,3,0,21,1,,,,,,,,,,,,,,,,,,,,,,,,,,,,,,,,,,,,,,,,855.4743562920048,None,,,858.4746573340017,None,1.3857142857142857,1.0163285000016913,858.4746573340017,None,,,,,,,856.4747615000015,None,856.6418611250047,856.6583946669998,,,,,,,97,001,2023_May_11_1414,SpeechDraft1Carolyn_lessNoise_PlusLocalization,2021.2.3,59.847762254718575,
,,,,,,,,farRight,19.1,4,ch1Sound_localizationTask.wav,19.1,"(1237, 878)","(277,-202)",285,-338,,,,,,,,,,,,,3,1,22,6,,,,,,,,,,,,,,,,,,,,,,,,,,,,,,,,,,,,,,,,859.5079712920051,None,,,862.5081166670061,None,1.668783068783069,0.914820250000048,862.5081166670061,None,,,,,,,860.5082930000062,None,860.6911410419998,860.7084576250054,,,,,,,97,001,2023_May_11_1414,SpeechDraft1Carolyn_lessNoise_PlusLocalization,2021.2.3,59.847762254718575,
,,,,,,,,center,0.0,6,ch1Sound_localizationTask.wav,0.0,"(952, 878)","(-8,-202)",0,-338,,,,,,,,,,,,,3,2,23,3,,,,,,,,,,,,,,,,,,,,,,,,,,,,,,,,,,,,,,,,863.4407388750042,None,,,866.4410734590056,None,1.48994708994709,0.8482319579998148,866.4410734590056,None,,,,,,,864.4410308340011,None,864.6245103340043,864.6419471670015,,,,,,,97,001,2023_May_11_1414,SpeechDraft1Carolyn_lessNoise_PlusLocalization,2021.2.3,59.847762254718575,
,,,,,,,,farRight,19.1,4,ch1Sound_localizationTask.wav,19.1,"(1237, 878)","(277,-202)",285,-338,,,,,,,,,,,,,3,3,24,6,,,,,,,,,,,,,,,,,,,,,,,,,,,,,,,,,,,,,,,,867.3077499589999,None,,,870.307849417004,None,1.6497354497354497,0.9676917500037234,870.307849417004,None,,,,,,,868.3074627090027,None,868.4917215000023,868.508349667005,,,,,,,97,001,2023_May_11_1414,SpeechDraft1Carolyn_lessNoise_PlusLocalization,2021.2.3,59.847762254718575,
,,,,,,,,farLeft,-19.1,5,ch1Sound_localizationTask.wav,-19.1,"(667, 878)","(-293,-202)",-285,-338,,,,,,,,,,,,,3,4,25,0,,,,,,,,,,,,,,,,,,,,,,,,,,,,,,,,,,,,,,,,871.2910495000033,None,,,874.2913859170003,None,1.3306878306878307,0.7495656669998425,874.2913859170003,None,,,,,,,872.291112292005,None,872.4579970420018,872.474422416999,,,,,,,97,001,2023_May_11_1414,SpeechDraft1Carolyn_lessNoise_PlusLocalization,2021.2.3,59.847762254718575,
,,,,,,,,nearRight,6.5,0,ch1Sound_localizationTask.wav,6.5,"(1047, 878)","(87, -202)",95,-338,,,,,,,,,,,,,3,5,26,4,,,,,,,,,,,,,,,,,,,,,,,,,,,,,,,,,,,,,,,,875.0579374590016,None,,,878.0579210420037,None,1.553968253968254,0.7979072919988539,878.0579210420037,None,,,,,,,876.0584990000061,None,876.2412386670039,876.2575485840061,,,,,,,97,001,2023_May_11_1414,SpeechDraft1Carolyn_lessNoise_PlusLocalization,2021.2.3,59.847762254718575,
,,,,,,,,midRight,13.0,3,ch1Sound_localizationTask.wav,13.0,"(1142, 878)","(182, -202)",190,-338,,,,,,,,,,,,,3,6,27,5,,,,,,,,,,,,,,,,,,,,,,,,,,,,,,,,,,,,,,,,878.8742627920001,None,,,881.8744871250019,None,1.619047619047619,0.8494600000049104,881.8744871250019,None,,,,,,,879.8748692090012,None,880.0418125840006,880.0583338340002,,,,,,,97,001,2023_May_11_1414,SpeechDraft1Carolyn_lessNoise_PlusLocalization,2021.2.3,59.847762254718575,
,,,,,,,,nearLeft,-6.5,1,ch1Sound_localizationTask.wav,-6.5,"(857, 878)","(-103,-202)",-95,-338,,,,,,,,,,,,,4,0,28,2,,,,,,,,,,,,,,,,,,,,,,,,,,,,,,,,,,,,,,,,882.7410184170003,None,,,885.741079792002,None,1.4576719576719577,0.9331125840035384,885.741079792002,None,,,,,,,883.7407449170059,None,883.9077693340005,883.9251681250025,,,,,,,97,001,2023_May_11_1414,SpeechDraft1Carolyn_lessNoise_PlusLocalization,2021.2.3,59.847762254718575,
,,,,,,,,nearRight,6.5,0,ch1Sound_localizationTask.wav,6.5,"(1047, 878)","(87, -202)",95,-338,,,,,,,,,,,,,4,1,29,4,,,,,,,,,,,,,,,,,,,,,,,,,,,,,,,,,,,,,,,,886.6908987089992,None,,,889.6912586670005,None,1.5693121693121692,0.7472725000043283,889.6912586670005,None,,,,,,,887.6914767920025,None,887.8749114590028,887.8913316250037,,,,,,,97,001,2023_May_11_1414,SpeechDraft1Carolyn_lessNoise_PlusLocalization,2021.2.3,59.847762254718575,
,,,,,,,,midRight,13.0,3,ch1Sound_localizationTask.wav,13.0,"(1142, 878)","(182, -202)",190,-338,,,,,,,,,,,,,4,2,30,5,,,,,,,,,,,,,,,,,,,,,,,,,,,,,,,,,,,,,,,,890.4575145420022,None,,,893.4581419590031,None,1.571957671957672,1.0172274590004236,893.4581419590031,None,,,,,,,891.4583276670019,None,891.6404905420059,891.6572112920039,,,,,,,97,001,2023_May_11_1414,SpeechDraft1Carolyn_lessNoise_PlusLocalization,2021.2.3,59.847762254718575,
,,,,,,,,midRight,13.0,3,ch1Sound_localizationTask.wav,13.0,"(1142, 878)","(182, -202)",190,-338,,,,,,,,,,,,,4,3,31,5,,,,,,,,,,,,,,,,,,,,,,,,,,,,,,,,,,,,,,,,894.4911469170038,None,,,897.4914337920054,None,1.571957671957672,0.8165818749985192,897.4914337920054,None,,,,,,,895.4918695840024,None,895.6745097919993,895.6912284589998,,,,,,,97,001,2023_May_11_1414,SpeechDraft1Carolyn_lessNoise_PlusLocalization,2021.2.3,59.847762254718575,
,,,,,,,,nearLeft,-6.5,1,ch1Sound_localizationTask.wav,-6.5,"(857, 878)","(-103,-202)",-95,-338,,,,,,,,,,,,,4,4,32,2,,,,,,,,,,,,,,,,,,,,,,,,,,,,,,,,,,,,,,,,898.324576250001,None,,,901.3247723750028,None,1.4624338624338624,0.7819516669987934,901.3247723750028,None,,,,,,,899.3241610000041,None,899.491174584,899.5080181670055,,,,,,,97,001,2023_May_11_1414,SpeechDraft1Carolyn_lessNoise_PlusLocalization,2021.2.3,59.847762254718575,
,,,,,,,,midLeft,-13.0,2,ch1Sound_localizationTask.wav,-13.0,"(762, 878)","(-198,-202)",-190,-338,,,,,,,,,,,,,4,5,33,1,,,,,,,,,,,,,,,,,,,,,,,,,,,,,,,,,,,,,,,,902.124375792002,None,,,905.1251517920027,None,1.4095238095238094,0.7828442090030876,905.1251517920027,None,,,,,,,903.1248186670055,None,903.3081902090053,903.3247581670003,,,,,,,97,001,2023_May_11_1414,SpeechDraft1Carolyn_lessNoise_PlusLocalization,2021.2.3,59.847762254718575,
,,,,,,,,farLeft,-19.1,5,ch1Sound_localizationTask.wav,-19.1,"(667, 878)","(-293,-202)",-285,-338,,,,,,,,,,,,,4,6,34,0,,,,,,,,,,,,,,,,,,,,,,,,,,,,,,,,,,,,,,,,905.9244263750006,None,,,908.9249787920053,None,1.3597883597883598,0.9311074159995769,908.9249787920053,None,,,,,,,906.9248803750015,None,907.0914764170011,907.1080934589991,,,,,,,97,001,2023_May_11_1414,SpeechDraft1Carolyn_lessNoise_PlusLocalization,2021.2.3,59.847762254718575,
,,,,,,,,midLeft,-13.0,2,ch1Sound_localizationTask.wav,-13.0,"(762, 878)","(-198,-202)",-190,-338,,,,,,,,,,,,,5,0,35,1,,,,,,,,,,,,,,,,,,,,,,,,,,,,,,,,,,,,,,,,909.874221334001,None,,,912.8744248750008,None,1.397883597883598,1.0480009999955655,912.8744248750008,None,,,,,,,910.8747027089994,None,911.0415802499992,911.0582845000026,,,,,,,97,001,2023_May_11_1414,SpeechDraft1Carolyn_lessNoise_PlusLocalization,2021.2.3,59.847762254718575,
,,,,,,,,midRight,13.0,3,ch1Sound_localizationTask.wav,13.0,"(1142, 878)","(182, -202)",190,-338,,,,,,,,,,,,,5,1,36,5,,,,,,,,,,,,,,,,,,,,,,,,,,,,,,,,,,,,,,,,913.9407727920043,None,,,916.9412762089996,None,1.6296296296296298,1.2630862920050276,916.9412762089996,None,,,,,,,914.9411495000022,None,915.1082191250025,915.1244912500042,,,,,,,97,001,2023_May_11_1414,SpeechDraft1Carolyn_lessNoise_PlusLocalization,2021.2.3,59.847762254718575,
,,,,,,,,farRight,19.1,4,ch1Sound_localizationTask.wav,19.1,"(1237, 878)","(277,-202)",285,-338,,,,,,,,,,,,,5,2,37,6,,,,,,,,,,,,,,,,,,,,,,,,,,,,,,,,,,,,,,,,918.2242426250014,None,,,921.2244825840025,None,1.6296296296296298,0.6823282499972265,921.2244825840025,None,,,,,,,919.2251271250061,None,919.3913240000038,919.4077432920021,,,,,,,97,001,2023_May_11_1414,SpeechDraft1Carolyn_lessNoise_PlusLocalization,2021.2.3,59.847762254718575,
,,,,,,,,nearRight,6.5,0,ch1Sound_localizationTask.wav,6.5,"(1047, 878)","(87, -202)",95,-338,,,,,,,,,,,,,5,3,38,4,,,,,,,,,,,,,,,,,,,,,,,,,,,,,,,,,,,,,,,,921.9246180000046,None,,,924.9246786250005,None,1.5571428571428572,0.7814870419970248,924.9246786250005,None,,,,,,,922.9244458340036,None,923.1085468340025,923.1250717090006,,,,,,,97,001,2023_May_11_1414,SpeechDraft1Carolyn_lessNoise_PlusLocalization,2021.2.3,59.847762254718575,
,,,,,,,,farRight,19.1,4,ch1Sound_localizationTask.wav,19.1,"(1237, 878)","(277,-202)",285,-338,,,,,,,,,,,,,5,4,39,6,,,,,,,,,,,,,,,,,,,,,,,,,,,,,,,,,,,,,,,,925.7242580420061,None,,,928.7242424590004,None,1.6275132275132276,0.9494586669970886,928.7242424590004,None,,,,,,,926.7246109590051,None,926.907216874999,926.9248982089994,,,,,,,97,001,2023_May_11_1414,SpeechDraft1Carolyn_lessNoise_PlusLocalization,2021.2.3,59.847762254718575,
,,,,,,,,center,0.0,6,ch1Sound_localizationTask.wav,0.0,"(952, 878)","(-8,-202)",0,-338,,,,,,,,,,,,,5,5,40,3,,,,,,,,,,,,,,,,,,,,,,,,,,,,,,,,,,,,,,,,929.6912216250057,None,,,932.6911088750057,None,1.4968253968253968,1.050026083998091,932.6911088750057,None,,,,,,,930.691750209,None,930.8583282920008,930.874728625,,,,,,,97,001,2023_May_11_1414,SpeechDraft1Carolyn_lessNoise_PlusLocalization,2021.2.3,59.847762254718575,
,,,,,,,,farLeft,-19.1,5,ch1Sound_localizationTask.wav,-19.1,"(667, 878)","(-293,-202)",-285,-338,,,,,,,,,,,,,5,6,41,0,,,,,,,,,,,,,,,,,,,,,,,,,,,,,,,,,,,,,,,,933.7576762919998,None,,,936.7580069169999,None,1.3380952380952382,0.8485082909974153,936.7580069169999,None,,,,,,,934.7578110840041,None,934.9413425000021,934.9582665420021,,,,,,,97,001,2023_May_11_1414,SpeechDraft1Carolyn_lessNoise_PlusLocalization,2021.2.3,59.847762254718575,
,,,,,,,,nearRight,6.5,0,ch1Sound_localizationTask.wav,6.5,"(1047, 878)","(87, -202)",95,-338,,,,,,,,,,,,,6,0,42,4,,,,,,,,,,,,,,,,,,,,,,,,,,,,,,,,,,,,,,,,937.6244269170056,None,,,940.6251873750007,None,1.547089947089947,0.9166174170022714,940.6251873750007,None,,,,,,,938.625129292006,None,938.7909290840034,938.8076807920006,,,,,,,97,001,2023_May_11_1414,SpeechDraft1Carolyn_lessNoise_PlusLocalization,2021.2.3,59.847762254718575,
,,,,,,,,farLeft,-19.1,5,ch1Sound_localizationTask.wav,-19.1,"(667, 878)","(-293,-202)",-285,-338,,,,,,,,,,,,,6,1,43,0,,,,,,,,,,,,,,,,,,,,,,,,,,,,,,,,,,,,,,,,941.5581180840018,None,,,944.5577601250043,None,1.301058201058201,1.4168867909975233,944.5577601250043,None,,,,,,,942.5582909590012,None,942.741447709006,942.758405917004,,,,,,,97,001,2023_May_11_1414,SpeechDraft1Carolyn_lessNoise_PlusLocalization,2021.2.3,59.847762254718575,
,,,,,,,,center,0.0,6,ch1Sound_localizationTask.wav,0.0,"(952, 878)","(-8,-202)",0,-338,,,,,,,,,,,,,6,2,44,3,,,,,,,,,,,,,,,,,,,,,,,,,,,,,,,,,,,,,,,,945.9914912919994,None,,,948.9912777499994,None,1.5015873015873016,1.1832024579998688,948.9912777499994,None,,,,,,,946.9914425840034,None,947.1747642920018,947.1914592920002,,,,,,,97,001,2023_May_11_1414,SpeechDraft1Carolyn_lessNoise_PlusLocalization,2021.2.3,59.847762254718575,
,,,,,,,,midLeft,-13.0,2,ch1Sound_localizationTask.wav,-13.0,"(762, 878)","(-198,-202)",-190,-338,,,,,,,,,,,,,6,3,45,1,,,,,,,,,,,,,,,,,,,,,,,,,,,,,,,,,,,,,,,,950.1911964590035,None,,,953.1916757090003,None,1.3904761904761904,1.1485607919967151,953.1916757090003,None,,,,,,,951.1918939169991,None,951.3751081670052,951.391645542004,,,,,,,97,001,2023_May_11_1414,SpeechDraft1Carolyn_lessNoise_PlusLocalization,2021.2.3,59.847762254718575,
,,,,,,,,farLeft,-19.1,5,ch1Sound_localizationTask.wav,-19.1,"(667, 878)","(-293,-202)",-285,-338,,,,,,,,,,,,,6,4,46,0,,,,,,,,,,,,,,,,,,,,,,,,,,,,,,,,,,,,,,,,954.3577886670028,None,,,957.3575557500008,None,1.3507936507936509,0.5668285840001772,957.3575557500008,None,,,,,,,955.3577984170042,None,955.5291655840047,955.5416156670035,,,,,,,97,001,2023_May_11_1414,SpeechDraft1Carolyn_lessNoise_PlusLocalization,2021.2.3,59.847762254718575,
,,,,,,,,farLeft,-19.1,5,ch1Sound_localizationTask.wav,-19.1,"(667, 878)","(-293,-202)",-285,-338,,,,,,,,,,,,,6,5,47,0,,,,,,,,,,,,,,,,,,,,,,,,,,,,,,,,,,,,,,,,957.9417909170006,None,,,960.9411469170009,None,1.3507936507936509,0.5991899590007961,960.9411469170009,None,,,,,,,958.9414590840024,None,959.1246780420042,959.1419693339994,,,,,,,97,001,2023_May_11_1414,SpeechDraft1Carolyn_lessNoise_PlusLocalization,2021.2.3,59.847762254718575,
,,,,,,,,midLeft,-13.0,2,ch1Sound_localizationTask.wav,-13.0,"(762, 878)","(-198,-202)",-190,-338,,,,,,,,,,,,,6,6,48,1,,,,,,,,,,,,,,,,,,,,,,,,,,,,,,,,,,,,,,,,961.5581782920053,None,,,964.5583541250016,None,1.3820105820105821,0.9334158749989001,964.5583541250016,None,,,,,,,962.557791584004,None,962.7411396669995,962.7581023340026,,,,,,,97,001,2023_May_11_1414,SpeechDraft1Carolyn_lessNoise_PlusLocalization,2021.2.3,59.847762254718575,
,,,,,,,,nearLeft,-6.5,1,ch1Sound_localizationTask.wav,-6.5,"(857, 878)","(-103,-202)",-95,-338,,,,,,,,,,,,,7,0,49,2,,,,,,,,,,,,,,,,,,,,,,,,,,,,,,,,,,,,,,,,965.5083103750003,None,,,968.5081640839999,None,1.4502645502645501,0.799956208000367,968.5081640839999,None,,,,,,,966.5077700420006,None,966.6752310000011,966.6914155420018,,,,,,,97,001,2023_May_11_1414,SpeechDraft1Carolyn_lessNoise_PlusLocalization,2021.2.3,59.847762254718575,
,,,,,,,,midRight,13.0,3,ch1Sound_localizationTask.wav,13.0,"(1142, 878)","(182, -202)",190,-338,,,,,,,,,,,,,7,1,50,5,,,,,,,,,,,,,,,,,,,,,,,,,,,,,,,,,,,,,,,,969.3243446670022,None,,,972.3248663750055,None,1.632804232804233,1.081957374997728,972.3248663750055,None,,,,,,,970.3246352920032,None,970.5085196670043,970.5252682499995,,,,,,,97,001,2023_May_11_1414,SpeechDraft1Carolyn_lessNoise_PlusLocalization,2021.2.3,59.847762254718575,
,,,,,,,,midLeft,-13.0,2,ch1Sound_localizationTask.wav,-13.0,"(762, 878)","(-198,-202)",-190,-338,,,,,,,,,,,,,7,2,51,1,,,,,,,,,,,,,,,,,,,,,,,,,,,,,,,,,,,,,,,,973.4249450839998,None,,,976.4247257500028,None,1.366137566137566,1.0153874159950647,976.4247257500028,None,,,,,,,974.4246294170007,None,974.608191875006,974.6244245840062,,,,,,,97,001,2023_May_11_1414,SpeechDraft1Carolyn_lessNoise_PlusLocalization,2021.2.3,59.847762254718575,
,,,,,,,,midLeft,-13.0,2,ch1Sound_localizationTask.wav,-13.0,"(762, 878)","(-198,-202)",-190,-338,,,,,,,,,,,,,7,3,52,1,,,,,,,,,,,,,,,,,,,,,,,,,,,,,,,,,,,,,,,,977.4581305840038,None,,,980.457869292004,None,1.3571428571428572,0.7333602500002598,980.457869292004,None,,,,,,,978.458259417006,None,978.6249295420057,978.6415267090051,,,,,,,97,001,2023_May_11_1414,SpeechDraft1Carolyn_lessNoise_PlusLocalization,2021.2.3,59.847762254718575,
,,,,,,,,nearLeft,-6.5,1,ch1Sound_localizationTask.wav,-6.5,"(857, 878)","(-103,-202)",-95,-338,,,,,,,,,,,,,7,4,53,2,,,,,,,,,,,,,,,,,,,,,,,,,,,,,,,,,,,,,,,,981.2076040419997,None,,,984.2079027920045,None,1.4444444444444444,0.9337627080021775,984.2079027920045,None,,,,,,,982.2075914170055,None,982.3917634590034,982.4086685000002,,,,,,,97,001,2023_May_11_1414,SpeechDraft1Carolyn_lessNoise_PlusLocalization,2021.2.3,59.847762254718575,
,,,,,,,,midRight,13.0,3,ch1Sound_localizationTask.wav,13.0,"(1142, 878)","(182, -202)",190,-338,,,,,,,,,,,,,7,5,54,5,,,,,,,,,,,,,,,,,,,,,,,,,,,,,,,,,,,,,,,,985.1578300420006,None,,,988.1582999590028,None,1.6005291005291005,1.1482488330002525,988.1582999590028,None,,,,,,,986.1580697919999,None,986.3418639590018,986.3582818750001,,,,,,,97,001,2023_May_11_1414,SpeechDraft1Carolyn_lessNoise_PlusLocalization,2021.2.3,59.847762254718575,
,,,,,,,,farRight,19.1,4,ch1Sound_localizationTask.wav,19.1,"(1237, 878)","(277,-202)",285,-338,,,,,,,,,,,,,7,6,55,6,,,,,,,,,,,,,,,,,,,,,,,,,,,,,,,,,,,,,,,,989.3244575839999,None,,,992.3248549170021,None,1.6227513227513226,1.0984722499997588,992.3248549170021,None,,,,,,,990.3246177090041,None,990.5082415420038,990.5245767090018,,,,,,,97,001,2023_May_11_1414,SpeechDraft1Carolyn_lessNoise_PlusLocalization,2021.2.3,59.847762254718575,
,,,,,,,,,,,,,,,,,,,,,,,,,,,,,,,,,,,,,,,,,,,,,,,,,,,,,,,,,,,,,,,,,,,,,,,,,,,,,,,,,,,,,,,,,,,,993.4407868750059,None,c,257.48339316599595,994.4250865420036,None,97,001,2023_May_11_1414,SpeechDraft1Carolyn_lessNoise_PlusLocalization,2021.2.3,59.847762254718575,
