{"meta_data":{"additional_headers":{},"game_name":"Recollect","version":"2.53.01","user_name":"98","organization":"braingamecenter","study":"mpl2_2022_11","session_number":0,"device_id":"74342D95-EE82-45E3-8ADF-48FB3203C5DD"},"data":[{"stage":"Practice","trial":0,"sequence":"6F","letter_input":"F","number_input":"6","is_correct":true,"presentation_start_time":1683849709987.35,"presentation_end_time":1683849712988.98,"response_time":1683849722519.69},{"stage":"Practice","trial":1,"sequence":"G4","letter_input":"G","number_input":"4","is_correct":true,"presentation_start_time":1683849724049.4,"presentation_end_time":1683849727050.93,"response_time":1683849731497.03},{"stage":"Practice","trial":2,"sequence":"3W5","letter_input":"W","number_input":"35","is_correct":true,"presentation_start_time":1683849733029.7,"presentation_end_time":1683849737530.95,"response_time":1683849745492.36},{"stage":"Practice","trial":3,"sequence":"T7L","letter_input":"TL","number_input":"7","is_correct":false,"presentation_start_time":1683849747025.1,"presentation_end_time":1683849751526.25,"response_time":1683849761637.01},{"stage":"Practice","trial":4,"sequence":"9J1","letter_input":"J","number_input":"19","is_correct":true,"presentation_start_time":1683849764669.34,"presentation_end_time":1683849769170.35,"response_time":1683849779847.62},{"stage":"Calibration","trial":0,"sequence":"B3","letter_input":"B","number_input":"3","is_correct":true,"presentation_start_time":1683849787061.85,"presentation_end_time":1683849790063.37,"response_time":1683849795292.55},{"stage":"Calibration","trial":1,"sequence":"5R","letter_input":"R","number_input":"5","is_correct":true,"presentation_start_time":1683849796825.27,"presentation_end_time":1683849799826.86,"response_time":1683849804872.82},{"stage":"Calibration","trial":2,"sequence":"M6G","letter_input":"GM","number_input":"6","is_correct":true,"presentation_start_time":1683849806405.52,"presentation_end_time":1683849810906.51,"response_time":1683849817901.74},{"stage":"Calibration","trial":3,"sequence":"5F3","letter_input":"F","number_input":"35","is_correct":true,"presentation_start_time":1683849819434.48,"presentation_end_time":1683849823935.41,"response_time":1683849828564.91},{"stage":"Calibration","trial":4,"sequence":"D6A1","letter_input":"AD","number_input":"16","is_correct":true,"presentation_start_time":1683849830097.66,"presentation_end_time":1683849836098.15,"response_time":1683849841344.05},{"stage":"Calibration","trial":5,"sequence":"9P5H","letter_input":"HP","number_input":"59","is_correct":true,"presentation_start_time":1683849842876.82,"presentation_end_time":1683849848877.29,"response_time":1683849854123.11},{"stage":"Calibration","trial":6,"sequence":"G7R4N","letter_input":"GNR","number_input":"47","is_correct":true,"presentation_start_time":1683849855655.83,"presentation_end_time":1683849863155.99,"response_time":1683849874449.9},{"stage":"Calibration","trial":7,"sequence":"3M1H6","letter_input":"HM","number_input":"136","is_correct":true,"presentation_start_time":1683849875982.56,"presentation_end_time":1683849883482.62,"response_time":1683849900774.44},{"stage":"Calibration","trial":8,"sequence":"E9B4Z2","letter_input":"BEZ","number_input":"249","is_correct":true,"presentation_start_time":1683849902307.17,"presentation_end_time":1683849911306.68,"response_time":1683849920051.38},{"stage":"Calibration","trial":9,"sequence":"5N1D7R","letter_input":"DNR","number_input":"157","is_correct":true,"presentation_start_time":1683849921584.06,"presentation_end_time":1683849930583.6,"response_time":1683849947075.8},{"stage":"Calibration","trial":10,"sequence":"A8W6T3M","letter_input":"AMNW","number_input":"168","is_correct":false,"presentation_start_time":1683849948608.51,"presentation_end_time":1683849959107.49,"response_time":1683849989228.49},{"stage":"Calibration","trial":11,"sequence":"9Q1K7E5","letter_input":"AKQ","number_input":"1957","is_correct":false,"presentation_start_time":1683849990761.18,"presentation_end_time":1683850001260.35,"response_time":1683850027365.94}]}