{"meta_data":{"additional_headers":{},"game_name":"Recollect","version":"2.53.01","user_name":"98","organization":"braingamecenter","study":"mpl2_2022_11","session_number":0,"device_id":"74342D95-EE82-45E3-8ADF-48FB3203C5DD"},"data":[{"trial":0,"action":1,"button_pressed":5,"time_out":false,"dwell_time":13.28515625,"response_time":1683849459854.4},{"trial":0,"action":1,"button_pressed":3,"time_out":false,"dwell_time":63.26416015625,"response_time":1683849460537.57},{"trial":0,"action":9,"button_pressed":-1,"time_out":false,"dwell_time":92.72412109375,"response_time":1683849461582.65},{"trial":1,"action":1,"button_pressed":4,"time_out":false,"dwell_time":47.339111328125,"response_time":1683849470984.8},{"trial":1,"action":1,"button_pressed":7,"time_out":false,"dwell_time":63.6240234375,"response_time":1683849471684.56},{"trial":1,"action":1,"button_pressed":10,"time_out":false,"dwell_time":64.198974609375,"response_time":1683849472283.84},{"trial":1,"action":9,"button_pressed":-1,"time_out":false,"dwell_time":16.60791015625,"response_time":1683849473200.18},{"trial":2,"action":1,"button_pressed":1,"time_out":false,"dwell_time":47.359130859375,"response_time":1683849485396.76},{"trial":2,"action":1,"button_pressed":6,"time_out":false,"dwell_time":64.64208984375,"response_time":1683849485680.12},{"trial":2,"action":1,"button_pressed":5,"time_out":false,"dwell_time":48.13623046875,"response_time":1683849486280.15},{"trial":2,"action":1,"button_pressed":10,"time_out":false,"dwell_time":64.0048828125,"response_time":1683849486778.95},{"trial":2,"action":9,"button_pressed":-1,"time_out":false,"dwell_time":64.643798828125,"response_time":1683849487495.95},{"trial":3,"action":1,"button_pressed":1,"time_out":false,"dwell_time":30.677001953125,"response_time":1683849502141.17},{"trial":3,"action":1,"button_pressed":11,"time_out":false,"dwell_time":30.720947265625,"response_time":1683849502657.82},{"trial":3,"action":1,"button_pressed":9,"time_out":false,"dwell_time":47.616943359375,"response_time":1683849503140.54},{"trial":3,"action":1,"button_pressed":7,"time_out":false,"dwell_time":47.026123046875,"response_time":1683849503657.16},{"trial":3,"action":1,"button_pressed":4,"time_out":false,"dwell_time":47.182861328125,"response_time":1683849504207.1},{"trial":3,"action":9,"button_pressed":-1,"time_out":false,"dwell_time":49.126953125,"response_time":1683849504808.06},{"trial":4,"action":1,"button_pressed":0,"time_out":false,"dwell_time":48.31298828125,"response_time":1683849519852.86},{"trial":4,"action":1,"button_pressed":9,"time_out":false,"dwell_time":63.788818359375,"response_time":1683849520434.42},{"trial":4,"action":1,"button_pressed":2,"time_out":false,"dwell_time":147.19189453125,"response_time":1683849524999.72},{"trial":4,"action":1,"button_pressed":1,"time_out":false,"dwell_time":97.489990234375,"response_time":1683849526250.03},{"trial":4,"action":1,"button_pressed":6,"time_out":false,"dwell_time":81.135986328125,"response_time":1683849526616.54},{"trial":4,"action":9,"button_pressed":-1,"time_out":false,"dwell_time":65.386962890625,"response_time":1683849528117.35},{"trial":5,"action":1,"button_pressed":6,"time_out":false,"dwell_time":47.239013671875,"response_time":1683849538012.7},{"trial":5,"action":1,"button_pressed":5,"time_out":false,"dwell_time":97.800048828125,"response_time":1683849538579.17},{"trial":5,"action":1,"button_pressed":4,"time_out":false,"dwell_time":48.18994140625,"response_time":1683849538929.45},{"trial":5,"action":9,"button_pressed":-1,"time_out":false,"dwell_time":65.56982421875,"response_time":1683849539779.45},{"trial":6,"action":1,"button_pressed":0,"time_out":false,"dwell_time":63.465087890625,"response_time":1683849551707.67},{"trial":6,"action":1,"button_pressed":10,"time_out":false,"dwell_time":79.9580078125,"response_time":1683849552157.39},{"trial":6,"action":1,"button_pressed":2,"time_out":false,"dwell_time":96.715087890625,"response_time":1683849552690.63},{"trial":6,"action":1,"button_pressed":6,"time_out":false,"dwell_time":47.2880859375,"response_time":1683849553224.83},{"trial":6,"action":9,"button_pressed":-1,"time_out":false,"dwell_time":65.56298828125,"response_time":1683849554374.95},{"trial":7,"action":1,"button_pressed":6,"time_out":false,"dwell_time":98.27099609375,"response_time":1683849569036.08},{"trial":7,"action":1,"button_pressed":3,"time_out":false,"dwell_time":63.947021484375,"response_time":1683849569368.42},{"trial":7,"action":1,"button_pressed":8,"time_out":false,"dwell_time":63.907958984375,"response_time":1683849570002.22},{"trial":7,"action":1,"button_pressed":11,"time_out":false,"dwell_time":63.890869140625,"response_time":1683849570901.86},{"trial":7,"action":1,"button_pressed":0,"time_out":false,"dwell_time":31.221923828125,"response_time":1683849571502.1},{"trial":7,"action":9,"button_pressed":-1,"time_out":false,"dwell_time":82.01513671875,"response_time":1683849572301.84},{"trial":8,"action":1,"button_pressed":0,"time_out":false,"dwell_time":80.774169921875,"response_time":1683849589662.45},{"trial":8,"action":1,"button_pressed":3,"time_out":false,"dwell_time":64.1240234375,"response_time":1683849590144.96},{"trial":8,"action":1,"button_pressed":11,"time_out":false,"dwell_time":80.23291015625,"response_time":1683849590678.36},{"trial":8,"action":1,"button_pressed":4,"time_out":false,"dwell_time":63.55810546875,"response_time":1683849591210.97},{"trial":8,"action":1,"button_pressed":5,"time_out":false,"dwell_time":80.708984375,"response_time":1683849591711.16},{"trial":8,"action":1,"button_pressed":7,"time_out":false,"dwell_time":63.747802734375,"response_time":1683849592444.06},{"trial":8,"action":9,"button_pressed":-1,"time_out":false,"dwell_time":31.705078125,"response_time":1683849593362.06},{"trial":9,"action":1,"button_pressed":3,"time_out":false,"dwell_time":48.114013671875,"response_time":1683849610421.98},{"trial":9,"action":1,"button_pressed":7,"time_out":false,"dwell_time":97.614990234375,"response_time":1683849610988.22},{"trial":9,"action":1,"button_pressed":4,"time_out":false,"dwell_time":63.802978515625,"response_time":1683849611621.64},{"trial":9,"action":1,"button_pressed":10,"time_out":false,"dwell_time":80.744873046875,"response_time":1683849614220.35},{"trial":9,"action":1,"button_pressed":2,"time_out":false,"dwell_time":47.7099609375,"response_time":1683849614737.65},{"trial":9,"action":1,"button_pressed":9,"time_out":false,"dwell_time":63.73291015625,"response_time":1683849615337.15},{"trial":9,"action":9,"button_pressed":-1,"time_out":false,"dwell_time":99.924072265625,"response_time":1683849617454.64},{"trial":10,"action":1,"button_pressed":3,"time_out":false,"dwell_time":80.302978515625,"response_time":1683849639495.4},{"trial":10,"action":1,"button_pressed":5,"time_out":false,"dwell_time":130.91796875,"response_time":1683849640612.18},{"trial":10,"action":1,"button_pressed":8,"time_out":false,"dwell_time":96.72509765625,"response_time":1683849642410.9},{"trial":10,"action":1,"button_pressed":11,"time_out":false,"dwell_time":98.18701171875,"response_time":1683849643377.97},{"trial":10,"action":1,"button_pressed":4,"time_out":false,"dwell_time":64.864013671875,"response_time":1683849644427.58},{"trial":10,"action":1,"button_pressed":7,"time_out":false,"dwell_time":63.552001953125,"response_time":1683849646526.51},{"trial":10,"action":1,"button_pressed":10,"time_out":false,"dwell_time":14.385986328125,"response_time":1683849647309.71},{"trial":10,"action":9,"button_pressed":-1,"time_out":false,"dwell_time":81.47900390625,"response_time":1683849649709.15},{"trial":11,"action":1,"button_pressed":10,"time_out":false,"dwell_time":13710.8981933594,"response_time":1683849669237.14},{"trial":11,"action":1,"button_pressed":5,"time_out":false,"dwell_time":13726.78515625,"response_time":1683849669253.03},{"trial":11,"action":1,"button_pressed":8,"time_out":false,"dwell_time":13743.2641601563,"response_time":1683849669269.51},{"trial":11,"action":1,"button_pressed":0,"time_out":false,"dwell_time":13859.1301269531,"response_time":1683849669385.37},{"trial":11,"action":0,"button_pressed":-1,"time_out":false,"dwell_time":81.864013671875,"response_time":1683849670769.08},{"trial":11,"action":1,"button_pressed":0,"time_out":false,"dwell_time":130.648193359375,"response_time":1683849671635.18},{"trial":11,"action":1,"button_pressed":5,"time_out":false,"dwell_time":146.855224609375,"response_time":1683849672234.3},{"trial":11,"action":1,"button_pressed":8,"time_out":false,"dwell_time":97.878173828125,"response_time":1683849675117.49},{"trial":11,"action":1,"button_pressed":10,"time_out":false,"dwell_time":80.6650390625,"response_time":1683849676066.38},{"trial":11,"action":1,"button_pressed":3,"time_out":false,"dwell_time":147.35693359375,"response_time":1683849677083.4},{"trial":11,"action":1,"button_pressed":2,"time_out":false,"dwell_time":96.701904296875,"response_time":1683849678565.65},{"trial":11,"action":1,"button_pressed":9,"time_out":false,"dwell_time":47.470947265625,"response_time":1683849681049.2},{"trial":11,"action":9,"button_pressed":-1,"time_out":false,"dwell_time":65.698974609375,"response_time":1683849682682.51}]}