{"meta_data":{"additional_headers":{},"game_name":"Recollect","version":"2.53.01","user_name":"99","organization":"braingamecenter","study":"mpl2_2022_11","session_number":0,"device_id":"74342D95-EE82-45E3-8ADF-48FB3203C5DD"},"data":[{"trial":0,"action":1,"button_pressed":0,"time_out":false,"dwell_time":131.64599609375,"response_time":1683916940132.44},{"trial":0,"action":1,"button_pressed":6,"time_out":false,"dwell_time":97.3798828125,"response_time":1683916940632.19},{"trial":0,"action":9,"button_pressed":-1,"time_out":false,"dwell_time":91.700927734375,"response_time":1683916941376.03},{"trial":1,"action":1,"button_pressed":7,"time_out":false,"dwell_time":130.832763671875,"response_time":1683916951062.32},{"trial":1,"action":1,"button_pressed":3,"time_out":false,"dwell_time":147.525146484375,"response_time":1683916951611.61},{"trial":1,"action":1,"button_pressed":2,"time_out":false,"dwell_time":64.012939453125,"response_time":1683916952144.97},{"trial":1,"action":9,"button_pressed":-1,"time_out":false,"dwell_time":80.527099609375,"response_time":1683916952728.04},{"trial":2,"action":1,"button_pressed":7,"time_out":false,"dwell_time":97.569091796875,"response_time":1683916964707.15},{"trial":2,"action":1,"button_pressed":9,"time_out":false,"dwell_time":98.053955078125,"response_time":1683916965357.41},{"trial":2,"action":1,"button_pressed":0,"time_out":false,"dwell_time":96.84814453125,"response_time":1683916965623.47},{"trial":2,"action":1,"button_pressed":4,"time_out":false,"dwell_time":63.93603515625,"response_time":1683916965857.32},{"trial":2,"action":9,"button_pressed":-1,"time_out":false,"dwell_time":81.27001953125,"response_time":1683916966640.15},{"trial":3,"action":1,"button_pressed":7,"time_out":false,"dwell_time":97.2470703125,"response_time":1683916980952.55},{"trial":3,"action":1,"button_pressed":4,"time_out":false,"dwell_time":80.9189453125,"response_time":1683916981469.07},{"trial":3,"action":1,"button_pressed":11,"time_out":false,"dwell_time":97.5439453125,"response_time":1683916982402.09},{"trial":3,"action":1,"button_pressed":3,"time_out":false,"dwell_time":96.68310546875,"response_time":1683916983267.74},{"trial":3,"action":1,"button_pressed":10,"time_out":false,"dwell_time":81.326904296875,"response_time":1683916983734.89},{"trial":3,"action":9,"button_pressed":-1,"time_out":false,"dwell_time":64.594970703125,"response_time":1683916984634.3},{"trial":4,"action":1,"button_pressed":6,"time_out":false,"dwell_time":81.283935546875,"response_time":1683917001662.29},{"trial":4,"action":1,"button_pressed":5,"time_out":false,"dwell_time":80.943115234375,"response_time":1683917002145.77},{"trial":4,"action":1,"button_pressed":0,"time_out":false,"dwell_time":81.2841796875,"response_time":1683917002595.27},{"trial":4,"action":1,"button_pressed":11,"time_out":false,"dwell_time":80.5029296875,"response_time":1683917003062.12},{"trial":4,"action":1,"button_pressed":8,"time_out":false,"dwell_time":79.875,"response_time":1683917004510.87},{"trial":4,"action":1,"button_pressed":4,"time_out":false,"dwell_time":81.83203125,"response_time":1683917004945.02},{"trial":4,"action":9,"button_pressed":-1,"time_out":false,"dwell_time":115.39599609375,"response_time":1683917006028.17},{"trial":5,"action":1,"button_pressed":5,"time_out":false,"dwell_time":97.636962890625,"response_time":1683917026504.63},{"trial":5,"action":1,"button_pressed":3,"time_out":false,"dwell_time":97.847900390625,"response_time":1683917027554.46},{"trial":5,"action":1,"button_pressed":8,"time_out":false,"dwell_time":63.30615234375,"response_time":1683917031352.2},{"trial":5,"action":1,"button_pressed":11,"time_out":false,"dwell_time":98.281982421875,"response_time":1683917031836.16},{"trial":5,"action":1,"button_pressed":7,"time_out":false,"dwell_time":113.885009765625,"response_time":1683917032385.14},{"trial":5,"action":1,"button_pressed":10,"time_out":false,"dwell_time":81.77783203125,"response_time":1683917032786.15},{"trial":5,"action":1,"button_pressed":4,"time_out":false,"dwell_time":81.803955078125,"response_time":1683917033235.81},{"trial":5,"action":9,"button_pressed":-1,"time_out":false,"dwell_time":96.52197265625,"response_time":1683917034034.02},{"trial":6,"action":1,"button_pressed":4,"time_out":false,"dwell_time":80.25,"response_time":1683917053961.84},{"trial":6,"action":1,"button_pressed":1,"time_out":false,"dwell_time":148.033935546875,"response_time":1683917059110.8},{"trial":6,"action":1,"button_pressed":9,"time_out":false,"dwell_time":113.844970703125,"response_time":1683917059843.85},{"trial":6,"action":1,"button_pressed":7,"time_out":false,"dwell_time":80.613037109375,"response_time":1683917060060.52},{"trial":6,"action":1,"button_pressed":11,"time_out":false,"dwell_time":82.366943359375,"response_time":1683917060709.81},{"trial":6,"action":1,"button_pressed":6,"time_out":false,"dwell_time":64.719970703125,"response_time":1683917060943.46},{"trial":6,"action":1,"button_pressed":8,"time_out":false,"dwell_time":64.575927734375,"response_time":1683917061243.18},{"trial":6,"action":9,"button_pressed":-1,"time_out":false,"dwell_time":98.161865234375,"response_time":1683917062309.55},{"trial":7,"action":1,"button_pressed":3,"time_out":false,"dwell_time":64.944091796875,"response_time":1683917077038.2},{"trial":7,"action":1,"button_pressed":8,"time_out":false,"dwell_time":97.286865234375,"response_time":1683917077554.02},{"trial":7,"action":1,"button_pressed":4,"time_out":false,"dwell_time":64.364013671875,"response_time":1683917079054.46},{"trial":7,"action":1,"button_pressed":10,"time_out":false,"dwell_time":64.827880859375,"response_time":1683917079370.69},{"trial":7,"action":1,"button_pressed":11,"time_out":false,"dwell_time":47.71484375,"response_time":1683917079670.81},{"trial":7,"action":9,"button_pressed":-1,"time_out":false,"dwell_time":82.444091796875,"response_time":1683917080488.1},{"trial":8,"action":1,"button_pressed":5,"time_out":false,"dwell_time":64.177978515625,"response_time":1683917097814.49},{"trial":8,"action":1,"button_pressed":7,"time_out":false,"dwell_time":97.484130859375,"response_time":1683917098064.98},{"trial":8,"action":1,"button_pressed":10,"time_out":false,"dwell_time":80.2900390625,"response_time":1683917098364.27},{"trial":8,"action":1,"button_pressed":4,"time_out":false,"dwell_time":80.81396484375,"response_time":1683917098681.37},{"trial":8,"action":1,"button_pressed":0,"time_out":false,"dwell_time":80.4169921875,"response_time":1683917099447.74},{"trial":8,"action":1,"button_pressed":8,"time_out":false,"dwell_time":63.136962890625,"response_time":1683917099663.66},{"trial":8,"action":9,"button_pressed":-1,"time_out":false,"dwell_time":98.0400390625,"response_time":1683917101247.47},{"trial":9,"action":1,"button_pressed":2,"time_out":false,"dwell_time":114.261962890625,"response_time":1683917118008.42},{"trial":9,"action":1,"button_pressed":10,"time_out":false,"dwell_time":98.31787109375,"response_time":1683917118674.86},{"trial":9,"action":1,"button_pressed":4,"time_out":false,"dwell_time":98.216064453125,"response_time":1683917119057.87},{"trial":9,"action":1,"button_pressed":9,"time_out":false,"dwell_time":63.2958984375,"response_time":1683917119240.56},{"trial":9,"action":1,"button_pressed":5,"time_out":false,"dwell_time":81.037841796875,"response_time":1683917119707.13},{"trial":9,"action":1,"button_pressed":9,"time_out":false,"dwell_time":81.120849609375,"response_time":1683917121323.71},{"trial":9,"action":0,"button_pressed":-1,"time_out":false,"dwell_time":81.5029296875,"response_time":1683917122790.33},{"trial":9,"action":1,"button_pressed":2,"time_out":false,"dwell_time":114.325927734375,"response_time":1683917124323.19},{"trial":9,"action":1,"button_pressed":10,"time_out":false,"dwell_time":98.173828125,"response_time":1683917124622.96},{"trial":9,"action":1,"button_pressed":0,"time_out":false,"dwell_time":114.889892578125,"response_time":1683917125805.83},{"trial":9,"action":1,"button_pressed":9,"time_out":false,"dwell_time":63.382080078125,"response_time":1683917126038.38},{"trial":9,"action":1,"button_pressed":11,"time_out":false,"dwell_time":80.697998046875,"response_time":1683917126538.79},{"trial":9,"action":1,"button_pressed":5,"time_out":false,"dwell_time":48.193115234375,"response_time":1683917126671.93},{"trial":9,"action":9,"button_pressed":-1,"time_out":false,"dwell_time":97.99609375,"response_time":1683917128355.52}]}