{"meta_data":{"additional_headers":{},"game_name":"Recollect","version":"2.53.01","user_name":"99","organization":"braingamecenter","study":"mpl2_2022_11","session_number":0,"device_id":"74342D95-EE82-45E3-8ADF-48FB3203C5DD"},"data":[{"stage":"Practice","trial":0,"sequence":"6F","letter_input":"F","number_input":"6","is_correct":true,"presentation_start_time":1683917158643.38,"presentation_end_time":1683917161644.95,"response_time":1683917169459.71},{"stage":"Practice","trial":1,"sequence":"G4","letter_input":"G","number_input":"4","is_correct":true,"presentation_start_time":1683917170989.4,"presentation_end_time":1683917173991.01,"response_time":1683917178920.2},{"stage":"Practice","trial":2,"sequence":"3W5","letter_input":"W","number_input":"35","is_correct":true,"presentation_start_time":1683917180453.05,"presentation_end_time":1683917184954.12,"response_time":1683917196647.89},{"stage":"Practice","trial":3,"sequence":"T7L","letter_input":"LT","number_input":"7","is_correct":true,"presentation_start_time":1683917198180.66,"presentation_end_time":1683917202681.8,"response_time":1683917211493.23},{"stage":"Practice","trial":4,"sequence":"9J1","letter_input":"J","number_input":"19","is_correct":true,"presentation_start_time":1683917213025.86,"presentation_end_time":1683917217526.93,"response_time":1683917223239.34},{"stage":"Calibration","trial":0,"sequence":"J3","letter_input":"J","number_input":"3","is_correct":true,"presentation_start_time":1683917227521.25,"presentation_end_time":1683917230522.77,"response_time":1683917234602.38},{"stage":"Calibration","trial":1,"sequence":"1F","letter_input":"F","number_input":"1","is_correct":true,"presentation_start_time":1683917236135.1,"presentation_end_time":1683917239136.58,"response_time":1683917242699.62},{"stage":"Calibration","trial":2,"sequence":"S3E","letter_input":"ES","number_input":"3","is_correct":true,"presentation_start_time":1683917244232.42,"presentation_end_time":1683917248733.64,"response_time":1683917258644.67},{"stage":"Calibration","trial":3,"sequence":"9F7","letter_input":"F","number_input":"79","is_correct":true,"presentation_start_time":1683917260177.26,"presentation_end_time":1683917264678.5,"response_time":1683917269191.15},{"stage":"Calibration","trial":4,"sequence":"M8C3","letter_input":"CM","number_input":"38","is_correct":true,"presentation_start_time":1683917270723.9,"presentation_end_time":1683917276724.5,"response_time":1683917290950.81},{"stage":"Calibration","trial":5,"sequence":"9W2S","letter_input":"SW","number_input":"29","is_correct":true,"presentation_start_time":1683917292483.51,"presentation_end_time":1683917298484.25,"response_time":1683917308078.64},{"stage":"Calibration","trial":6,"sequence":"F7N3L","letter_input":"FLN","number_input":"37","is_correct":true,"presentation_start_time":1683917309611.39,"presentation_end_time":1683917317111.5,"response_time":1683917348532.25},{"stage":"Calibration","trial":7,"sequence":"5V1T8","letter_input":"TV","number_input":"158","is_correct":true,"presentation_start_time":1683917350064.92,"presentation_end_time":1683917357565.17,"response_time":1683917392451.3},{"stage":"Calibration","trial":8,"sequence":"S2N9K4","letter_input":"KNS","number_input":"249","is_correct":true,"presentation_start_time":1683917393984.06,"presentation_end_time":1683917402983.66,"response_time":1683917431588.65},{"stage":"Calibration","trial":9,"sequence":"8J5G1T","letter_input":"ST","number_input":"1838","is_correct":false,"presentation_start_time":1683917433121.46,"presentation_end_time":1683917442121.11,"response_time":1683917464961.21},{"stage":"Calibration","trial":10,"sequence":"P4Z9H7S","letter_input":"P","number_input":"34","is_correct":false,"presentation_start_time":1683917466493.97,"presentation_end_time":1683917476993.17,"response_time":1683917488453.58},{"stage":"Calibration","trial":11,"sequence":"6M3G8D1","letter_input":"DGN","number_input":"14","is_correct":false,"presentation_start_time":1683917489986.23,"presentation_end_time":1683917500485.57,"response_time":1683917509796.8}]}