{"meta_data":{"additional_headers":{},"game_name":"Recollect","version":"2.53.01","user_name":"9","organization":"braingamecenter","study":"mpl2_2022_11","session_number":0,"device_id":"74342D95-EE82-45E3-8ADF-48FB3203C5DD"},"data":[{"trial":0,"action":1,"button_pressed":9,"time_out":false,"dwell_time":47.587890625,"response_time":1675823030691.76},{"trial":0,"action":1,"button_pressed":1,"time_out":false,"dwell_time":65.451904296875,"response_time":1675823030975.3},{"trial":0,"action":9,"button_pressed":-1,"time_out":false,"dwell_time":27.27099609375,"response_time":1675823031801.36},{"trial":1,"action":1,"button_pressed":4,"time_out":false,"dwell_time":63.884033203125,"response_time":1675823041171.13},{"trial":1,"action":1,"button_pressed":7,"time_out":false,"dwell_time":64.14794921875,"response_time":1675823041487.54},{"trial":1,"action":1,"button_pressed":10,"time_out":false,"dwell_time":47.865966796875,"response_time":1675823041788},{"trial":1,"action":9,"button_pressed":-1,"time_out":false,"dwell_time":48.740966796875,"response_time":1675823042304.88},{"trial":2,"action":1,"button_pressed":11,"time_out":false,"dwell_time":80.43408203125,"response_time":1675823054100.36},{"trial":2,"action":1,"button_pressed":0,"time_out":false,"dwell_time":98.587890625,"response_time":1675823054484.03},{"trial":2,"action":1,"button_pressed":4,"time_out":false,"dwell_time":81.843994140625,"response_time":1675823054733.87},{"trial":2,"action":1,"button_pressed":1,"time_out":false,"dwell_time":64.5439453125,"response_time":1675823054983.16},{"trial":2,"action":9,"button_pressed":-1,"time_out":false,"dwell_time":50.265869140625,"response_time":1675823056184.29},{"trial":3,"action":1,"button_pressed":0,"time_out":false,"dwell_time":98.3330078125,"response_time":1675823070595.43},{"trial":3,"action":1,"button_pressed":7,"time_out":false,"dwell_time":98.47802734375,"response_time":1675823070928.6},{"trial":3,"action":1,"button_pressed":10,"time_out":false,"dwell_time":97.612060546875,"response_time":1675823071228.43},{"trial":3,"action":1,"button_pressed":4,"time_out":false,"dwell_time":64.10791015625,"response_time":1675823071544.98},{"trial":3,"action":1,"button_pressed":1,"time_out":false,"dwell_time":81.89013671875,"response_time":1675823071878.28},{"trial":3,"action":9,"button_pressed":-1,"time_out":false,"dwell_time":64.758056640625,"response_time":1675823072261.88},{"trial":4,"action":1,"button_pressed":8,"time_out":false,"dwell_time":64.52197265625,"response_time":1675823088955.41},{"trial":4,"action":1,"button_pressed":0,"time_out":false,"dwell_time":49.06396484375,"response_time":1675823089356.22},{"trial":4,"action":1,"button_pressed":1,"time_out":false,"dwell_time":31.44091796875,"response_time":1675823089672.71},{"trial":4,"action":1,"button_pressed":9,"time_out":false,"dwell_time":65.115966796875,"response_time":1675823089988.88},{"trial":4,"action":1,"button_pressed":3,"time_out":false,"dwell_time":48.29296875,"response_time":1675823090239.29},{"trial":4,"action":1,"button_pressed":5,"time_out":false,"dwell_time":47.507080078125,"response_time":1675823090688.4},{"trial":4,"action":9,"button_pressed":-1,"time_out":false,"dwell_time":48.712158203125,"response_time":1675823091056.22},{"trial":5,"action":1,"button_pressed":7,"time_out":false,"dwell_time":64.242919921875,"response_time":1675823110315.51},{"trial":5,"action":1,"button_pressed":11,"time_out":false,"dwell_time":30.8837890625,"response_time":1675823110715.24},{"trial":5,"action":1,"button_pressed":0,"time_out":false,"dwell_time":48.14892578125,"response_time":1675823111132.39},{"trial":5,"action":1,"button_pressed":3,"time_out":false,"dwell_time":48.25,"response_time":1675823111864.72},{"trial":5,"action":1,"button_pressed":9,"time_out":false,"dwell_time":48.346923828125,"response_time":1675823112248.04},{"trial":5,"action":1,"button_pressed":5,"time_out":false,"dwell_time":64.678955078125,"response_time":1675823112580.86},{"trial":5,"action":1,"button_pressed":6,"time_out":false,"dwell_time":48.31005859375,"response_time":1675823112831.3},{"trial":5,"action":9,"button_pressed":-1,"time_out":false,"dwell_time":82.4072265625,"response_time":1675823113765},{"trial":6,"action":1,"button_pressed":1,"time_out":false,"dwell_time":80.785888671875,"response_time":1675823135773.41},{"trial":6,"action":1,"button_pressed":10,"time_out":false,"dwell_time":64.31787109375,"response_time":1675823136006.34},{"trial":6,"action":1,"button_pressed":0,"time_out":false,"dwell_time":48.1669921875,"response_time":1675823136357.35},{"trial":6,"action":1,"button_pressed":2,"time_out":false,"dwell_time":47.52587890625,"response_time":1675823136639.91},{"trial":6,"action":1,"button_pressed":3,"time_out":false,"dwell_time":65.1630859375,"response_time":1675823136990.06},{"trial":6,"action":1,"button_pressed":7,"time_out":false,"dwell_time":30.759033203125,"response_time":1675823138389.29},{"trial":6,"action":1,"button_pressed":9,"time_out":false,"dwell_time":48.22412109375,"response_time":1675823138723.34},{"trial":6,"action":1,"button_pressed":4,"time_out":false,"dwell_time":48.006103515625,"response_time":1675823139006.54},{"trial":6,"action":9,"button_pressed":-1,"time_out":false,"dwell_time":65.60498046875,"response_time":1675823139356.39},{"trial":7,"action":1,"button_pressed":9,"time_out":false,"dwell_time":64.960205078125,"response_time":1675823164614.08},{"trial":7,"action":1,"button_pressed":8,"time_out":false,"dwell_time":48.23291015625,"response_time":1675823165413.8},{"trial":7,"action":1,"button_pressed":2,"time_out":false,"dwell_time":48.198974609375,"response_time":1675823165714.33},{"trial":7,"action":1,"button_pressed":6,"time_out":false,"dwell_time":48.23095703125,"response_time":1675823166080.3},{"trial":7,"action":1,"button_pressed":5,"time_out":false,"dwell_time":30.779052734375,"response_time":1675823166463.33},{"trial":7,"action":1,"button_pressed":11,"time_out":false,"dwell_time":31.469970703125,"response_time":1675823167013.88},{"trial":7,"action":1,"button_pressed":4,"time_out":false,"dwell_time":48.648193359375,"response_time":1675823168662.98},{"trial":7,"action":1,"button_pressed":10,"time_out":false,"dwell_time":32.318115234375,"response_time":1675823169063.34},{"trial":7,"action":1,"button_pressed":1,"time_out":false,"dwell_time":81.06201171875,"response_time":1675823169545.97},{"trial":7,"action":9,"button_pressed":-1,"time_out":false,"dwell_time":17.988037109375,"response_time":1675823170096.43},{"trial":8,"action":1,"button_pressed":4,"time_out":false,"dwell_time":48.2841796875,"response_time":1675823196470.22},{"trial":8,"action":1,"button_pressed":7,"time_out":false,"dwell_time":80.093017578125,"response_time":1675823196952.97},{"trial":8,"action":1,"button_pressed":1,"time_out":false,"dwell_time":64.548095703125,"response_time":1675823197369.48},{"trial":8,"action":1,"button_pressed":10,"time_out":false,"dwell_time":47.9150390625,"response_time":1675823197987.03},{"trial":8,"action":1,"button_pressed":2,"time_out":false,"dwell_time":48.234130859375,"response_time":1675823198436.09},{"trial":8,"action":1,"button_pressed":9,"time_out":false,"dwell_time":65.005126953125,"response_time":1675823201451.98},{"trial":8,"action":1,"button_pressed":8,"time_out":false,"dwell_time":65.050048828125,"response_time":1675823201851.94},{"trial":8,"action":1,"button_pressed":5,"time_out":false,"dwell_time":63.47802734375,"response_time":1675823204017.29},{"trial":8,"action":1,"button_pressed":6,"time_out":false,"dwell_time":48.8369140625,"response_time":1675823204451.55},{"trial":8,"action":9,"button_pressed":-1,"time_out":false,"dwell_time":65.10595703125,"response_time":1675823205150.83},{"trial":9,"action":1,"button_pressed":3,"time_out":false,"dwell_time":97.884033203125,"response_time":1675823224961.17},{"trial":9,"action":1,"button_pressed":0,"time_out":false,"dwell_time":48.510986328125,"response_time":1675823225177.43},{"trial":9,"action":1,"button_pressed":10,"time_out":false,"dwell_time":48.099853515625,"response_time":1675823225394.6},{"trial":9,"action":1,"button_pressed":5,"time_out":false,"dwell_time":30.695068359375,"response_time":1675823225743.84},{"trial":9,"action":1,"button_pressed":4,"time_out":false,"dwell_time":48.10693359375,"response_time":1675823226127.62},{"trial":9,"action":1,"button_pressed":1,"time_out":false,"dwell_time":31.93701171875,"response_time":1675823226344.22},{"trial":9,"action":1,"button_pressed":2,"time_out":false,"dwell_time":48.217041015625,"response_time":1675823227027.42},{"trial":9,"action":9,"button_pressed":-1,"time_out":false,"dwell_time":82.071044921875,"response_time":1675823228826.9},{"trial":10,"action":1,"button_pressed":11,"time_out":false,"dwell_time":49.217041015625,"response_time":1675823251086.42},{"trial":10,"action":1,"button_pressed":3,"time_out":false,"dwell_time":48.203125,"response_time":1675823251402.62},{"trial":10,"action":1,"button_pressed":9,"time_out":false,"dwell_time":65.068115234375,"response_time":1675823251668.78},{"trial":10,"action":1,"button_pressed":7,"time_out":false,"dwell_time":30.652099609375,"response_time":1675823251951.79},{"trial":10,"action":1,"button_pressed":4,"time_out":false,"dwell_time":64.656982421875,"response_time":1675823252584.67},{"trial":10,"action":1,"button_pressed":10,"time_out":false,"dwell_time":64.82421875,"response_time":1675823255050.98},{"trial":10,"action":1,"button_pressed":2,"time_out":false,"dwell_time":48.4560546875,"response_time":1675823255350.79},{"trial":10,"action":1,"button_pressed":1,"time_out":false,"dwell_time":48.739013671875,"response_time":1675823255717.77},{"trial":10,"action":9,"button_pressed":-1,"time_out":false,"dwell_time":48.656982421875,"response_time":1675823256284.92},{"trial":11,"action":1,"button_pressed":7,"time_out":false,"dwell_time":63.8388671875,"response_time":1675823281159.08},{"trial":11,"action":1,"button_pressed":5,"time_out":false,"dwell_time":64.47998046875,"response_time":1675823281458.51},{"trial":11,"action":1,"button_pressed":3,"time_out":false,"dwell_time":64.4248046875,"response_time":1675823282392.05},{"trial":11,"action":1,"button_pressed":4,"time_out":false,"dwell_time":64.31103515625,"response_time":1675823282691.97},{"trial":11,"action":1,"button_pressed":1,"time_out":false,"dwell_time":48.119140625,"response_time":1675823283041.62},{"trial":11,"action":1,"button_pressed":10,"time_out":false,"dwell_time":48.152099609375,"response_time":1675823283409.11},{"trial":11,"action":1,"button_pressed":2,"time_out":false,"dwell_time":48.299072265625,"response_time":1675823283825.58},{"trial":11,"action":1,"button_pressed":8,"time_out":false,"dwell_time":30.4091796875,"response_time":1675823284074.66},{"trial":11,"action":9,"button_pressed":-1,"time_out":false,"dwell_time":65.629150390625,"response_time":1675823285141.73},{"trial":12,"action":1,"button_pressed":11,"time_out":false,"dwell_time":81.160888671875,"response_time":1675823311582.15},{"trial":12,"action":1,"button_pressed":9,"time_out":false,"dwell_time":64.93310546875,"response_time":1675823311865.68},{"trial":12,"action":1,"button_pressed":0,"time_out":false,"dwell_time":48.31103515625,"response_time":1675823312232.78},{"trial":12,"action":1,"button_pressed":2,"time_out":false,"dwell_time":47.632080078125,"response_time":1675823312531.91},{"trial":12,"action":1,"button_pressed":7,"time_out":false,"dwell_time":47.906005859375,"response_time":1675823312982.43},{"trial":12,"action":1,"button_pressed":6,"time_out":false,"dwell_time":48.241943359375,"response_time":1675823313499.14},{"trial":12,"action":1,"button_pressed":8,"time_out":false,"dwell_time":30.825927734375,"response_time":1675823313931.46},{"trial":12,"action":1,"button_pressed":1,"time_out":false,"dwell_time":31.39794921875,"response_time":1675823314297.92},{"trial":12,"action":1,"button_pressed":10,"time_out":false,"dwell_time":30.6171875,"response_time":1675823314647.79},{"trial":12,"action":9,"button_pressed":-1,"time_out":false,"dwell_time":16.85693359375,"response_time":1675823315080.74},{"trial":13,"action":1,"button_pressed":10,"time_out":false,"dwell_time":48.489990234375,"response_time":1675823341422.71},{"trial":13,"action":1,"button_pressed":2,"time_out":false,"dwell_time":48.868896484375,"response_time":1675823341806.29},{"trial":13,"action":1,"button_pressed":7,"time_out":false,"dwell_time":80.1611328125,"response_time":1675823342338.24},{"trial":13,"action":1,"button_pressed":9,"time_out":false,"dwell_time":48.631103515625,"response_time":1675823342589.13},{"trial":13,"action":1,"button_pressed":1,"time_out":false,"dwell_time":64.302978515625,"response_time":1675823343787.73},{"trial":13,"action":1,"button_pressed":3,"time_out":false,"dwell_time":64.649169921875,"response_time":1675823345253.93},{"trial":13,"action":1,"button_pressed":5,"time_out":false,"dwell_time":48.89208984375,"response_time":1675823345721.6},{"trial":13,"action":1,"button_pressed":6,"time_out":false,"dwell_time":48.64697265625,"response_time":1675823346071.35},{"trial":13,"action":1,"button_pressed":11,"time_out":false,"dwell_time":48.31103515625,"response_time":1675823346321.49},{"trial":13,"action":9,"button_pressed":-1,"time_out":false,"dwell_time":65.01220703125,"response_time":1675823348653.83}]}