{"meta_data":{"additional_headers":{},"game_name":"Recollect","version":"2.53.01","user_name":"9","organization":"braingamecenter","study":"mpl2_2022_11","session_number":0,"device_id":"74342D95-EE82-45E3-8ADF-48FB3203C5DD"},"data":[{"stage":"Practice","trial":0,"sequence":"6F","letter_input":"F","number_input":"6","is_correct":true,"presentation_start_time":1675823365213.08,"presentation_end_time":1675823368213.36,"response_time":1675823374280.05},{"stage":"Practice","trial":1,"sequence":"G4","letter_input":"G","number_input":"4","is_correct":true,"presentation_start_time":1675823375809.54,"presentation_end_time":1675823378809.84,"response_time":1675823383457.2},{"stage":"Practice","trial":2,"sequence":"3W5","letter_input":"W","number_input":"35","is_correct":true,"presentation_start_time":1675823384989.94,"presentation_end_time":1675823389489.51,"response_time":1675823393070.66},{"stage":"Practice","trial":3,"sequence":"T7L","letter_input":"LT","number_input":"7","is_correct":true,"presentation_start_time":1675823394603.32,"presentation_end_time":1675823399103.12,"response_time":1675823403000.69},{"stage":"Practice","trial":4,"sequence":"9J1","letter_input":"J","number_input":"19","is_correct":true,"presentation_start_time":1675823404533.43,"presentation_end_time":1675823409033.05,"response_time":1675823412414.29},{"stage":"Calibration","trial":0,"sequence":"3N","letter_input":"N","number_input":"3","is_correct":true,"presentation_start_time":1675823424876.69,"presentation_end_time":1675823427876.99,"response_time":1675823430691.53},{"stage":"Calibration","trial":1,"sequence":"H4","letter_input":"H","number_input":"4","is_correct":true,"presentation_start_time":1675823432224.28,"presentation_end_time":1675823435224.52,"response_time":1675823437972.39},{"stage":"Calibration","trial":2,"sequence":"9D3","letter_input":"D","number_input":"39","is_correct":true,"presentation_start_time":1675823439505.13,"presentation_end_time":1675823444004.89,"response_time":1675823447069.53},{"stage":"Calibration","trial":3,"sequence":"R4A","letter_input":"AR","number_input":"4","is_correct":true,"presentation_start_time":1675823448602.15,"presentation_end_time":1675823453101.75,"response_time":1675823465230.15},{"stage":"Calibration","trial":4,"sequence":"7S2L","letter_input":"LS","number_input":"27","is_correct":true,"presentation_start_time":1675823466762.93,"presentation_end_time":1675823472762.18,"response_time":1675823475959.85},{"stage":"Calibration","trial":5,"sequence":"Z9M4","letter_input":"MZ","number_input":"49","is_correct":true,"presentation_start_time":1675823477492.57,"presentation_end_time":1675823483491.78,"response_time":1675823487405.98},{"stage":"Calibration","trial":6,"sequence":"7K5A2","letter_input":"AK","number_input":"257","is_correct":true,"presentation_start_time":1675823488938.71,"presentation_end_time":1675823496437.49,"response_time":1675823509615.36},{"stage":"Calibration","trial":7,"sequence":"F8D1N","letter_input":"DFN","number_input":"18","is_correct":true,"presentation_start_time":1675823511148.08,"presentation_end_time":1675823518646.88,"response_time":1675823533307.52},{"stage":"Calibration","trial":8,"sequence":"9H7V2R","letter_input":"HRV","number_input":"279","is_correct":true,"presentation_start_time":1675823534840.26,"presentation_end_time":1675823543838.53,"response_time":1675823552251.22},{"stage":"Calibration","trial":9,"sequence":"C4W1N6","letter_input":"CW","number_input":"146","is_correct":false,"presentation_start_time":1675823553783.96,"presentation_end_time":1675823562782.16,"response_time":1675823573777.32},{"stage":"Calibration","trial":10,"sequence":"9R2G7E5","letter_input":"EGR","number_input":"927","is_correct":false,"presentation_start_time":1675823575310.16,"presentation_end_time":1675823585807.83,"response_time":1675823603967.29},{"stage":"Calibration","trial":11,"sequence":"T6P3Z8W","letter_input":"PTWZ","number_input":"386","is_correct":false,"presentation_start_time":1675823605500.08,"presentation_end_time":1675823615997.76,"response_time":1675823630841.74}]}