filePaths,rhythm,stim1,stim2,stim3,stim4,stim5,stim6,stim1Start,stim1End,stim2Start,stim2End,stim3Start,stim3End,stim4Start,stim4End,stim5Start,stim5End,stim6Start,stim6End,audFile,audStart,similCat,rhythm_i2,stim1_i2,stim2_i2,stim3_i2,stim4_i2,stim5_i2,stim6_i2,stim1Start_i2,stim1End_i2,stim2Start_i2,stim2End_i2,stim3Start_i2,stim3End_i2,stim4Start_i2,stim4End_i2,stim5Start_i2,stim5End_i2,stim6Start_i2,stim6End_i2,audFile_i2,audStart_i2,similCat_i2,setVol,corrMatchAnswer,overallRhythmOrder.thisRepN,overallRhythmOrder.thisTrialN,overallRhythmOrder.thisN,overallRhythmOrder.thisIndex,AudVisRhythmLoop.thisRepN,AudVisRhythmLoop.thisTrialN,AudVisRhythmLoop.thisN,AudVisRhythmLoop.thisIndex,text_3.started,goToNext.started,goToNext.keys,goToNext.rt,variableInstructions.started,goToBlockKey.started,goToBlockKey.keys,goToBlockKey.rt,text_2.started,preFix.started,preFix.stopped,holdFix.started,audioTrialSound.started,cir1.started,cir1.stopped,cir2.started,cir2.stopped,cir3.started,cir3.stopped,cir4.started,cir4.stopped,cir5.started,cir5.stopped,cir6.started,holdFix.stopped,cir6.stopped,text.started,text.stopped,holdFix_i2.started,audioTrialSound_i2.started,cir1_i2.started,cir1_i2.stopped,cir2_i2.started,cir2_i2.stopped,cir3_i2.started,cir3_i2.stopped,cir4_i2.started,cir4_i2.stopped,cir5_i2.started,cir5_i2.stopped,cir6_i2.started,cir6_i2.stopped,holdFix_i2.stopped,rhythmChoice.started,promptTxt.started,rhythmChoice.keys,rhythmChoice.rt,text_5.started,text_5.stopped,text_2.stopped,breatheBro.started,image.started,participant,session,date,expName,psychopyVersion,frameRate,
,,,,,,,,,,,,,,,,,,,,,,,,,,,,,,,,,,,,,,,,,,,,,,,,,,,,,,,18.278986375997192,18.464719455005252,space,20.311975570002687,,,,,,,,,,,,,,,,,,,,,,,,,,,,,,,,,,,,,,,,,,,,,,,,,p4,001,2023-01-31_12h32.18.812,Cognition2_FullCode1,2022.2.5,99.98534215071689,
/Users/shamslab/Desktop/Cognition2_FullExperimentFile/p4_VisualBlock1.csv,23,2,1,2,1,1,2,11,41,56,61,76,106,121,126,141,146,161,191,3_audFile.wav,10,6,23,2,1,2,1,1,2,11,41,56,61,76,106,121,126,141,146,161,191,3_audFile.wav,10,6,0,1,0,0,0,0,0,0,0,13,,,,,38.9005495839956,39.00058933800028,space,4.295752984005958,43.341800622001756,43.512007686993456,44.5121827069961,44.532168830002774,44.631984897605435,44.642224776005605,44.94238621799741,45.09231617000478,45.14238134199695,45.29245627199998,45.59252666099928,45.7424897650053,45.79267660599726,45.94254682099563,45.992627208004706,46.14266217200202,46.39267898899561,46.442835501002264,46.442835501002264,47.75315049600613,47.75315049600613,47.852991477593605,47.863204338005744,48.1631159200042,48.3132284089952,48.36338162899483,48.51326993800467,48.8135211399931,48.96351850699284,49.013651201006724,49.16348672899767,49.2137041399983,49.36368425900582,49.663706399995135,50.11385958000028,50.11385958000028,50.11385958000028,1,1.615353478002362,51.75412292400142,,,,,p4,001,2023-01-31_12h32.18.812,Cognition2_FullCode1,2022.2.5,99.98534215071689,
/Users/shamslab/Desktop/Cognition2_FullExperimentFile/p4_VisualBlock1.csv,24,1,2,2,1,1,2,11,16,31,61,76,106,121,126,141,146,161,191,3_audFile.wav,10,5,22,1,2,1,2,2,1,11,16,31,61,76,81,96,126,141,171,186,191,3_audFile.wav,10,5,0,2,0,0,0,0,0,1,1,5,,,,,,,,,53.25473082899407,53.44482474599499,54.44510686300055,54.455038444997626,54.55481552960555,54.565042086003814,54.615089896993595,54.76506408699788,55.06519326999842,55.21516178500315,55.51521637500264,55.6655157829955,55.71535975400184,55.865327238003374,55.91549145799945,56.065421146995504,56.315533474000404,56.36565064599563,56.36565064599563,57.66604629700305,57.66604629700305,57.76568430360203,57.77588214700518,57.82593797899608,57.97606562500005,58.27606403299433,58.42614385900379,58.47614452599373,58.62630202200671,58.92635644499387,59.076300226006424,59.376483674001065,59.52649879199453,59.576478970993776,60.02657022399944,60.02657022399944,60.02657022399944,2,2.935302473997581,62.98738492200209,,,,,p4,001,2023-01-31_12h32.18.812,Cognition2_FullCode1,2022.2.5,99.98534215071689,
/Users/shamslab/Desktop/Cognition2_FullExperimentFile/p4_VisualBlock1.csv,26,1,2,1,2,1,2,11,16,31,61,76,81,96,126,141,146,161,191,3_audFile.wav,10,5,26,1,2,1,2,1,2,11,16,31,61,76,81,96,126,141,146,161,191,3_audFile.wav,10,5,0,1,0,0,0,0,0,2,2,2,,,,,,,,,64.48788164000143,64.6679018339928,65.668165983996,65.68816465100099,65.78813692159747,65.79825941300078,65.84822448600607,65.99834736500634,66.29831083500176,66.44847691600444,66.49841945599474,66.64846860599937,66.94848840399936,67.09867530400516,67.14869898400502,67.2987061629974,67.54886740399525,67.59877318399958,67.59877318399958,68.89934000599897,68.89934000599897,68.99899997459579,69.00917718900018,69.05929075099993,69.20919753299677,69.50930800099741,69.65933246200439,69.70928598099272,69.85951083200052,70.15947857299761,70.30945329800306,70.35954622499412,70.50968252999883,70.8096926510043,71.26005208099377,71.26005208099377,71.26005208099377,1,0.5167758189927554,71.79992283300089,,,,,p4,001,2023-01-31_12h32.18.812,Cognition2_FullCode1,2022.2.5,99.98534215071689,
/Users/shamslab/Desktop/Cognition2_FullExperimentFile/p4_VisualBlock1.csv,17,2,1,2,2,1,1,11,41,56,61,76,106,121,151,166,171,186,191,3_audFile.wav,10,6,17,2,1,2,2,1,1,11,41,56,61,76,106,121,151,166,171,186,191,3_audFile.wav,10,6,0,1,0,0,0,0,0,3,3,12,,,,,,,,,73.30047598099918,73.48047401200165,74.48076799699629,74.50085722299991,74.60051870259485,74.61079905299994,74.91081707700505,75.06084335199557,75.11098175799998,75.26094395399559,75.56102998999995,75.71107665200543,76.01107446900278,76.16114755099989,76.21122817399737,76.36117331299465,76.36117331299465,76.41138166299788,76.41138166299788,77.71172988100443,77.71172988100443,77.81158376359235,77.82168453300255,78.12175407999894,78.27179606299615,78.3218847859971,78.47191128600389,78.77202305699757,78.9220462020021,79.22213922199444,79.37214766199759,79.42220119699778,79.57229118299438,79.62218911100354,80.07228512999427,80.07228512999427,80.07228512999427,1,0.4561781429947587,80.5525159079989,,,,,p4,001,2023-01-31_12h32.18.812,Cognition2_FullCode1,2022.2.5,99.98534215071689,
/Users/shamslab/Desktop/Cognition2_FullExperimentFile/p4_VisualBlock1.csv,17,2,1,2,2,1,1,11,41,56,61,76,106,121,151,166,171,186,191,3_audFile.wav,10,6,25,2,1,1,2,1,2,11,41,56,61,76,81,96,126,141,146,161,191,3_audFile.wav,10,6,0,2,0,0,0,0,0,4,4,1,,,,,,,,,82.05288341800042,82.23292444100662,83.23317536899413,83.25326565100113,83.35309991260146,83.36327780100692,83.66337491199374,83.81340841999918,83.86344845200074,84.01346098800423,84.31357754599594,84.46362052499899,84.7636318510049,84.91365894000046,84.96374387000105,85.11392385099316,85.11392385099316,85.16377937000652,85.16377937000652,86.4642423470068,86.4642423470068,86.56399611160305,86.5741324559931,86.87424267400638,87.02432892400248,87.07422624000174,87.22440085699782,87.27435307799897,87.42441542400047,87.72449337900616,87.87448077800218,87.9245500889956,88.07462523400318,88.37465550299385,88.82481765600096,88.82481765600096,88.82481765600096,2,0.31188053800724447,89.16495473899704,,,,,p4,001,2023-01-31_12h32.18.812,Cognition2_FullCode1,2022.2.5,99.98534215071689,
/Users/shamslab/Desktop/Cognition2_FullExperimentFile/p4_VisualBlock1.csv,29,1,1,2,1,2,2,11,16,31,36,51,81,96,101,116,146,161,191,3_audFile.wav,10,4,27,1,1,2,2,1,2,11,16,31,36,51,81,96,126,141,146,161,191,3_audFile.wav,10,4,0,2,0,0,0,0,0,5,5,25,,,,,,,,,90.66536785000062,90.85535883500415,91.85572453700297,91.86576789899846,91.96560712559585,91.9757030079927,92.02568095599418,92.17573850200279,92.22568074399896,92.3757732679951,92.67590364199714,92.82607612200081,92.87597907900636,93.02589555899613,93.32619447199977,93.4761929929955,93.72627359400212,93.77615550300106,93.77615550300106,95.07695856700593,95.07695856700593,95.17651600759564,95.18664820599952,95.23675707199436,95.38664409400371,95.43681033700705,95.5867532179982,95.88685345600243,96.03680211800383,96.33701900599408,96.48695609500282,96.53703118600242,96.68715634600085,96.98723194299964,97.43740888299362,97.43740888299362,97.43740888299362,2,0.3955999720055843,97.85734631499508,,,,,p4,001,2023-01-31_12h32.18.812,Cognition2_FullCode1,2022.2.5,99.98534215071689,
/Users/shamslab/Desktop/Cognition2_FullExperimentFile/p4_VisualBlock1.csv,21,2,1,1,2,2,1,11,41,56,61,76,81,96,126,141,171,186,191,3_audFile.wav,10,6,23,2,1,2,1,1,2,11,41,56,61,76,106,121,126,141,146,161,191,3_audFile.wav,10,6,0,2,0,0,0,0,0,6,6,7,,,,,,,,,99.35790694599564,99.54785931699735,100.54818919100217,100.55819968599826,100.6579962866017,100.66816690699488,100.96828143199673,101.11829414000385,101.16841104300693,101.31832547200611,101.36840962000133,101.51844042200537,101.81859111999802,101.96866313999635,102.2687004449981,102.41863420100708,102.41863420100708,102.46874429300078,102.46874429300078,103.76929661100439,103.76929661100439,103.86899524259934,103.87909020099323,104.17925750899303,104.32914850499947,104.37927626399323,104.52938704499684,104.82931381100207,104.9793955829955,105.02950541500468,105.17951846899814,105.22953832900384,105.37957693099452,105.67964692199894,106.12983102399448,106.12983102399448,106.12983102399448,2,0.4869565070112003,106.63999956900079,,,,,p4,001,2023-01-31_12h32.18.812,Cognition2_FullCode1,2022.2.5,99.98534215071689,
/Users/shamslab/Desktop/Cognition2_FullExperimentFile/p4_VisualBlock1.csv,26,1,2,1,2,1,2,11,16,31,61,76,81,96,126,141,146,161,191,3_audFile.wav,10,5,20,1,2,2,1,2,1,11,16,31,61,76,106,121,126,141,171,186,191,3_audFile.wav,10,5,0,2,0,0,0,0,0,7,7,23,,,,,,,,,108.14039607999439,108.33034013499855,109.33072398000513,109.34075961899362,109.44055807559198,109.45074716200179,109.50069739400351,109.65069676400162,109.95086490899848,110.10086295699875,110.15093092000461,110.30090503400424,110.60108567199495,110.75106160200085,110.80112469299638,110.95114395799465,111.20115433400497,111.25117853899428,111.25117853899428,112.55171672999859,112.55171672999859,112.65140775260079,112.66150000700145,112.71164503900218,112.86165881100169,113.16176122199977,113.31183789100032,113.61197318599443,113.76197686599335,113.81199726299383,113.96210429999337,114.26209221700265,114.41214344599575,114.46229359299468,114.91240758600179,114.91240758600179,114.91240758600179,2,0.40867389499908313,115.34246790100588,,,,,p4,001,2023-01-31_12h32.18.812,Cognition2_FullCode1,2022.2.5,99.98534215071689,
/Users/shamslab/Desktop/Cognition2_FullExperimentFile/p4_VisualBlock1.csv,20,1,2,2,1,2,1,11,16,31,61,76,106,121,126,141,171,186,191,3_audFile.wav,10,5,20,1,2,2,1,2,1,11,16,31,61,76,106,121,126,141,171,186,191,3_audFile.wav,10,5,0,1,0,0,0,0,0,8,8,26,,,,,,,,,116.84274186000403,117.0329804590001,118.03326256900618,118.04330270999344,118.14298199860059,118.1532771820057,118.20329156599473,118.35318985900085,118.65326848799305,118.80344272099319,119.103546422004,119.25363738200394,119.30341402899649,119.45354020599916,119.75368662900291,119.9037432979967,119.9037432979967,119.95385597199493,119.95385597199493,121.25414875900606,121.25414875900606,121.3538985316045,121.36409612899297,121.41418651900312,121.56421270499413,121.86422524499358,122.01420958900417,122.3144481000054,122.4643765350047,122.51453797900467,122.66452575399308,122.96465947000252,123.1146532779967,123.16469750400574,123.61485454799549,123.61485454799549,123.61485454799549,1,0.24299318999692332,123.88491085599526,,,,,p4,001,2023-01-31_12h32.18.812,Cognition2_FullCode1,2022.2.5,99.98534215071689,
/Users/shamslab/Desktop/Cognition2_FullExperimentFile/p4_VisualBlock1.csv,19,2,1,2,1,2,1,11,41,56,61,76,106,121,126,141,171,186,191,3_audFile.wav,10,6,23,2,1,2,1,1,2,11,41,56,61,76,106,121,126,141,146,161,191,3_audFile.wav,10,6,0,2,0,0,0,0,0,9,9,15,,,,,,,,,125.38531038000656,125.57537488700473,126.57558405399323,126.58560610699351,126.68549549759337,126.69551200000569,126.99575745800394,127.14579731799313,127.1957961129956,127.34580782499688,127.64592594199348,127.79599740600679,127.84602890899987,127.9960375889932,128.2960881619947,128.44619297799363,128.44619297799363,128.49616721499478,128.49616721499478,129.8064782339934,129.8064782339934,129.90646047759947,129.91663213500578,130.21673227500287,130.36666640400654,130.41670064900245,130.56681538600242,130.86690466399887,131.01698046800448,131.06694154199795,131.2170452769933,131.2669511980057,131.41707490799308,131.71702565500163,132.1673051060061,132.1673051060061,132.1673051060061,2,0.33016956599021796,132.5173170430062,,,,,p4,001,2023-01-31_12h32.18.812,Cognition2_FullCode1,2022.2.5,99.98534215071689,
/Users/shamslab/Desktop/Cognition2_FullExperimentFile/p4_VisualBlock1.csv,28,1,2,1,1,2,2,11,16,31,61,76,81,96,101,116,146,161,191,3_audFile.wav,10,5,28,1,2,1,1,2,2,11,16,31,61,76,81,96,101,116,146,161,191,3_audFile.wav,10,5,0,1,0,0,0,0,0,10,10,29,,,,,,,,,134.01774005100015,134.20790654800658,135.20825480700296,135.21820300200488,135.31796781559387,135.3281666260009,135.3781917699962,135.52817963399866,135.82813414100383,135.97825661700335,136.02824387099827,136.17827289599518,136.22839747999387,136.37835403099598,136.67844252299983,136.828646725,137.07865106100508,137.1286471659987,137.1286471659987,138.42928041100095,138.42928041100095,138.52879923760338,138.53899628200452,138.58896587199706,138.73897333600326,139.0391769800044,139.18913964400417,139.23922261300322,139.3892471230065,139.43930453900248,139.589359110003,139.88947921099316,140.03952443499293,140.3395284760045,140.78970211000706,140.78970211000706,140.78970211000706,1,0.21963654601131566,141.02974496300158,,,,,p4,001,2023-01-31_12h32.18.812,Cognition2_FullCode1,2022.2.5,99.98534215071689,
/Users/shamslab/Desktop/Cognition2_FullExperimentFile/p4_VisualBlock1.csv,18,2,2,1,1,2,1,11,41,56,86,101,106,121,126,141,171,186,191,3_audFile.wav,10,7,16,2,2,1,2,1,1,11,41,56,86,101,106,121,151,166,171,186,191,3_audFile.wav,10,7,0,2,0,0,0,0,0,11,11,18,,,,,,,,,142.53005093800311,142.72027474400238,143.72060971800238,143.7307268690056,143.83041255959688,143.84061388099508,144.14057307399344,144.29066415100533,144.5907399639982,144.7409015209996,144.79072678000375,144.94091459999618,144.9908130709955,145.1410143450048,145.44096185399394,145.59129743899393,145.59129743899393,145.64115263200074,145.64115263200074,146.94148547199438,146.94148547199438,147.0412246295964,147.05134103700402,147.351593504005,147.50165448299958,147.80160229999456,147.9516933230043,148.00178230300662,148.15166147099808,148.4518332919979,148.60192482899583,148.6519964409963,148.80204350200074,148.85202887200285,149.30219428800046,149.30219428800046,149.30219428800046,1,0.5870293260086328,149.91230749299575,,,,,p4,001,2023-01-31_12h32.18.812,Cognition2_FullCode1,2022.2.5,99.98534215071689,
/Users/shamslab/Desktop/Cognition2_FullExperimentFile/p4_VisualBlock1.csv,27,1,1,2,2,1,2,11,16,31,36,51,81,96,126,141,146,161,191,3_audFile.wav,10,4,29,1,1,2,1,2,2,11,16,31,36,51,81,96,101,116,146,161,191,3_audFile.wav,10,4,0,2,0,0,0,0,0,12,12,8,,,,,,,,,151.41260782600148,151.6027991919982,152.60312500500004,152.61319149000337,152.71292632859695,152.72307763900608,152.77308051500586,152.92310352099594,152.97324061699328,153.12309853499755,153.42327244499756,153.57326693899813,153.87349011699553,154.02344248999725,154.07361004900304,154.22347793700465,154.47357228999317,154.52366723799787,154.52366723799787,155.82414871599758,155.82414871599758,155.9237107385925,155.933982180999,155.9839701900055,156.13408697600244,156.1840518079989,156.334104131005,156.6342327500024,156.78428816499945,156.8342892609944,156.9843366290006,157.28431418900436,157.43446133399266,157.73455680599727,158.18470428600267,158.18470428600267,158.18470428600267,1,0.27183429000433534,158.474803161007,159.975158938003,,,,p4,001,2023-01-31_12h32.18.812,Cognition2_FullCode1,2022.2.5,99.98534215071689,
/Users/shamslab/Desktop/Cognition2_FullExperimentFile/p4_VisualBlock1.csv,20,1,2,2,1,2,1,11,16,31,61,76,106,121,126,141,171,186,191,3_audFile.wav,10,5,24,1,2,2,1,1,2,11,16,31,61,76,106,121,126,141,146,161,191,3_audFile.wav,10,5,0,2,0,0,0,0,0,13,13,19,,,,,,,,,159.975158938003,160.17524528800277,161.17585770299775,161.17585770299775,161.2754079705992,161.28552840500197,161.33546743700572,161.48557975000585,161.78558875799354,161.93572831399797,162.23581941900193,162.3859629159997,162.4358344850043,162.5859782280022,162.8859412239981,163.03600853400712,163.03600853400712,163.08604104499682,163.08604104499682,164.3865935079957,164.3865935079957,164.48621326560533,164.49647446400195,164.54654369299533,164.6964713030029,164.9966670349968,165.14658091899764,165.4466672379931,165.59671233399422,165.6467826720036,165.7968266980024,165.84690854800283,165.99688319199777,166.29694110499986,166.7471169430064,166.7471169430064,166.7471169430064,2,0.39003448199946433,167.15725296399614,,161.17585770299775,,,p4,001,2023-01-31_12h32.18.812,Cognition2_FullCode1,2022.2.5,99.98534215071689,
/Users/shamslab/Desktop/Cognition2_FullExperimentFile/p4_VisualBlock1.csv,22,1,2,1,2,2,1,11,16,31,61,76,81,96,126,141,171,186,191,3_audFile.wav,10,5,22,1,2,1,2,2,1,11,16,31,61,76,81,96,126,141,171,186,191,3_audFile.wav,10,5,0,1,0,0,0,0,0,14,14,14,,,,,,,,,168.65771989400673,168.84778719299356,169.8479996410024,169.85809441799938,169.95770274560346,169.9679768740025,170.01796403099434,170.16805452099652,170.46810800199455,170.61822218699672,170.668200154003,170.81824631200288,171.11844291500165,171.26836630300386,171.56842061100178,171.71851620399684,171.71851620399684,171.76857267000014,171.76857267000014,173.06902170699323,173.06902170699323,173.16883083560242,173.17890505399555,173.2289257770026,173.37900097999955,173.67907877100515,173.8292101209954,173.87918839399936,174.0291597799951,174.3292648820061,174.47927757400612,174.77939472500293,174.9294389639981,174.9794436039956,175.42956523099565,175.42956523099565,175.42956523099565,2,0.2912788969988469,175.74976098899788,177.250094463001,,,,p4,001,2023-01-31_12h32.18.812,Cognition2_FullCode1,2022.2.5,99.98534215071689,
/Users/shamslab/Desktop/Cognition2_FullExperimentFile/p4_VisualBlock1.csv,24,1,2,2,1,1,2,11,16,31,61,76,106,121,126,141,146,161,191,3_audFile.wav,10,5,24,1,2,2,1,1,2,11,16,31,61,76,106,121,126,141,146,161,191,3_audFile.wav,10,5,0,1,0,0,0,0,0,15,15,3,,,,,,,,,177.250094463001,177.44014730899653,178.44049865299894,178.4508074780024,178.55029951460165,178.56045468100638,178.61047086300096,178.76055463000375,179.06055767799262,179.2107361189992,179.5107262179954,179.6608070390066,179.71076569899742,179.86092561999976,179.9108748639992,180.06081829099276,180.31095276999986,180.3610330119991,180.3610330119991,181.6614241030038,181.6614241030038,181.76111757460603,181.7714696470066,181.8215238910052,181.97134074699716,182.2716282820038,182.42149327399966,182.72160688700387,182.87172829700285,182.92174002999673,183.0716984669998,183.12164516199846,183.27168108799378,183.57193896299577,184.02211794200412,184.02211794200412,184.02211794200412,1,0.6746981899923412,184.72216232100618,,178.4508074780024,,,p4,001,2023-01-31_12h32.18.812,Cognition2_FullCode1,2022.2.5,99.98534215071689,
/Users/shamslab/Desktop/Cognition2_FullExperimentFile/p4_VisualBlock1.csv,25,2,1,1,2,1,2,11,41,56,61,76,81,96,126,141,146,161,191,3_audFile.wav,10,6,25,2,1,1,2,1,2,11,41,56,61,76,81,96,126,141,146,161,191,3_audFile.wav,10,6,0,1,0,0,0,0,0,16,16,20,,,,,,,,,186.22266215599666,186.40273435099516,187.4030103480036,187.42293494900514,187.52282279359497,187.53299679599877,187.8330754799972,187.98311290900165,188.0330961580039,188.1832102079934,188.23318330700567,188.38331135000044,188.68325291600195,188.83344674100226,188.88338260099408,189.0334991359996,189.28362213200307,189.33366408900474,189.33366408900474,190.63409167699865,190.63409167699865,190.73370765959407,190.7439923320053,191.0439882770006,191.19415436600684,191.24403932699352,191.3942320089991,191.44408242999634,191.59423423600674,191.8942270300031,192.04440362799505,192.0942966069997,192.24431727999763,192.54446819100122,192.99455613699683,192.99455613699683,192.99455613699683,1,0.7188631339959102,193.73482227399654,,,,,p4,001,2023-01-31_12h32.18.812,Cognition2_FullCode1,2022.2.5,99.98534215071689,
/Users/shamslab/Desktop/Cognition2_FullExperimentFile/p4_VisualBlock1.csv,16,2,2,1,2,1,1,11,41,56,86,101,106,121,151,166,171,186,191,3_audFile.wav,10,7,18,2,2,1,1,2,1,11,41,56,86,101,106,121,126,141,171,186,191,3_audFile.wav,10,7,0,2,0,0,0,0,0,17,17,21,,,,,,,,,195.23511046500062,195.42524534999393,196.42555719999655,196.4356255390012,196.53536505459488,196.5455606470059,196.8456662230019,196.9957303639967,197.29578851000406,197.4458916040021,197.49598274499294,197.64600435999455,197.94605031900574,198.09601758699864,198.14599743500003,198.2961228159984,198.2961228159984,198.34608943600324,198.34608943600324,199.64652609800396,199.64652609800396,199.7463262766032,199.75651635800023,200.05651299199963,200.20661903299333,200.5066073170019,200.6566982939985,200.70674290899478,200.85687680299452,200.90678235399537,201.05689511500532,201.35696727299364,201.50704970200604,201.55711950499972,202.0071647040022,202.0071647040022,202.0071647040022,2,0.5144863610039465,202.547393285,,,,,p4,001,2023-01-31_12h32.18.812,Cognition2_FullCode1,2022.2.5,99.98534215071689,
/Users/shamslab/Desktop/Cognition2_FullExperimentFile/p4_VisualBlock1.csv,16,2,2,1,2,1,1,11,41,56,86,101,106,121,151,166,171,186,191,3_audFile.wav,10,7,16,2,2,1,2,1,1,11,41,56,86,101,106,121,151,166,171,186,191,3_audFile.wav,10,7,0,1,0,0,0,0,0,18,18,24,,,,,,,,,204.0478378150001,204.22778377500072,205.2281261330063,205.24813187700056,205.34797156259447,205.3580848480051,205.65851056099928,205.8081618550059,206.1083619419951,206.2582881940034,206.30838948499877,206.45842092699604,206.7585117050039,206.90853492099268,206.95862134499475,207.1085110760032,207.1085110760032,207.1586035770015,207.1586035770015,208.45912667199445,208.45912667199445,208.55884541759588,208.56913077000354,208.86908408299496,209.0191925120016,209.31924287999573,209.46936212100263,209.51929714200378,209.66945799499808,209.96947119300603,210.11946981100482,210.16940165100095,210.31957229100226,210.36953170200286,210.8196552760055,210.8196552760055,210.8196552760055,1,0.28476108799804933,211.12980311899446,,,,,p4,001,2023-01-31_12h32.18.812,Cognition2_FullCode1,2022.2.5,99.98534215071689,
/Users/shamslab/Desktop/Cognition2_FullExperimentFile/p4_VisualBlock1.csv,22,1,2,1,2,2,1,11,16,31,61,76,81,96,126,141,171,186,191,3_audFile.wav,10,5,24,1,2,2,1,1,2,11,16,31,61,76,106,121,126,141,146,161,191,3_audFile.wav,10,5,0,2,0,0,0,0,0,19,19,9,,,,,,,,,212.63021226300043,212.81024724899908,213.810400183007,213.83060287800618,213.93044961659325,213.94057291100034,213.9905985420046,214.14068558100553,214.44061494499329,214.5907252189936,214.6407643929997,214.79070669300563,215.09093317500083,215.24092837100034,215.54096033000678,215.6910744850029,215.6910744850029,215.74113504799607,215.74113504799607,217.04144972399808,217.04144972399808,217.14117488859483,217.15140674699796,217.20159029899514,217.35154122200038,217.6515982520068,217.8015133900044,218.10181119199842,218.25171383800625,218.30181142200308,218.45186581699818,218.5018222469953,218.65197281099972,218.95210146300087,219.4022512340016,219.4022512340016,219.4022512340016,1,0.2067211719986517,219.6322655230033,,,,,p4,001,2023-01-31_12h32.18.812,Cognition2_FullCode1,2022.2.5,99.98534215071689,
/Users/shamslab/Desktop/Cognition2_FullExperimentFile/p4_VisualBlock1.csv,23,2,1,2,1,1,2,11,41,56,61,76,106,121,126,141,146,161,191,3_audFile.wav,10,6,21,2,1,1,2,2,1,11,41,56,61,76,81,96,126,141,171,186,191,3_audFile.wav,10,6,0,2,0,0,0,0,0,20,20,31,,,,,,,,,221.13257220599917,221.32266016899666,222.32293668699276,222.33299449599872,222.43293628859828,222.44301561100292,222.74305019300664,222.89312079700176,222.94302773999516,223.09312971800682,223.3932664580061,223.54329077800503,223.59326300700195,223.74333155799832,223.7934270429978,223.9434800290037,224.1934651000047,224.2435795180063,224.2435795180063,225.54395427899726,225.54395427899726,225.64360986160318,225.65388737199828,225.95384254699457,226.10405589200673,226.15406884200638,226.30400158799603,226.35416135800187,226.50400401900697,226.80420363800658,226.95416685899545,227.25438443500025,227.4044189720007,227.45438257200294,227.904544858,227.904544858,227.904544858,2,0.7124689199990826,228.64474207500461,,,,,p4,001,2023-01-31_12h32.18.812,Cognition2_FullCode1,2022.2.5,99.98534215071689,
/Users/shamslab/Desktop/Cognition2_FullExperimentFile/p4_VisualBlock1.csv,21,2,1,1,2,2,1,11,41,56,61,76,81,96,126,141,171,186,191,3_audFile.wav,10,6,25,2,1,1,2,1,2,11,41,56,61,76,81,96,126,141,146,161,191,3_audFile.wav,10,6,0,2,0,0,0,0,0,21,21,11,,,,,,,,,230.14521439600503,230.33516959000553,231.33556825800042,231.34557871900324,231.44528181659553,231.45549938999466,231.7556420470064,231.90569096599938,231.9556929380051,232.1058147099975,232.15583057700132,232.3057508339989,232.60597988900554,232.75591774500208,233.05605873599416,233.20610355300596,233.20610355300596,233.25605769500544,233.25605769500544,234.5566663560021,234.5566663560021,234.65632191859913,234.66653375899477,234.96653328499815,235.11661719399854,235.16653537099774,235.3166578179953,235.36660413400386,235.5168214430014,235.81680880200292,235.96685732599872,236.01690346699615,236.16701255900261,236.4669400730054,236.91708224700415,236.91708224700415,236.91708224700415,1,0.4846592390094884,237.42726990299707,,,,,p4,001,2023-01-31_12h32.18.812,Cognition2_FullCode1,2022.2.5,99.98534215071689,
/Users/shamslab/Desktop/Cognition2_FullExperimentFile/p4_VisualBlock1.csv,20,1,2,2,1,2,1,11,16,31,61,76,106,121,126,141,171,186,191,3_audFile.wav,10,5,20,1,2,2,1,2,1,11,16,31,61,76,106,121,126,141,171,186,191,3_audFile.wav,10,5,0,1,0,0,0,0,0,22,22,17,,,,,,,,,238.9277382279979,239.11769797099987,240.1180875919963,240.1280460179987,240.22780483459792,240.23806955300097,240.2880905530037,240.438121048006,240.738348466999,240.88819713199337,241.1883611509984,241.33845547300007,241.38853105199814,241.5383376450045,241.8385125210043,241.98845375099336,241.98845375099336,242.03865414499887,242.03865414499887,243.3391373409977,243.3391373409977,243.43876709660253,243.4489656240039,243.49897935999616,243.64911036999547,243.94913782000367,244.099181365993,244.39934334999998,244.54929593400448,244.5993243940029,244.74949182699493,245.04936555499444,245.19947564699396,245.24949097499484,245.6996146839956,245.6996146839956,245.6996146839956,1,0.43700607400387526,246.15974709400325,,,,,p4,001,2023-01-31_12h32.18.812,Cognition2_FullCode1,2022.2.5,99.98534215071689,
/Users/shamslab/Desktop/Cognition2_FullExperimentFile/p4_VisualBlock1.csv,21,2,1,1,2,2,1,11,41,56,61,76,81,96,126,141,171,186,191,3_audFile.wav,10,6,21,2,1,1,2,2,1,11,41,56,61,76,81,96,126,141,171,186,191,3_audFile.wav,10,6,0,1,0,0,0,0,0,23,23,10,,,,,,,,,247.660212599003,247.8502192540036,248.85049179100315,248.8607380129979,248.96030511159188,248.97058055999514,249.27080146300432,249.42075250500056,249.4706846909976,249.6208409279934,249.6707653850026,249.8208769519988,250.12097814500157,250.27106237399857,250.57093103800435,250.7210551140015,250.7210551140015,250.7710502520058,250.7710502520058,252.07151989199338,252.07151989199338,252.17130382259347,252.1814751399943,252.4815297419991,252.63159554099548,252.68168921000324,252.83177441399312,252.88166749000084,253.03163215100358,253.33192427399626,253.48190494299342,253.78195734199835,253.93199469399406,253.9820509919955,254.4321165309957,254.4321165309957,254.4321165309957,1,0.32915641499857884,254.78215106799325,,,,,p4,001,2023-01-31_12h32.18.812,Cognition2_FullCode1,2022.2.5,99.98534215071689,
/Users/shamslab/Desktop/Cognition2_FullExperimentFile/p4_VisualBlock1.csv,17,2,1,2,2,1,1,11,41,56,61,76,106,121,151,166,171,186,191,3_audFile.wav,10,6,17,2,1,2,2,1,1,11,41,56,61,76,106,121,151,166,171,186,191,3_audFile.wav,10,6,0,1,0,0,0,0,0,24,24,6,,,,,,,,,256.2827143369941,256.472667901995,257.4728913260042,257.48303206999844,257.5827547635927,257.5929111870064,257.89311188099964,258.04312460099754,258.0932917169994,258.24308480300533,258.5433160209941,258.69338499900186,258.9934230020008,259.143535915995,259.19357694299833,259.34344371099724,259.34344371099724,259.3936105900066,259.3936105900066,260.6940569480066,260.6940569480066,260.79374842960533,260.8039483159955,261.1040170750057,261.25411179100047,261.30401969600643,261.45424669499334,261.75413284600654,261.9043953609944,262.20441857600235,262.3543668159982,262.4043444370036,262.5544540849951,262.60437088699837,263.0545729989972,263.0545729989972,263.0545729989972,1,0.26610325199726503,263.3446848409949,,,,,p4,001,2023-01-31_12h32.18.812,Cognition2_FullCode1,2022.2.5,99.98534215071689,
/Users/shamslab/Desktop/Cognition2_FullExperimentFile/p4_VisualBlock1.csv,28,1,2,1,1,2,2,11,16,31,61,76,81,96,101,116,146,161,191,3_audFile.wav,10,5,24,1,2,2,1,1,2,11,16,31,61,76,106,121,126,141,146,161,191,3_audFile.wav,10,5,0,2,0,0,0,0,0,25,25,27,,,,,,,,,264.84498972599977,265.0251320779935,266.0252988010034,266.0454026009975,266.1452131656042,266.1554430010001,266.2055228149984,266.3554657850036,266.65562182800204,266.80558225400455,266.8557725749997,267.00559360500483,267.05574247399636,267.20580629300093,267.50591749799787,267.6558487180009,267.90587994900125,267.95594625400554,267.95594625400554,269.2566869059956,269.2566869059956,269.3562109166014,269.3662848590029,269.41645091600367,269.5663310630043,269.86658276300295,270.01650227799837,270.3166508870054,270.46657083499304,270.5167237429996,270.66683545899286,270.7167953640019,270.86677607799356,271.16695530900324,271.61697564600036,271.61697564600036,271.61697564600036,2,0.24026387400226668,271.8770398229972,,,,,p4,001,2023-01-31_12h32.18.812,Cognition2_FullCode1,2022.2.5,99.98534215071689,
/Users/shamslab/Desktop/Cognition2_FullExperimentFile/p4_VisualBlock1.csv,25,2,1,1,2,1,2,11,41,56,61,76,81,96,126,141,146,161,191,3_audFile.wav,10,6,21,2,1,1,2,2,1,11,41,56,61,76,81,96,126,141,171,186,191,3_audFile.wav,10,6,0,2,0,0,0,0,0,26,26,0,,,,,,,,,273.37754579600005,273.5676381539961,274.56787351099774,274.5778788650059,274.6777174956005,274.68784452100226,274.9878783769964,275.1379658079968,275.1880139309942,275.33808692400635,275.3882748820033,275.5380264620035,275.83827474800637,275.98820420200354,276.0383725470019,276.18833309199545,276.4383737479948,276.48850028299785,276.48850028299785,277.788789475002,277.788789475002,277.8886202936046,277.89869586599525,278.1988638259936,278.3488525529974,278.39890634600306,278.54910598399874,278.59906087399577,278.74911930100643,279.04916010099987,279.19921704199805,279.49923812999623,279.64940464499523,279.69929508499627,280.149592183996,280.149592183996,280.149592183996,2,0.4040682719933102,280.57964958700177,,,,,p4,001,2023-01-31_12h32.18.812,Cognition2_FullCode1,2022.2.5,99.98534215071689,
/Users/shamslab/Desktop/Cognition2_FullExperimentFile/p4_VisualBlock1.csv,19,2,1,2,1,2,1,11,41,56,61,76,106,121,126,141,171,186,191,3_audFile.wav,10,6,19,2,1,2,1,2,1,11,41,56,61,76,106,121,126,141,171,186,191,3_audFile.wav,10,6,0,1,0,0,0,0,0,27,27,28,,,,,,,,,282.0799662250065,282.25995483600127,283.2604005489993,283.2803709209984,283.3803407266023,283.39058611600194,283.69037510499766,283.8404932819976,283.89046098900144,284.0405522420042,284.34059901,284.4906863329961,284.5407544320042,284.6908687190007,284.99086202100443,285.1408383480011,285.1408383480011,285.1909734340006,285.1909734340006,286.4913434420014,286.4913434420014,286.59102837459795,286.60118229199725,286.90145016499446,287.0513506999996,287.10143052499916,287.2514781600039,287.5516082240065,287.70163566099654,287.7517200639995,287.9016106880008,288.2017100899975,288.3518578840012,288.40179740299936,288.85196248099965,288.85196248099965,288.85196248099965,1,0.3012396370031638,289.1721216409933,290.67245712000295,,,,p4,001,2023-01-31_12h32.18.812,Cognition2_FullCode1,2022.2.5,99.98534215071689,
/Users/shamslab/Desktop/Cognition2_FullExperimentFile/p4_VisualBlock1.csv,18,2,2,1,1,2,1,11,41,56,86,101,106,121,126,141,171,186,191,3_audFile.wav,10,7,18,2,2,1,1,2,1,11,41,56,86,101,106,121,126,141,171,186,191,3_audFile.wav,10,7,0,1,0,0,0,0,0,28,28,30,,,,,,,,,290.67245712000295,290.86252022300323,291.86283806699794,291.8730837040057,291.97262744159525,291.98275795200607,292.282824459995,292.4329147160024,292.7330177499971,292.8831532309996,292.933059959003,293.08312721099355,293.13312541600317,293.28313454300223,293.5834558909992,293.73344242200255,293.73344242200255,293.78331904699735,293.78331904699735,295.08403554999677,295.08403554999677,295.1836659525943,295.1936928109935,295.493922818001,295.6438337569998,295.94396658899495,296.09398048,296.1440714909986,296.294116117002,296.3440037179971,296.49421942900517,296.794154970994,296.94430777500384,296.9942151449941,297.44433549800306,297.44433549800306,297.44433549800306,1,0.25225371100532357,297.72439490600664,,291.8730837040057,,,p4,001,2023-01-31_12h32.18.812,Cognition2_FullCode1,2022.2.5,99.98534215071689,
/Users/shamslab/Desktop/Cognition2_FullExperimentFile/p4_VisualBlock1.csv,27,1,1,2,2,1,2,11,16,31,36,51,81,96,126,141,146,161,191,3_audFile.wav,10,4,27,1,1,2,2,1,2,11,16,31,36,51,81,96,126,141,146,161,191,3_audFile.wav,10,4,0,1,0,0,0,0,0,29,29,4,,,,,,,,,299.22491803100274,299.4049994310044,300.40530868999485,300.4253326790058,300.524968447593,300.5351633410028,300.585257579005,300.7354336279968,300.78540497799986,300.93541412599734,301.23546332599653,301.38554412400117,301.6856813409977,301.83566010100185,301.88567257700197,302.03583028700086,302.2857835540053,302.33580431599694,302.33580431599694,303.6362859039946,303.6362859039946,303.7361214976045,303.7461917000037,303.79608730299515,303.9462855460006,303.9962480480026,304.1462645499996,304.4463969589997,304.59649122299743,304.8964234390005,305.0466484649951,305.0965278340009,305.2467655369983,305.5467242140003,305.99679889300023,305.99679889300023,305.99679889300023,1,0.30868000601185486,306.3269358480029,,,,,p4,001,2023-01-31_12h32.18.812,Cognition2_FullCode1,2022.2.5,99.98534215071689,
/Users/shamslab/Desktop/Cognition2_FullExperimentFile/p4_VisualBlock1.csv,29,1,1,2,1,2,2,11,16,31,36,51,81,96,101,116,146,161,191,3_audFile.wav,10,4,29,1,1,2,1,2,2,11,16,31,36,51,81,96,101,116,146,161,191,3_audFile.wav,10,4,0,1,0,0,0,0,0,30,30,22,,,,,,,,,307.82735955399403,308.0173480020021,309.01773395200144,309.02770744600275,309.1275061795968,309.13769269900513,309.1877793320018,309.3377475049929,309.3877724269987,309.5379372169991,309.8380446049996,309.98790482300683,310.0380728739983,310.1880120029964,310.48813682100445,310.638247846,310.8882367509941,310.93822161099524,310.93822161099524,312.23884804600675,312.23884804600675,312.3385423265936,312.3486865909945,312.398634622994,312.5487256350025,312.5986971609964,312.7488017480064,313.04894643799344,313.1990148759942,313.2488003259932,313.39888633099326,313.69897607300663,313.84906218299875,314.14912190400355,314.59923623000213,314.59923623000213,314.59923623000213,1,0.28207830201426987,314.909359562007,,,,,p4,001,2023-01-31_12h32.18.812,Cognition2_FullCode1,2022.2.5,99.98534215071689,
/Users/shamslab/Desktop/Cognition2_FullExperimentFile/p4_VisualBlock1.csv,23,2,1,2,1,1,2,11,41,56,61,76,106,121,126,141,146,161,191,3_audFile.wav,10,6,17,2,1,2,2,1,1,11,41,56,61,76,106,121,151,166,171,186,191,3_audFile.wav,10,6,0,2,0,0,0,0,0,31,31,16,,,,,,,,,316.40981285099406,316.59999538000557,317.60010723400046,317.61021237399837,317.70998534559476,317.72016061299655,318.0202745199931,318.17028245399706,318.2203287500015,318.37031905500044,318.6703844750009,318.8205905259965,318.8705637450039,319.02066562599794,319.0704985140037,319.22054516999924,319.4707221889985,319.5207052350015,319.5207052350015,320.8213924640004,320.8213924640004,320.9208499446031,320.9309934149933,321.2312421109964,321.38121924099687,321.4312398119946,321.58117974200286,321.88129025399394,322.03139449200535,322.33137964000343,322.4815316180029,322.53156588099955,322.681582559002,322.7315834350011,323.18183183899964,323.18183183899964,323.18183183899964,2,0.30000693300098646,323.5019694179937,,,,,p4,001,2023-01-31_12h32.18.812,Cognition2_FullCode1,2022.2.5,99.98534215071689,
/Users/shamslab/Desktop/Cognition2_FullExperimentFile/p4_VisualBlock1.csv,,,,,,,,,,,,,,,,,,,,,,,,,,,,,,,,,,,,,,,,,,,,,,,0,0,0,0,,,,,,,,,,,,,,,,,,,,,,,,,,,,,,,,,,,,,,,,,,,,,,,,,,,,,,,325.0122623079951,325.0122623079951,p4,001,2023-01-31_12h32.18.812,Cognition2_FullCode1,2022.2.5,99.98534215071689,
/Users/shamslab/Desktop/Cognition2_FullExperimentFile/p4_AudioBlock1.csv,13,2,1,2,1,1,2,11,41,53,58,70,100,112,117,129,134,146,176,14_audFile.wav,10,2,13,2,1,2,1,1,2,11,41,53,58,70,100,112,117,129,134,146,176,14_audFile.wav,10,2,1,1,0,1,1,1,0,0,0,28,,,,,385.08929027999693,385.1895507570007,space,6.523833073995775,391.76130246999674,391.93130848200235,392.9315873500018,392.95169484500366,393.05141495659336,393.06170021499565,393.36173605899967,393.4819069590012,393.53184434499417,393.65189024400024,393.95207030899473,394.07201024499955,394.1220469330001,394.2421293850057,394.292013637998,394.4120369690063,394.81213366999873,394.7121542189998,394.81213366999873,396.11266487199464,396.11266487199464,396.2123659005956,396.222513464003,396.5226845089928,396.642706810002,396.6926179739967,396.81267599099374,397.11283565699705,397.232906706995,397.2829029519926,397.40295515100297,397.4528915629926,397.5729043869942,397.8730488190049,398.47326006399817,398.47326006399817,398.47326006399817,2,0.5993823520111619,399.0933238699945,,,,,p4,001,2023-01-31_12h32.18.812,Cognition2_FullCode1,2022.2.5,99.98534215071689,
/Users/shamslab/Desktop/Cognition2_FullExperimentFile/p4_AudioBlock1.csv,9,2,1,2,1,2,1,11,41,53,58,70,100,112,117,129,159,171,176,10_audFile.wav,10,2,3,2,1,2,1,2,2,11,41,53,58,70,100,112,117,129,159,171,201,4_audFile.wav,10,2,1,2,0,1,1,1,0,1,1,24,,,,,,,,,400.5938372230012,400.78389239699754,401.7840689099976,401.80415523699776,401.9039067215999,401.9142513620027,402.2142082030041,402.33441536799364,402.3843601529952,402.5045533560042,402.8043779889995,402.924611208,402.9744864219974,403.09447649799404,403.39471838799363,403.5147780309926,403.6648116819997,403.5646043000015,403.6648116819997,404.9751698720065,404.9751698720065,405.07488746860327,405.0852174920001,405.3852068569977,405.50525051499426,405.55521387599583,405.6752881459979,405.97538987899316,406.095495889007,406.1454909049935,406.26550407700415,406.5655495550018,406.6855778290046,406.98569013600354,407.33580600899586,407.33580600899586,407.33580600899586,1,0.2812638429895742,407.6357955010026,409.1364154079929,,,,p4,001,2023-01-31_12h32.18.812,Cognition2_FullCode1,2022.2.5,99.98534215071689,
/Users/shamslab/Desktop/Cognition2_FullExperimentFile/p4_AudioBlock1.csv,7,2,1,2,2,1,1,11,41,53,58,70,100,112,142,154,159,171,176,8_audFile.wav,10,2,7,2,1,2,2,1,1,11,41,53,58,70,100,112,142,154,159,171,176,8_audFile.wav,10,2,1,1,0,1,1,1,0,2,2,29,,,,,,,,,409.1364154079929,409.3263766949967,410.3265319589991,410.34659475600347,410.4466618515944,410.45672250300413,410.7567386360024,410.8767475890054,410.92677188600646,411.0468539669964,411.346931099004,411.4668792599987,411.7670258029975,411.88711299799616,411.93705148900335,412.05713119599386,412.2071688930009,412.1071059149981,412.2071688930009,413.50789316400187,413.50789316400187,413.60748752460495,413.6175746749941,413.91768965599476,414.03775758600386,414.0877342820022,414.20785076399625,414.50780257899896,414.62788643200474,414.9279504330043,415.0478937470034,415.09804464600165,415.2180037670041,415.26815038699715,415.868246929007,415.868246929007,415.868246929007,1,0.2537050919927424,416.148288123004,,410.34659475600347,,,p4,001,2023-01-31_12h32.18.812,Cognition2_FullCode1,2022.2.5,99.98534215071689,
/Users/shamslab/Desktop/Cognition2_FullExperimentFile/p4_AudioBlock1.csv,6,2,2,1,2,1,1,11,41,53,83,95,100,112,142,154,159,171,176,7_audFile.wav,10,3,8,2,2,1,1,2,1,11,41,53,83,95,100,112,117,129,159,171,176,9_audFile.wav,10,3,1,2,0,1,1,1,0,3,3,14,,,,,,,,,417.64880802600237,417.8388845129957,418.8390614270029,418.858976345,418.9588709035961,418.96909438600414,419.26910125299764,419.389202063001,419.6893330519961,419.80942770300317,419.85925860299903,419.97936685799505,420.2794644509995,420.3994928250031,420.4494722639938,420.5695882610016,420.71963760499784,420.6195925659995,420.71963760499784,422.0299856310012,422.0299856310012,422.1296876366032,422.13991006999277,422.4400772759982,422.5600928519998,422.86014482700557,422.98023174000264,423.0303591470001,423.15030059700075,423.20022193600016,423.32035897599417,423.6204747620068,423.74053668399574,423.7905167019926,424.3907551260054,424.3907551260054,424.3907551260054,1,0.2341063240019139,424.6507670209976,,,,,p4,001,2023-01-31_12h32.18.812,Cognition2_FullCode1,2022.2.5,99.98534215071689,
/Users/shamslab/Desktop/Cognition2_FullExperimentFile/p4_AudioBlock1.csv,7,2,1,2,2,1,1,11,41,53,58,70,100,112,142,154,159,171,176,8_audFile.wav,10,2,9,2,1,2,1,2,1,11,41,53,58,70,100,112,117,129,159,171,176,10_audFile.wav,10,2,1,2,0,1,1,1,0,4,4,27,,,,,,,,,426.1510812399938,426.33114359600586,427.33140878600534,427.3514622109942,427.45127134059294,427.46145769899886,427.76149710599566,427.88160333600536,427.93162128000404,428.0517353339965,428.35177728200506,428.47184863500297,428.77190851299383,428.891894564993,428.9419580340036,429.06202119900263,429.2120217250049,429.1119824780035,429.2120217250049,430.51245005799865,430.51245005799865,430.6122150405936,430.62238801400235,430.92257172100653,431.04256283299765,431.0925954809936,431.2126107009972,431.5125879239931,431.63274494800135,431.68277966900496,431.80276607400447,432.10289676899265,432.2228166040004,432.27301499400346,432.87313431099756,432.87313431099756,432.87313431099756,1,0.3200637010013452,433.2131413640018,,,,,p4,001,2023-01-31_12h32.18.812,Cognition2_FullCode1,2022.2.5,99.98534215071689,
/Users/shamslab/Desktop/Cognition2_FullExperimentFile/p4_AudioBlock1.csv,15,1,2,1,2,1,2,11,16,28,58,70,75,87,117,129,134,146,176,16_audFile.wav,10,1,15,1,2,1,2,1,2,11,16,28,58,70,75,87,117,129,134,146,176,16_audFile.wav,10,1,1,1,0,1,1,1,0,5,5,20,,,,,,,,,434.7136848039954,434.90376038900285,435.9038719789969,435.92410436099453,436.02377049859933,436.0338979509979,436.083994051005,436.2040474910027,436.50408848600637,436.6240350330045,436.6741288829944,436.794284136995,437.0942671810044,437.21425202599494,437.2643071880011,437.3843438170006,437.7844812770054,437.68436578000546,437.7844812770054,439.08497157100646,439.08497157100646,439.1847038896012,439.19483789100195,439.2448955269938,439.3650656709942,439.66495925199706,439.7850589300069,439.8350362899946,439.9551463800017,440.25518537999596,440.37525809099316,440.42520082699775,440.54540024200105,440.8453052149998,441.44561260899354,441.44561260899354,441.44561260899354,2,0.8036404470039997,442.2757204609952,,,,,p4,001,2023-01-31_12h32.18.812,Cognition2_FullCode1,2022.2.5,99.98534215071689,
/Users/shamslab/Desktop/Cognition2_FullExperimentFile/p4_AudioBlock1.csv,9,2,1,2,1,2,1,11,41,53,58,70,100,112,117,129,159,171,176,10_audFile.wav,10,2,9,2,1,2,1,2,1,11,41,53,58,70,100,112,117,129,159,171,176,10_audFile.wav,10,2,1,1,0,1,1,1,0,6,6,7,,,,,,,,,443.7761687510065,443.9663205380057,444.9664861509955,444.9765114500042,445.0764036856053,445.0867009460053,445.3865574509982,445.50661173100525,445.55698702500376,445.67668210499687,445.97694108499854,446.0967449860036,446.1469133359933,446.2668760230008,446.56701003700437,446.686903438007,446.8370731659961,446.737130997004,446.8370731659961,448.13750223499665,448.13750223499665,448.23740113559325,448.2473960079951,448.54762098399806,448.66757410900027,448.7175608940015,448.83769246499287,449.13768494999385,449.25769637699705,449.3078628640069,449.4278900490026,449.72787704899383,449.84790873600286,449.8979541879962,450.4981692489964,450.4981692489964,450.4981692489964,1,0.22250172999338247,450.7482162469969,,,,,p4,001,2023-01-31_12h32.18.812,Cognition2_FullCode1,2022.2.5,99.98534215071689,
/Users/shamslab/Desktop/Cognition2_FullExperimentFile/p4_AudioBlock1.csv,1,2,1,2,2,1,2,11,41,53,58,70,100,112,142,154,159,171,201,2_audFile.wav,10,2,1,2,1,2,2,1,2,11,41,53,58,70,100,112,142,154,159,171,201,2_audFile.wav,10,2,1,1,0,1,1,1,0,7,7,21,,,,,,,,,452.24847742400016,452.42868527599785,453.4289096050052,453.4589831630001,453.5587929225949,453.569043194002,453.86905504700553,453.98906864700257,454.03898483100056,454.1590822559956,454.45924135600217,454.5792767880048,454.879253253006,454.99933442799374,455.049371821995,455.169413480995,455.31949452799745,455.4694889740058,455.4694889740058,456.77010061600595,456.77010061600595,456.86968767860526,456.8799611639988,457.17990558700694,457.2999228950066,457.3500513570034,457.47002603400324,457.77024905699363,457.89014062100614,458.19023248499434,458.3102888209978,458.3603174049931,458.4804709960008,458.78054321100353,459.1307176419941,459.1307176419941,459.1307176419941,1,0.24625430499145295,459.40054688100645,,,,,p4,001,2023-01-31_12h32.18.812,Cognition2_FullCode1,2022.2.5,99.98534215071689,
/Users/shamslab/Desktop/Cognition2_FullExperimentFile/p4_AudioBlock1.csv,13,2,1,2,1,1,2,11,41,53,58,70,100,112,117,129,134,146,176,14_audFile.wav,10,2,9,2,1,2,1,2,1,11,41,53,58,70,100,112,117,129,159,171,176,10_audFile.wav,10,2,1,2,0,1,1,1,0,8,8,23,,,,,,,,,460.90106625399494,461.09103146899724,462.0914596700022,462.101450148999,462.2012094866004,462.2113362740056,462.51143940100155,462.63168618299824,462.6815714749973,462.8016484349937,463.1016919310059,463.22180595999816,463.2717506839981,463.3917903830006,463.4418375529931,463.56183894000424,463.9618415120058,463.8618089819938,463.9618415120058,465.2623102780053,465.2623102780053,465.3621193506042,465.3722660700005,465.6723551739997,465.792457093994,465.8428183109936,465.9625304630026,466.2624648600031,466.3824827049975,466.43271961799474,466.5525898710039,466.85279379099666,466.9728246290033,467.0228253450041,467.6230772190029,467.6230772190029,467.6230772190029,1,0.25032312600524165,467.8929005340033,,,,,p4,001,2023-01-31_12h32.18.812,Cognition2_FullCode1,2022.2.5,99.98534215071689,
/Users/shamslab/Desktop/Cognition2_FullExperimentFile/p4_AudioBlock1.csv,8,2,2,1,1,2,1,11,41,53,83,95,100,112,117,129,159,171,176,9_audFile.wav,10,3,8,2,2,1,1,2,1,11,41,53,83,95,100,112,117,129,159,171,176,9_audFile.wav,10,3,1,1,0,1,1,1,0,9,9,18,,,,,,,,,469.3935655069945,469.58361164300004,470.583787208001,470.59389104,470.6937424026037,470.70394900000247,471.0040065880021,471.1240362719982,471.424133323002,471.54402198799653,471.59407805900264,471.71420562699495,471.7641052560066,471.8842314890062,472.1843693010014,472.3043355270056,472.4543146109936,472.3542431569949,472.4543146109936,473.7550241120043,473.7550241120043,473.85469718059903,473.8646671970055,474.16490065799735,474.2849566460063,474.58504202999757,474.7050267190061,474.7550178490055,474.8751382680057,474.92500104999635,475.045087349994,475.34527936000086,475.4653557690035,475.5152594849933,476.11549563000153,476.11549563000153,476.11549563000153,1,0.23763035399315413,476.3754728210042,,,,,p4,001,2023-01-31_12h32.18.812,Cognition2_FullCode1,2022.2.5,99.98534215071689,
/Users/shamslab/Desktop/Cognition2_FullExperimentFile/p4_AudioBlock1.csv,15,1,2,1,2,1,2,11,16,28,58,70,75,87,117,129,134,146,176,16_audFile.wav,10,1,2,1,2,2,2,1,2,11,16,28,58,70,100,112,142,154,159,171,201,3_audFile.wav,10,1,1,2,0,1,1,1,0,10,10,6,,,,,,,,,477.8758471850015,478.06602885900065,479.0662626139965,479.07637069400516,479.17601450559596,479.1862856939988,479.23630662899814,479.35637405999296,479.65641807499924,479.7764376599953,479.8264695980033,479.94649001599464,480.24654788000043,480.36661082900537,480.4167139390047,480.5367790080054,480.9368222869962,480.83678464799596,480.9368222869962,482.2371024549939,482.2371024549939,482.3370128175957,482.34715414000675,482.39707470500434,482.51719771299395,482.81728116799786,482.93735809800273,483.2373076270014,483.3573983749957,483.657569256,483.777624786002,483.82773659900704,483.9475951159984,484.247747935995,484.5978664400027,484.5978664400027,484.5978664400027,2,0.31484790799731854,484.9379617550003,,,,,p4,001,2023-01-31_12h32.18.812,Cognition2_FullCode1,2022.2.5,99.98534215071689,
/Users/shamslab/Desktop/Cognition2_FullExperimentFile/p4_AudioBlock1.csv,3,2,1,2,1,2,2,11,41,53,58,70,100,112,117,129,159,171,201,4_audFile.wav,10,2,3,2,1,2,1,2,2,11,41,53,58,70,100,112,117,129,159,171,201,4_audFile.wav,10,2,1,1,0,1,1,1,0,11,11,15,,,,,,,,,486.43828873899474,486.6283383429982,487.62871992899454,487.6388379590062,487.7384375535985,487.7487089579954,488.048840139003,488.1687792349985,488.2189260430023,488.3389632269973,488.63894507300574,488.7590686479962,488.8090786149987,488.9291429069999,489.2291728059936,489.34921994799515,489.4993114340032,489.64916910100146,489.64916910100146,490.94979761399736,490.94979761399736,491.04940376559534,491.05959037700086,491.3596487169998,491.47986921700067,491.52980361100344,491.6498222069931,491.94988529400143,492.06996453199827,492.1200397829962,492.2399062629993,492.5400953329954,492.6601542349963,492.9602087569947,493.3104338139965,493.3104338139965,493.3104338139965,1,0.33895570901222527,493.67038503500225,,,,,p4,001,2023-01-31_12h32.18.812,Cognition2_FullCode1,2022.2.5,99.98534215071689,
/Users/shamslab/Desktop/Cognition2_FullExperimentFile/p4_AudioBlock1.csv,12,1,2,1,2,2,1,11,16,28,58,70,75,87,117,129,159,171,176,13_audFile.wav,10,1,4,1,2,2,1,2,2,11,16,28,58,70,100,112,117,129,159,171,201,5_audFile.wav,10,1,1,2,0,1,1,1,0,12,12,1,,,,,,,,,495.1708543840068,495.3609491459938,496.36118298300426,496.3812325829931,496.4811033445949,496.49125317600556,496.5411599109939,496.6611759390071,496.9614336020022,497.0814792589954,497.13131209999847,497.2513795749983,497.5514926400065,497.6717230009963,497.97160343399446,498.0916872499947,498.2418524310051,498.141717120001,498.2418524310051,499.55207359199994,499.55207359199994,499.6519503945965,499.66216032899683,499.7121461850038,499.8323329429986,500.1323757079954,500.25227490099496,500.55228405199887,500.6725019949954,500.72247186400637,500.8424877340003,501.1425123819936,501.26262192199647,501.56280881799466,501.91273694300617,501.91273694300617,501.91273694300617,1,0.2646253959974274,502.2027723000065,,,,,p4,001,2023-01-31_12h32.18.812,Cognition2_FullCode1,2022.2.5,99.98534215071689,
/Users/shamslab/Desktop/Cognition2_FullExperimentFile/p4_AudioBlock1.csv,1,2,1,2,2,1,2,11,41,53,58,70,100,112,142,154,159,171,201,2_audFile.wav,10,2,9,2,1,2,1,2,1,11,41,53,58,70,100,112,117,129,159,171,176,10_audFile.wav,10,2,1,2,0,1,1,1,0,13,13,31,,,,,,,,,503.7034299829975,503.89330314200197,504.8936398280057,504.9036876040045,505.003429942597,505.013622272003,505.31381316699844,505.4337402969977,505.48376854399976,505.60377196999616,505.9038789579936,506.02394682400336,506.3240754290018,506.4440651909972,506.49412428999494,506.6142099139979,506.76414005999686,506.9141879109957,506.9141879109957,508.21481846300594,508.21481846300594,508.31442888359743,508.3246029760048,508.62461999300285,508.7447017090017,508.7946986119932,508.914770132993,509.2148708379973,509.33482252800604,509.38494215700484,509.50506359800056,509.8050329389953,509.9252164070058,509.97508039600507,510.57534197199857,510.57534197199857,510.57534197199857,2,0.5146640610037139,511.11541737899825,,,,,p4,001,2023-01-31_12h32.18.812,Cognition2_FullCode1,2022.2.5,99.98534215071689,
/Users/shamslab/Desktop/Cognition2_FullExperimentFile/p4_AudioBlock1.csv,5,1,2,1,2,2,2,11,16,28,58,70,75,87,117,129,159,171,201,6_audFile.wav,10,1,5,1,2,1,2,2,2,11,16,28,58,70,75,87,117,129,159,171,201,6_audFile.wav,10,1,1,1,0,1,1,1,0,14,14,0,,,,,,,,,512.615825351997,512.795837024998,513.7961955359933,513.8361477870058,513.9361184366062,513.9463104400056,513.9961511190049,514.1162952260056,514.4163211669947,514.5363389169943,514.586267644001,514.7064024139981,515.0066054869967,515.1265111569955,515.4266736279969,515.5466356410034,515.6966356089979,515.8467361450021,515.8467361450021,517.1472099459934,517.1472099459934,517.2468603786037,517.2570674979943,517.3071476159967,517.4272531040042,517.7271871249977,517.8472120899969,517.8973387150036,518.0173643379967,518.3175091489975,518.4373984489939,518.7376056759967,518.8576214289933,519.1578225029953,519.5078336830047,519.5078336830047,519.5078336830047,1,0.26195420800650027,519.797832095006,,,,,p4,001,2023-01-31_12h32.18.812,Cognition2_FullCode1,2022.2.5,99.98534215071689,
/Users/shamslab/Desktop/Cognition2_FullExperimentFile/p4_AudioBlock1.csv,8,2,2,1,1,2,1,11,41,53,83,95,100,112,117,129,159,171,176,9_audFile.wav,10,3,6,2,2,1,2,1,1,11,41,53,83,95,100,112,142,154,159,171,176,7_audFile.wav,10,3,1,2,0,1,1,1,0,15,15,9,,,,,,,,,521.2983846190036,521.4883780119999,522.4886207170057,522.4986788770038,522.5985206606056,522.6087106780033,522.9088080619986,523.0287749550043,523.3288507639954,523.4488835079974,523.4988896989962,523.6189512090059,523.6690256779984,523.7890581679967,524.0890376619936,524.2092018849944,524.3591452469991,524.2591567130003,524.3591452469991,525.6597984620021,525.6597984620021,525.7593443596052,525.769499394999,526.0696356510016,526.1896683550003,526.4897910610016,526.6098172839993,526.6599718039943,526.7798603080009,527.0798595719971,527.1999614380038,527.2500633570016,527.3700802940002,527.4201692670031,528.0202144679934,528.0202144679934,528.0202144679934,2,0.244290816001012,528.2904209370026,,,,,p4,001,2023-01-31_12h32.18.812,Cognition2_FullCode1,2022.2.5,99.98534215071689,
/Users/shamslab/Desktop/Cognition2_FullExperimentFile/p4_AudioBlock1.csv,5,1,2,1,2,2,2,11,16,28,58,70,75,87,117,129,159,171,201,6_audFile.wav,10,1,12,1,2,1,2,2,1,11,16,28,58,70,75,87,117,129,159,171,176,13_audFile.wav,10,1,1,2,0,1,1,1,0,16,16,19,,,,,,,,,529.790703644001,529.9707023509982,530.9710560499952,530.9910309630068,531.0910410535944,531.1010887440061,531.1511077210016,531.2711877319962,531.5712581300031,531.6913413800066,531.7412454320001,531.8612538010057,532.1615094029985,532.2815549460065,532.5815329939942,532.7015559400024,532.8517242560047,533.001564502003,533.001564502003,534.3022670229984,534.3022670229984,534.4018630516002,534.4119672660017,534.4620776060037,534.5822155109927,534.8822671709931,535.0021920459985,535.0522821259947,535.1722819510032,535.472352412995,535.5925813530048,535.8925320379931,536.0126439650048,536.062502241999,536.6627573389997,536.6627573389997,536.6627573389997,2,0.20261565200053155,536.8928111090063,,,,,p4,001,2023-01-31_12h32.18.812,Cognition2_FullCode1,2022.2.5,99.98534215071689,
/Users/shamslab/Desktop/Cognition2_FullExperimentFile/p4_AudioBlock1.csv,3,2,1,2,1,2,2,11,41,53,58,70,100,112,117,129,159,171,201,4_audFile.wav,10,2,7,2,1,2,2,1,1,11,41,53,58,70,100,112,142,154,159,171,176,8_audFile.wav,10,2,1,2,0,1,1,1,0,17,17,16,,,,,,,,,538.393164441004,538.5831780279987,539.5834626699943,539.5935795209953,539.6933618846015,539.7036308920069,540.0036374969932,540.1238044539932,540.1736188520008,540.2937835780031,540.5938681929983,540.7138777869986,540.7637639470049,540.8839704770071,541.1839691490022,541.3039872579975,541.4540897139959,541.6041225369991,541.6041225369991,542.904598950001,542.904598950001,543.0043274225973,543.014615980006,543.3144866219955,543.4345684989967,543.4846839620004,543.6047190209938,543.9046723520005,544.024808496004,544.3249353199935,544.4450498210063,544.4948802690051,544.6148971079965,544.6649760260043,545.2651765820046,545.2651765820046,545.2651765820046,2,0.3445836939936271,545.6352170500031,,,,,p4,001,2023-01-31_12h32.18.812,Cognition2_FullCode1,2022.2.5,99.98534215071689,
/Users/shamslab/Desktop/Cognition2_FullExperimentFile/p4_AudioBlock1.csv,11,2,1,1,2,2,1,11,41,53,58,70,75,87,117,129,159,171,176,12_audFile.wav,10,2,11,2,1,1,2,2,1,11,41,53,58,70,75,87,117,129,159,171,176,12_audFile.wav,10,2,1,1,0,1,1,1,0,18,18,10,,,,,,,,,547.1356424380065,547.325641812,548.3260867799981,548.3459751850023,548.4459796975934,548.4560596569936,548.7562061079952,548.8762432310032,548.9261822919943,549.0461994280049,549.0962274280027,549.216187825994,549.5163617399958,549.6363541089959,549.936465456005,550.0564739679976,550.2065850660001,550.1066202700022,550.2065850660001,551.516944670002,551.516944670002,551.6166988316036,551.626887816994,551.9271374289965,552.0470783189958,552.0970971469942,552.2170561270032,552.2671214169968,552.3871685969934,552.6871710239939,552.8072674779978,553.107414277998,553.2275497689989,553.2773498439929,553.877773758999,553.877773758999,553.877773758999,1,0.30755166499875486,554.2077085490018,,,,,p4,001,2023-01-31_12h32.18.812,Cognition2_FullCode1,2022.2.5,99.98534215071689,
/Users/shamslab/Desktop/Cognition2_FullExperimentFile/p4_AudioBlock1.csv,10,1,2,2,1,2,1,11,16,28,58,70,100,112,117,129,159,171,176,11_audFile.wav,10,1,15,1,2,1,2,1,2,11,16,28,58,70,75,87,117,129,134,146,176,16_audFile.wav,10,1,1,2,0,1,1,1,0,19,19,3,,,,,,,,,555.7081417489971,555.898253663996,556.898432987,556.9183466469985,557.0183698765977,557.0285144549998,557.0785809969966,557.1985465570033,557.4985680020036,557.6186630419979,557.9187373830064,558.0388102690049,558.0888364779967,558.2087723580044,558.5090507580026,558.6290472120018,558.7789978969959,558.6790214189969,558.7789978969959,560.0894485119934,560.0894485119934,560.1891292285945,560.1993277820002,560.2494721529947,560.3694251029956,560.6696525849984,560.789681987997,560.8395842140017,560.9596220569947,561.259715851993,561.3796768049942,561.4297937810043,561.549723641001,561.8498526170006,562.4501146069961,562.4501146069961,562.4501146069961,2,0.18302058400877286,562.6600212810008,,,,,p4,001,2023-01-31_12h32.18.812,Cognition2_FullCode1,2022.2.5,99.98534215071689,
/Users/shamslab/Desktop/Cognition2_FullExperimentFile/p4_AudioBlock1.csv,14,2,1,1,2,1,2,11,41,53,58,70,75,87,117,129,134,146,176,15_audFile.wav,10,2,11,2,1,1,2,2,1,11,41,53,58,70,75,87,117,129,159,171,176,12_audFile.wav,10,2,1,2,0,1,1,1,0,20,20,13,,,,,,,,,564.1605737469945,564.3506128229928,565.3509310969966,565.3708418869937,565.4706502556,565.4808616649971,565.7809393469943,565.9011078259937,565.9510502960038,566.0710578529979,566.1210802249989,566.2412126020063,566.5412040240044,566.6612271299964,566.7113813199976,566.831335351002,567.2313997900055,567.131421676997,567.2313997900055,568.5319726159942,568.5319726159942,568.6316642206002,568.6418278100027,568.9418201549997,569.0618804510013,569.1120445289998,569.2319596330053,569.281973694,569.4020544910018,569.7021894799982,569.8220873590035,570.1221837860066,570.2423407960014,570.2924193829967,570.892395421004,570.892395421004,570.892395421004,1,0.22840174699376803,571.1425060909969,,,,,p4,001,2023-01-31_12h32.18.812,Cognition2_FullCode1,2022.2.5,99.98534215071689,
/Users/shamslab/Desktop/Cognition2_FullExperimentFile/p4_AudioBlock1.csv,0,2,2,1,2,1,2,11,41,53,83,95,100,112,142,154,159,171,201,1_audFile.wav,10,3,0,2,2,1,2,1,2,11,41,53,83,95,100,112,142,154,159,171,201,1_audFile.wav,10,3,1,1,0,1,1,1,0,21,21,11,,,,,,,,,572.6429984480055,572.8329255720018,573.8332581139985,573.8532822540001,573.9531429026028,573.9633518890041,574.2635091720003,574.3834058119974,574.6834242909972,574.803637243007,574.8535168439994,574.9735891790042,575.2737886569957,575.3938755800045,575.4437694340013,575.5638101130025,575.7139068639954,575.8638551280019,575.8638551280019,577.1644076340017,577.1644076340017,577.2640046186061,577.2742478099972,577.5743235940026,577.6945678880002,577.9945247370051,578.114518878996,578.1645889799984,578.2845702299965,578.5846263860003,578.7046598809975,578.7547614899959,578.8747368360055,579.1748039090016,579.5249475489982,579.5249475489982,579.5249475489982,2,0.29183811499387957,579.8350922569953,581.3354245060036,,,,p4,001,2023-01-31_12h32.18.812,Cognition2_FullCode1,2022.2.5,99.98534215071689,
/Users/shamslab/Desktop/Cognition2_FullExperimentFile/p4_AudioBlock1.csv,14,2,1,1,2,1,2,11,41,53,58,70,75,87,117,129,134,146,176,15_audFile.wav,10,2,14,2,1,1,2,1,2,11,41,53,58,70,75,87,117,129,134,146,176,15_audFile.wav,10,2,1,1,0,1,1,1,0,22,22,22,,,,,,,,,581.3354245060036,581.5354973770009,582.536132587993,582.536132587993,582.6356822895978,582.6458834960067,582.9459143410058,583.0659727900056,583.1159968760039,583.2359239009966,583.2859858519951,583.406112637007,583.7061643600027,583.8261535180063,583.876072619998,583.9961436050071,584.3964012310025,584.296277757996,584.3964012310025,585.6966906580055,585.6966906580055,585.7965858486059,585.806608533996,586.1067856169975,586.2268515509932,586.2768117950036,586.3969353709981,586.4470288080047,586.5670825749985,586.8671037199965,586.9870896250068,587.0370124180045,587.1570991549961,587.457207044994,588.0574546249991,588.0574546249991,588.0574546249991,1,0.30424006200337317,588.387405483998,,582.536132587993,,,p4,001,2023-01-31_12h32.18.812,Cognition2_FullCode1,2022.2.5,99.98534215071689,
/Users/shamslab/Desktop/Cognition2_FullExperimentFile/p4_AudioBlock1.csv,4,1,2,2,1,2,2,11,16,28,58,70,100,112,117,129,159,171,201,5_audFile.wav,10,1,4,1,2,2,1,2,2,11,16,28,58,70,100,112,117,129,159,171,201,5_audFile.wav,10,1,1,1,0,1,1,1,0,23,23,4,,,,,,,,,589.8879231600004,590.0779163380066,591.0781660140055,591.0882277289929,591.1879876015955,591.1982593900029,591.2481787730067,591.3681842380029,591.6685180000059,591.7885105150053,592.0884833640011,592.2085049900052,592.2586897360015,592.3785715599952,592.6786289739975,592.7987006129988,592.9487615940016,593.0986835619988,593.0986835619988,594.3993070290016,594.3993070290016,594.4989636266037,594.5091211429972,594.5592805380002,594.6792623939982,594.9793959170056,595.0994763289928,595.399515993995,595.5196580880001,595.5695131050015,595.689796103994,595.9895683049981,596.1097077690065,596.409778412999,596.7599174149946,596.7599174149946,596.7599174149946,1,0.22453064999717753,597.0098487320065,,,,,p4,001,2023-01-31_12h32.18.812,Cognition2_FullCode1,2022.2.5,99.98534215071689,
/Users/shamslab/Desktop/Cognition2_FullExperimentFile/p4_AudioBlock1.csv,12,1,2,1,2,2,1,11,16,28,58,70,75,87,117,129,159,171,176,13_audFile.wav,10,1,12,1,2,1,2,2,1,11,16,28,58,70,75,87,117,129,159,171,176,13_audFile.wav,10,1,1,1,0,1,1,1,0,24,24,25,,,,,,,,,598.5104247959971,598.6904020549991,599.6907615439995,599.7107312029984,599.8104173575921,599.8206754610001,599.8706867860019,599.9907024849963,600.2909245140036,600.4109381330054,600.460853644996,600.5809364640008,600.8810264829954,601.001138106003,601.3012356959953,601.4212168009981,601.5712915470067,601.4712316700025,601.5712915470067,602.8715991270001,602.8715991270001,602.9713708365962,602.9816697170027,603.0316707430029,603.1516792470065,603.4517676329997,603.5716894729994,603.621871796,603.7418066950049,604.0418183089932,604.162031254993,604.4621176749934,604.5821379700064,604.6320797939989,605.2322425689927,605.2322425689927,605.2322425689927,2,0.05686522999894805,605.312311710004,,,,,p4,001,2023-01-31_12h32.18.812,Cognition2_FullCode1,2022.2.5,99.98534215071689,
/Users/shamslab/Desktop/Cognition2_FullExperimentFile/p4_AudioBlock1.csv,11,2,1,1,2,2,1,11,41,53,58,70,75,87,117,129,159,171,176,12_audFile.wav,10,2,13,2,1,2,1,1,2,11,41,53,58,70,100,112,117,129,134,146,176,14_audFile.wav,10,2,1,2,0,1,1,1,0,25,25,17,,,,,,,,,606.8126675109961,607.0028055809962,608.0031270549953,608.0131360329979,608.1130334236004,608.1231067530025,608.4231320529943,608.5431127939955,608.5932219800015,608.7132969840022,608.7632896349969,608.8834164879954,609.1834623449977,609.303358707999,609.6035301679949,609.7236198239989,609.8736032690067,609.7735597489955,609.8736032690067,611.1741252530046,611.1741252530046,611.2738679515969,611.2840965630021,611.5840484439977,611.7042856899934,611.7540596699982,611.874202402003,612.1742244769994,612.2941521390021,612.3444052569976,612.4644806089927,612.5142589930038,612.6343180270051,612.9345835889981,613.5345781740034,613.5345781740034,613.5345781740034,1,0.354642562000663,613.9148082799948,,,,,p4,001,2023-01-31_12h32.18.812,Cognition2_FullCode1,2022.2.5,99.98534215071689,
/Users/shamslab/Desktop/Cognition2_FullExperimentFile/p4_AudioBlock1.csv,2,1,2,2,2,1,2,11,16,28,58,70,100,112,142,154,159,171,201,3_audFile.wav,10,1,10,1,2,2,1,2,1,11,16,28,58,70,100,112,117,129,159,171,176,11_audFile.wav,10,1,1,2,0,1,1,1,0,26,26,26,,,,,,,,,615.415165243001,615.6052213799994,616.6055640090053,616.6155892770039,616.7153810206,616.7256789120001,616.7754788269958,616.8954976499954,617.1957156709977,617.315743455998,617.6157924580039,617.7358173620014,618.0357801409991,618.1559876490064,618.205882380993,618.3260062699992,618.4761172510043,618.6261379719945,618.6261379719945,619.9264369470038,619.9264369470038,620.026233189601,620.0364238799957,620.0865872980066,620.2065736310033,620.5065622279944,620.6266083660012,620.9266283970064,621.0468041050044,621.0967248399975,621.2168725899974,621.5169886770018,621.6370805810002,621.6869492639962,622.2872420670028,622.2872420670028,622.2872420670028,2,0.37035892000130843,622.6772449200071,,,,,p4,001,2023-01-31_12h32.18.812,Cognition2_FullCode1,2022.2.5,99.98534215071689,
/Users/shamslab/Desktop/Cognition2_FullExperimentFile/p4_AudioBlock1.csv,2,1,2,2,2,1,2,11,16,28,58,70,100,112,142,154,159,171,201,3_audFile.wav,10,1,2,1,2,2,2,1,2,11,16,28,58,70,100,112,142,154,159,171,201,3_audFile.wav,10,1,1,1,0,1,1,1,0,27,27,8,,,,,,,,,624.1777429979993,624.3678291490069,625.3680279669934,625.3780726650002,625.4778897795986,625.488046294995,625.5379847949953,625.6581484089984,625.9580560930044,626.0782159859955,626.378283144004,626.4982571569999,626.7983343929955,626.918494698999,626.9683590579953,627.0885919559951,627.238690365004,627.3886217969994,627.3886217969994,628.6990550140035,628.6990550140035,628.7987346735972,628.8091001440043,628.8590447720053,628.9790869949938,629.2791249029979,629.3991676849982,629.699318561994,629.8193773819949,630.1193954930059,630.2393600729993,630.289332928005,630.4095043279958,630.7095781980024,631.0596905529965,631.0596905529965,631.0596905529965,1,0.261862616011058,631.3496516659943,,,,,p4,001,2023-01-31_12h32.18.812,Cognition2_FullCode1,2022.2.5,99.98534215071689,
/Users/shamslab/Desktop/Cognition2_FullExperimentFile/p4_AudioBlock1.csv,10,1,2,2,1,2,1,11,16,28,58,70,100,112,117,129,159,171,176,11_audFile.wav,10,1,10,1,2,2,1,2,1,11,16,28,58,70,100,112,117,129,159,171,176,11_audFile.wav,10,1,1,1,0,1,1,1,0,28,28,5,,,,,,,,,632.8500913250027,633.0402772149973,634.0405354260001,634.0505558639998,634.1504239185961,634.1606186720019,634.2105142910004,634.3306567730033,634.6306655109947,634.7507160779933,635.0507302320038,635.1708308709931,635.2208980739961,635.3408916540066,635.640987560997,635.7610048750066,635.910998552994,635.8110073319986,635.910998552994,637.2115007840039,637.2115007840039,637.3113752615973,637.3215073600004,637.371353879993,637.4914987649972,637.7915590549965,637.9115929560066,638.211860409996,638.3316503230017,638.3818840140011,638.5017095710064,638.8017694949958,638.9320036620047,638.9819156400044,639.5821855859976,639.5821855859976,639.5821855859976,2,0.3070128730032593,639.9121820849978,,,,,p4,001,2023-01-31_12h32.18.812,Cognition2_FullCode1,2022.2.5,99.98534215071689,
/Users/shamslab/Desktop/Cognition2_FullExperimentFile/p4_AudioBlock1.csv,0,2,2,1,2,1,2,11,41,53,83,95,100,112,142,154,159,171,201,1_audFile.wav,10,3,6,2,2,1,2,1,1,11,41,53,83,95,100,112,142,154,159,171,176,7_audFile.wav,10,3,1,2,0,1,1,1,0,29,29,2,,,,,,,,,641.4127281649999,641.6026523159962,642.6029136059951,642.6130474090023,642.7127845935975,642.7229389540007,643.0231204419979,643.1430745609978,643.443088073007,643.5631213330053,643.6132519450039,643.733198011003,644.0332901990041,644.1532639979996,644.2034072319948,644.3233976799966,644.4735584589944,644.6234860300028,644.6234860300028,645.923982784996,645.923982784996,646.0236727525989,646.033866629994,646.3339385589934,646.454023843995,646.7543568969995,646.8741746409942,646.9241051989957,647.0441749839956,647.4443620230013,647.5643983839982,647.6143262039986,647.7343303280068,647.7843789530016,648.3846649899933,648.3846649899933,648.3846649899933,2,0.2410569470084738,648.6546809989959,650.155142003001,,,,p4,001,2023-01-31_12h32.18.812,Cognition2_FullCode1,2022.2.5,99.98534215071689,
/Users/shamslab/Desktop/Cognition2_FullExperimentFile/p4_AudioBlock1.csv,4,1,2,2,1,2,2,11,16,28,58,70,100,112,117,129,159,171,201,5_audFile.wav,10,1,10,1,2,2,1,2,1,11,16,28,58,70,100,112,117,129,159,171,176,11_audFile.wav,10,1,1,2,0,1,1,1,0,30,30,12,,,,,,,,,650.155142003001,650.3450731909979,651.345437558004,651.3556796519988,651.4552548526044,651.4654213619942,651.5154214679933,651.6354528509983,651.9356415910006,652.0556921230018,652.3557661530067,652.4757592899987,652.525713340001,652.6458183219947,652.9458678999945,653.065898603003,653.2161290770018,653.366105987996,653.366105987996,654.6665124980063,654.6665124980063,654.7662680435969,654.7764707989991,654.8264007020043,654.9464398160053,655.2465708719974,655.366575455002,655.6666008479951,655.7866437000048,655.8367597769975,655.9567691859993,656.2567822449928,656.3768053359963,656.4269651899958,657.0270676179935,657.0270676179935,657.0270676179935,2,0.2453942509891931,657.2970718139986,,651.3556796519988,,,p4,001,2023-01-31_12h32.18.812,Cognition2_FullCode1,2022.2.5,99.98534215071689,
/Users/shamslab/Desktop/Cognition2_FullExperimentFile/p4_AudioBlock1.csv,6,2,2,1,2,1,1,11,41,53,83,95,100,112,142,154,159,171,176,7_audFile.wav,10,3,6,2,2,1,2,1,1,11,41,53,83,95,100,112,142,154,159,171,176,7_audFile.wav,10,3,1,1,0,1,1,1,0,31,31,30,,,,,,,,,658.7975863689935,658.9875561389927,659.9879581080022,659.9979799309949,660.0977929105939,660.1078993879928,660.4080286509998,660.5281913509971,660.8281719039951,660.948208878006,660.9983458149945,661.1181619169947,661.4183617369999,661.5383251299936,661.5883608639997,661.7084122829983,661.8584351080062,661.7583642569953,661.8584351080062,663.1589185159974,663.1589185159974,663.258610988596,663.268780917002,663.5688380939973,663.6890765940043,663.9890612970048,664.1090705270035,664.159062863997,664.279137976002,664.5791769869975,664.6993119919935,664.7491535739973,664.869455455002,664.9193982190045,665.5194754419936,665.5194754419936,665.5194754419936,1,0.24127081199549139,665.7796226719947,667.2842794640019,,,,p4,001,2023-01-31_12h32.18.812,Cognition2_FullCode1,2022.2.5,99.98534215071689,
/Users/shamslab/Desktop/Cognition2_FullExperimentFile/p4_AudioBlock1.csv,,,,,,,,,,,,,,,,,,,,,,,,,,,,,,,,,,,,,,,,,,,,,,,0,1,1,1,,,,,,,,,,,,,,,,,,,,,,,,,,,,,,,,,,,,,,,,,,,,,,,,,,,,,,,667.2842794640019,667.2842794640019,p4,001,2023-01-31_12h32.18.812,Cognition2_FullCode1,2022.2.5,99.98534215071689,
