filePaths,rhythm,stim1,stim2,stim3,stim4,stim5,stim6,stim1Start,stim1End,stim2Start,stim2End,stim3Start,stim3End,stim4Start,stim4End,stim5Start,stim5End,stim6Start,stim6End,audFile,audStart,similCat,rhythm_i2,stim1_i2,stim2_i2,stim3_i2,stim4_i2,stim5_i2,stim6_i2,stim1Start_i2,stim1End_i2,stim2Start_i2,stim2End_i2,stim3Start_i2,stim3End_i2,stim4Start_i2,stim4End_i2,stim5Start_i2,stim5End_i2,stim6Start_i2,stim6End_i2,audFile_i2,audStart_i2,similCat_i2,setVol,corrMatchAnswer,condFilePath,sensoryCond,stimStart,overallRhythmOrder.thisRepN,overallRhythmOrder.thisTrialN,overallRhythmOrder.thisN,overallRhythmOrder.thisIndex,AudVisRhythmLoop.thisRepN,AudVisRhythmLoop.thisTrialN,AudVisRhythmLoop.thisN,AudVisRhythmLoop.thisIndex,pickingSRTCond.thisRepN,pickingSRTCond.thisTrialN,pickingSRTCond.thisN,pickingSRTCond.thisIndex,srtTrials.thisRepN,srtTrials.thisTrialN,srtTrials.thisN,srtTrials.thisIndex,text_3.started,text_3.stopped,goToNext.keys,goToNext.rt,goToNext.started,goToNext.stopped,variableInstructions.started,variableInstructions.stopped,goToBlockKey.keys,goToBlockKey.rt,goToBlockKey.started,goToBlockKey.stopped,text_2.started,text_2.stopped,preFix.started,preFix.stopped,holdFix.started,holdFix.stopped,cir1.started,cir1.stopped,cir2.started,cir2.stopped,cir3.started,cir3.stopped,cir4.started,cir4.stopped,cir5.started,cir5.stopped,cir6.started,cir6.stopped,audioTrialSound.started,audioTrialSound.stopped,text.started,text.stopped,holdFix_i2.started,holdFix_i2.stopped,cir1_i2.started,cir1_i2.stopped,cir2_i2.started,cir2_i2.stopped,cir3_i2.started,cir3_i2.stopped,cir4_i2.started,cir4_i2.stopped,cir5_i2.started,cir5_i2.stopped,cir6_i2.started,cir6_i2.stopped,audioTrialSound_i2.started,audioTrialSound_i2.stopped,rhythmChoice.keys,rhythmChoice.rt,rhythmChoice.started,rhythmChoice.stopped,promptTxt.started,promptTxt.stopped,breatheBro.started,breatheBro.stopped,image.started,image.stopped,goToTrailTxt.started,goToTrailTxt.stopped,keyToGoNext.keys,keyToGoNext.rt,keyToGoNext.started,keyToGoNext.stopped,keyToGo.keys,keyToGo.rt,keyToGo.started,keyToGo.stopped,spaceTxt.started,spaceTxt.stopped,mainInstrText.started,mainInstrText.stopped,MoveToMainTask.keys,MoveToMainTask.rt,MoveToMainTask.started,MoveToMainTask.stopped,whichBlkTxt.started,whichBlkTxt.stopped,LetsGoGirls.keys,LetsGoGirls.rt,LetsGoGirls.started,LetsGoGirls.stopped,fixCross.started,fixCross.stopped,gratingStim.started,gratingStim.stopped,beepStim.started,beepStim.stopped,yesHitIt.keys,yesHitIt.rt,yesHitIt.started,yesHitIt.stopped,catchEarly.keys,catchEarly.started,catchEarly.stopped,text_4.started,text_4.stopped,feedbackIfNeeded.started,feedbackIfNeeded.stopped,annoyingBeep.started,annoyingBeep.stopped,catchEarly.rt,wordListTime,wordRecallInstr.started,wordRecallInstr.stopped,keytoWords.keys,keytoWords.rt,keytoWords.started,keytoWords.stopped,textForWords.text,textForWords.started,textForWords.stopped,wordText.started,wordText.stopped,wordTestTiming.keys,wordTestTiming.rt,wordTestTiming.started,wordTestTiming.stopped,byebyeText.started,byebyeText.stopped,pressToEnd.keys,pressToEnd.rt,pressToEnd.started,pressToEnd.stopped,participant,session,date,expName,psychopyVersion,frameRate,
,,,,,,,,,,,,,,,,,,,,,,,,,,,,,,,,,,,,,,,,,,,,,,,,,,,,,,,,,,,,,,,,,,10.202402954993886,None,space,65.70155415299814,10.392420920004952,None,,,,,,,,,,,,,,,,,,,,,,,,,,,,,,,,,,,,,,,,,,,,,,,,,,,,,,,,,,,,,,,,,,,,,,,,,,,,,,,,,,,,,,,,,,,,,,,,,,,,,,,,,,,,,,,,,,,,,,,,,1,001,2022_Nov_18_1815,Cognition2_FullCode1,2021.2.3,100.08710982480316,
/Users/shamslab/Desktop/Cognition2_FullExperimentFile/1_VisualBlock1.csv,28,1,2,1,1,2,2,11,16,28,58,70,75,87,92,104,134,146,176,3_audFile.wav,10,5,28,1,2,1,1,2,2,11,16,28,58,70,75,87,92,104,134,146,176,3_audFile.wav,10,5,0,1,,,,0,0,0,0,0,0,0,14,,,,,,,,,,,,,,,76.24264515799587,None,space,27.17534020000312,76.34264410600008,None,103.56283476800309,None,103.75280190400372,None,104.75280297799327,None,104.86276975600049,104.91277751000598,105.03279626800213,105.33288330200594,105.45277798699681,105.50275989899819,105.622813295995,105.67280520699569,105.7927936299966,106.092764386005,106.21278066000377,106.51282699700096,104.85275493809313,None,106.6128677319939,None,107.92277760599973,None,108.0327600199962,108.08275939000305,108.20285397599218,108.50280808200478,108.62277443999483,108.6728374420054,108.79279156499251,108.84279500799312,108.96276725200005,109.26281789099448,109.38281917000131,109.68277175200637,108.02273660710198,None,2,1.227196638006717,110.28280062699923,None,110.28280062699923,None,,,,,,,,,,,,,,,,,,,,,,,,,,,,,,,,,,,,,,,,,,,,,,,,,,,,,,,,,,,,,,,,,,,,,,,1,001,2022_Nov_18_1815,Cognition2_FullCode1,2021.2.3,100.08710982480316,
/Users/shamslab/Desktop/Cognition2_FullExperimentFile/1_VisualBlock1.csv,18,2,2,1,1,2,1,11,41,53,83,95,100,112,117,129,159,171,176,3_audFile.wav,10,7,18,2,2,1,1,2,1,11,41,53,83,95,100,112,117,129,159,171,176,3_audFile.wav,10,7,0,1,,,,0,0,0,0,0,1,1,21,,,,,,,,,,,,,,,,,,,,,111.53279548999853,None,111.71281876599824,112.71279300500464,112.73281671499717,None,112.84281632999773,113.14287552599853,113.2628315500042,113.56283003400313,113.68276715499815,113.73281622500508,113.85277999099344,113.90282371400099,114.02285499000573,114.32280126100522,114.44282780399953,114.49283017599373,112.83283117810497,None,114.59281955599727,None,115.89283605599485,None,116.0028040229954,116.30286575699574,116.42279662900546,116.72284976299852,116.84278769799857,116.89282945399464,117.01284044400381,117.06278063400532,117.18280315599986,117.48279593400366,117.60285192799347,117.65280564900604,115.99281086410046,None,2,1.777155625008163,118.25282836599217,None,118.25282836599217,None,,,,,,,,,,,,,,,,,,,,,,,,,,,,,,,,,,,,,,,,,,,,,,,,,,,,,,,,,,,,,,,,,,,,,,,1,001,2022_Nov_18_1815,Cognition2_FullCode1,2021.2.3,100.08710982480316,
/Users/shamslab/Desktop/Cognition2_FullExperimentFile/1_VisualBlock1.csv,28,1,2,1,1,2,2,11,16,28,58,70,75,87,92,104,134,146,176,3_audFile.wav,10,5,22,1,2,1,2,2,1,11,16,28,58,70,75,87,117,129,159,171,176,3_audFile.wav,10,5,0,2,,,,0,0,0,0,0,2,2,16,,,,,,,,,,,,,,,,,,,,,120.04285652200633,None,120.2328585840005,121.23284095599956,121.24288868599979,None,121.35280715599947,121.40282298300008,121.52276164499926,121.82289675300126,121.94287696600077,121.99285154399695,122.11284436700225,122.16282733599655,122.28287667599216,122.58285111699661,122.7028197710024,123.0029420810024,121.34284219509281,None,123.10280769100063,None,124.40284533200611,None,124.5128540279984,124.56288500700612,124.68283815200266,124.98284140099713,125.10286612699565,125.1528737040062,125.27285164799832,125.57283814100083,125.69286677800119,125.99288220499875,126.11285113700433,126.16287039600138,124.50286218510591,None,1,0.3391773600014858,126.76282715500565,None,126.76282715500565,None,,,,,,,,,,,,,,,,,,,,,,,,,,,,,,,,,,,,,,,,,,,,,,,,,,,,,,,,,,,,,,,,,,,,,,,1,001,2022_Nov_18_1815,Cognition2_FullCode1,2021.2.3,100.08710982480316,
/Users/shamslab/Desktop/Cognition2_FullExperimentFile/1_VisualBlock1.csv,27,1,1,2,2,1,2,11,16,28,33,45,75,87,117,129,134,146,176,3_audFile.wav,10,4,29,1,1,2,1,2,2,11,16,28,33,45,75,87,92,104,134,146,176,3_audFile.wav,10,4,0,2,,,,0,0,0,0,0,3,3,5,,,,,,,,,,,,,,,,,,,,,127.12285435400554,None,127.30286536099447,128.30285905499477,128.3228791349975,None,128.43284171300184,128.48287784299464,128.6028381340002,128.65286234600353,128.77284089000023,129.0728437749931,129.19285862499964,129.49296927600517,129.6128426409996,129.66286379599478,129.7829426219978,130.08286548599426,128.42283455410217,None,130.18285770900548,None,131.4828925299953,None,131.59285512199858,131.6428983700025,131.7628837920056,131.81286354399344,131.9328645189962,132.2328335409984,132.35284238899476,132.40299894899363,132.5228685059992,132.82288023999718,132.94287832200644,133.24287653999636,131.5828302850976,None,1,0.6670433440012857,133.84296764399915,None,133.84296764399915,None,,,,,,,,,,,,,,,,,,,,,,,,,,,,,,,,,,,,,,,,,,,,,,,,,,,,,,,,,,,,,,,,,,,,,,,1,001,2022_Nov_18_1815,Cognition2_FullCode1,2021.2.3,100.08710982480316,
/Users/shamslab/Desktop/Cognition2_FullExperimentFile/1_VisualBlock1.csv,22,1,2,1,2,2,1,11,16,28,58,70,75,87,117,129,159,171,176,3_audFile.wav,10,5,26,1,2,1,2,1,2,11,16,28,58,70,75,87,117,129,134,146,176,3_audFile.wav,10,5,0,2,,,,0,0,0,0,0,4,4,17,,,,,,,,,,,,,,,,,,,,,134.5228974280035,None,134.71286502899602,135.7128818219935,135.72297718099435,None,135.83288918499602,135.88287821000267,136.00295340399316,136.30291535799915,136.422890449001,136.47284289999516,136.59293846100627,136.89287840800534,137.01289095000539,137.31296367000323,137.43282779399306,137.48298736699508,135.82282558710432,None,137.58288097000332,None,138.88291067299724,None,138.9928343990032,139.04288421699312,139.1629057310056,139.46291120699607,139.58290731800662,139.63291214099445,139.75289212999633,140.05288061899773,140.17292944999645,140.22296481400554,140.34296825800266,140.6429037420021,138.982894790094,None,1,0.5390670699998736,141.24291411000013,None,141.24291411000013,None,,,,,,,,,,,,,,,,,,,,,,,,,,,,,,,,,,,,,,,,,,,,,,,,,,,,,,,,,,,,,,,,,,,,,,,1,001,2022_Nov_18_1815,Cognition2_FullCode1,2021.2.3,100.08710982480316,
/Users/shamslab/Desktop/Cognition2_FullExperimentFile/1_VisualBlock1.csv,21,2,1,1,2,2,1,11,41,53,58,70,75,87,117,129,159,171,176,3_audFile.wav,10,6,17,2,1,2,2,1,1,11,41,53,58,70,100,112,142,154,159,171,176,3_audFile.wav,10,6,0,2,,,,0,0,0,0,0,5,5,15,,,,,,,,,,,,,,,,,,,,,141.7929134559963,None,141.98303346699686,142.98290688800626,142.99289209299604,None,143.10293766199902,143.4029472109978,143.52295211599267,143.57290502999967,143.69295359999523,143.74295050899673,143.86292733800656,144.16294131700124,144.28296583499468,144.5829122790019,144.7029925609968,144.75290557800326,143.09295842410648,None,144.85289176499646,None,146.15296572999796,None,146.26297448700643,146.56295765600225,146.6829580210033,146.73292950200266,146.85293347800325,147.15291155800514,147.27295551200223,147.57292024500202,147.69292311600293,147.74294687699876,147.86298032999912,147.91296058100124,146.252899967102,None,1,0.36506189600913785,148.51293251900643,None,148.51293251900643,None,,,,,,,,,,,,,,,,,,,,,,,,,,,,,,,,,,,,,,,,,,,,,,,,,,,,,,,,,,,,,,,,,,,,,,,1,001,2022_Nov_18_1815,Cognition2_FullCode1,2021.2.3,100.08710982480316,
/Users/shamslab/Desktop/Cognition2_FullExperimentFile/1_VisualBlock1.csv,25,2,1,1,2,1,2,11,41,53,58,70,75,87,117,129,134,146,176,3_audFile.wav,10,6,25,2,1,1,2,1,2,11,41,53,58,70,75,87,117,129,134,146,176,3_audFile.wav,10,6,0,1,,,,0,0,0,0,0,6,6,18,,,,,,,,,,,,,,,,,,,,,148.89300169500348,None,149.08290243099327,150.0829639799922,150.09292511999956,None,150.2029730439972,150.50294600600319,150.62298740599363,150.67290466699342,150.79292897599225,150.84295066900086,150.96294412799762,151.2629198460054,151.38297372599482,151.4329237530037,151.55292445300438,151.85296716699668,150.1929569171014,None,151.95299853000324,None,153.25296099900152,None,153.36298806399282,153.66302520000318,153.7830035139923,153.8329335669987,153.95293052500347,154.00299728299433,154.12301819599816,154.4229720430012,154.54300710499228,154.5930077840021,154.71298781399673,155.01295780899818,153.3529455021024,None,1,0.4490598249976756,155.61296264200064,None,155.61296264200064,None,,,,,,,,,,,,,,,,,,,,,,,,,,,,,,,,,,,,,,,,,,,,,,,,,,,,,,,,,,,,,,,,,,,,,,,1,001,2022_Nov_18_1815,Cognition2_FullCode1,2021.2.3,100.08710982480316,
/Users/shamslab/Desktop/Cognition2_FullExperimentFile/1_VisualBlock1.csv,17,2,1,2,2,1,1,11,41,53,58,70,100,112,142,154,159,171,176,3_audFile.wav,10,6,21,2,1,1,2,2,1,11,41,53,58,70,75,87,117,129,159,171,176,3_audFile.wav,10,6,0,2,,,,0,0,0,0,0,7,7,12,,,,,,,,,,,,,,,,,,,,,156.07293522899272,None,156.26298330600548,157.26300237899704,157.27297741299844,None,157.3829855590011,157.68293132500548,157.802991353994,157.8529518449941,157.97293188699405,158.27308095399349,158.3929740159947,158.6929968829936,158.81294604600407,158.86298311399878,158.98298404399247,159.03300095199666,157.37295391010122,None,159.13294681700063,None,160.4330363420013,None,160.5430146209983,160.84311136500037,160.96300352299295,161.01298321099603,161.13298359699547,161.1829767349991,161.3029923110007,161.60302738500468,161.72298480199242,162.02297914300289,162.14301479399728,162.1929685829964,160.53297965909297,None,1,0.4609845619997941,162.79300258999865,None,162.79300258999865,None,,,,,,,,,,,,,,,,,,,,,,,,,,,,,,,,,,,,,,,,,,,,,,,,,,,,,,,,,,,,,,,,,,,,,,,1,001,2022_Nov_18_1815,Cognition2_FullCode1,2021.2.3,100.08710982480316,
/Users/shamslab/Desktop/Cognition2_FullExperimentFile/1_VisualBlock1.csv,21,2,1,1,2,2,1,11,41,53,58,70,75,87,117,129,159,171,176,3_audFile.wav,10,6,21,2,1,1,2,2,1,11,41,53,58,70,75,87,117,129,159,171,176,3_audFile.wav,10,6,0,1,,,,0,0,0,0,0,8,8,31,,,,,,,,,,,,,,,,,,,,,163.2730277209921,None,163.46299004099274,164.46299867299967,164.4729975329974,None,164.58306377599365,164.88313770700188,165.0030151349929,165.05305050700554,165.1729994769994,165.22298683000554,165.34301028099435,165.64297529299802,165.76300992499455,166.06297447100224,166.18314592300158,166.233011275006,164.57308751709644,None,166.33299859000545,None,167.63297511500423,None,167.74300233399845,168.04305481100164,168.1630258369987,168.21303902499494,168.3329710239923,168.38316447999387,168.50301424200006,168.8030111219996,168.92300850499305,169.22303906499292,169.34303807499236,169.39299909399415,167.73305003810384,None,1,0.37296188500477,169.99306557400269,None,169.99306557400269,None,,,,,,,,,,,,,,,,,,,,,,,,,,,,,,,,,,,,,,,,,,,,,,,,,,,,,,,,,,,,,,,,,,,,,,,1,001,2022_Nov_18_1815,Cognition2_FullCode1,2021.2.3,100.08710982480316,
/Users/shamslab/Desktop/Cognition2_FullExperimentFile/1_VisualBlock1.csv,27,1,1,2,2,1,2,11,16,28,33,45,75,87,117,129,134,146,176,3_audFile.wav,10,4,27,1,1,2,2,1,2,11,16,28,33,45,75,87,117,129,134,146,176,3_audFile.wav,10,4,0,1,,,,0,0,0,0,0,9,9,0,,,,,,,,,,,,,,,,,,,,,170.3830669989984,None,170.57298250499298,171.57307379999838,171.58317468399764,None,171.69307605399808,171.7430022519984,171.86301811400335,171.91304387499986,172.03296747099375,172.33311946099275,172.45302884800185,172.7530060029967,172.8730315069988,172.92305445000238,173.0430320739979,173.34301454899833,171.68302269209818,None,173.44302110400167,None,174.743145593995,None,174.85301623800478,174.90310905200022,175.0230442930042,175.07299613699433,175.19303276999563,175.49302351899678,175.61304135399405,175.91301785399264,176.0330126780027,176.08304971999314,176.203095948993,176.5030720030045,174.8430494461034,None,1,0.5668704089912353,177.1031370109995,None,177.1031370109995,None,,,,,,,,,,,,,,,,,,,,,,,,,,,,,,,,,,,,,,,,,,,,,,,,,,,,,,,,,,,,,,,,,,,,,,,1,001,2022_Nov_18_1815,Cognition2_FullCode1,2021.2.3,100.08710982480316,
/Users/shamslab/Desktop/Cognition2_FullExperimentFile/1_VisualBlock1.csv,17,2,1,2,2,1,1,11,41,53,58,70,100,112,142,154,159,171,176,3_audFile.wav,10,6,23,2,1,2,1,1,2,11,41,53,58,70,100,112,117,129,134,146,176,3_audFile.wav,10,6,0,2,,,,0,0,0,0,0,10,10,22,,,,,,,,,,,,,,,,,,,,,177.68307618200197,None,177.87302810700203,178.87302842899226,178.88310354200075,None,178.99311992099683,179.29304093899555,179.41304699999455,179.46312683899305,179.58320869899762,179.88321176500176,180.00307396000426,180.30306995699357,180.42309041900444,180.47308577300282,180.59307121200254,180.6430971850059,178.98303045409267,None,180.74307170200336,None,182.04307279500063,None,182.15307172799658,182.4530803779926,182.57316743099364,182.6232115150051,182.7430892179982,183.04317536999588,183.1630751759949,183.21309621799446,183.33304005500395,183.38306122600625,183.5030626939988,183.8030860209983,182.14305322810543,None,1,0.2829493699973682,184.40308637999988,None,184.40308637999988,None,,,,,,,,,,,,,,,,,,,,,,,,,,,,,,,,,,,,,,,,,,,,,,,,,,,,,,,,,,,,,,,,,,,,,,,1,001,2022_Nov_18_1815,Cognition2_FullCode1,2021.2.3,100.08710982480316,
/Users/shamslab/Desktop/Cognition2_FullExperimentFile/1_VisualBlock1.csv,24,1,2,2,1,1,2,11,16,28,58,70,100,112,117,129,134,146,176,3_audFile.wav,10,5,24,1,2,2,1,1,2,11,16,28,58,70,100,112,117,129,134,146,176,3_audFile.wav,10,5,0,1,,,,0,0,0,0,0,11,11,2,,,,,,,,,,,,,,,,,,,,,184.70311053500336,None,184.89308232099575,185.89304993000405,185.90304391400423,None,186.01306103500247,186.0631105259963,186.18310184399888,186.48313575799693,186.6031057939981,186.90319679499953,187.0230910590035,187.07311226299498,187.19304995999846,187.24308281499543,187.36312496000028,187.66310217299906,186.00306288209396,None,187.76308553699346,None,189.06315751299553,None,189.17305955599295,189.22310886900232,189.34314817600534,189.64310489299532,189.76314098900184,190.06309722700098,190.1831050979963,190.23307583699352,190.35308831599832,190.40320468299615,190.5230914249987,190.82310575200245,189.16310618709832,None,1,0.2388643209997099,191.42313181700592,None,191.42313181700592,None,,,,,,,,,,,,,,,,,,,,,,,,,,,,,,,,,,,,,,,,,,,,,,,,,,,,,,,,,,,,,,,,,,,,,,,1,001,2022_Nov_18_1815,Cognition2_FullCode1,2021.2.3,100.08710982480316,
/Users/shamslab/Desktop/Cognition2_FullExperimentFile/1_VisualBlock1.csv,20,1,2,2,1,2,1,11,16,28,58,70,100,112,117,129,159,171,176,3_audFile.wav,10,5,24,1,2,2,1,1,2,11,16,28,58,70,100,112,117,129,134,146,176,3_audFile.wav,10,5,0,2,,,,0,0,0,0,0,12,12,13,,,,,,,,,,,,,,,,,,,,,191.67307606300164,None,191.8631197939976,192.86310280900216,192.87309463799465,None,192.98317086500174,193.03307188600593,193.1530925219995,193.45315561399912,193.57311495399335,193.87309076500242,193.99308382699382,194.04311928800598,194.16318716500246,194.4631159230048,194.58312273600313,194.6330787869956,192.97314836609877,None,194.7330831050058,None,196.03309088099923,None,196.1431815179967,196.19310898399272,196.3130925860023,196.61308205699606,196.73309412199887,197.0331728780002,197.1531267859973,197.20312285100226,197.32314002599742,197.3731353280018,197.49311076599406,197.79314276399964,196.13318907509966,None,2,0.43684159801341593,198.3931561060017,None,198.3931561060017,None,,,,,,,,,,,,,,,,,,,,,,,,,,,,,,,,,,,,,,,,,,,,,,,,,,,,,,,,,,,,,,,,,,,,,,,1,001,2022_Nov_18_1815,Cognition2_FullCode1,2021.2.3,100.08710982480316,
/Users/shamslab/Desktop/Cognition2_FullExperimentFile/1_VisualBlock1.csv,26,1,2,1,2,1,2,11,16,28,58,70,75,87,117,129,134,146,176,3_audFile.wav,10,5,26,1,2,1,2,1,2,11,16,28,58,70,75,87,117,129,134,146,176,3_audFile.wav,10,5,0,1,,,,0,0,0,0,0,13,13,25,,,,,,,,,,,,,,,,,,,,,198.84312653599773,None,199.03307602499262,200.03310376299487,200.0431632069958,None,200.15315604099305,200.20312119199662,200.3231530740013,200.62321039299422,200.74311783000303,200.79314361499564,200.913126792002,201.21316407600534,201.3331299309939,201.38326407500426,201.50313179500517,201.803160312993,200.14313053909865,None,201.9032177659974,None,203.20323667599587,None,203.31313621900335,203.36322767099773,203.48316710899235,203.7831637289928,203.90316981899377,203.95328284500283,204.0732416020037,204.3731735600013,204.49318101099925,204.54317507099768,204.66316334299336,204.96315600500384,203.3031230681052,None,2,0.5068264959991211,205.5632253329968,None,205.5632253329968,None,,,,,,,,,,,,,,,,,,,,,,,,,,,,,,,,,,,,,,,,,,,,,,,,,,,,,,,,,,,,,,,,,,,,,,,1,001,2022_Nov_18_1815,Cognition2_FullCode1,2021.2.3,100.08710982480316,
/Users/shamslab/Desktop/Cognition2_FullExperimentFile/1_VisualBlock1.csv,16,2,2,1,2,1,1,11,41,53,83,95,100,112,142,154,159,171,176,3_audFile.wav,10,7,18,2,2,1,1,2,1,11,41,53,83,95,100,112,117,129,159,171,176,3_audFile.wav,10,7,0,2,,,,0,0,0,0,0,14,14,6,,,,,,,,,,,,,,,,,,,,,206.08316894200107,None,206.27315794299648,207.27314484100498,207.28320171899395,None,207.39315739400627,207.69320240800153,207.81316113000503,208.11316304300271,208.23315633900347,208.2832310179947,208.40322989800188,208.70316123199882,208.8232114410057,208.87315273699642,208.9931697800057,209.04318732100364,207.38317075710512,None,209.14316382700054,None,210.44320735799556,None,210.55319538799813,210.85325524299697,210.97320282099827,211.2731822700007,211.39318519800145,211.44321845799277,211.56318528400152,211.61317748700094,211.73319052100123,212.03318993200082,212.15314829099225,212.2032827410003,210.5431963611016,None,1,0.5787707260024035,212.80321677299798,None,212.80321677299798,None,,,,,,,,,,,,,,,,,,,,,,,,,,,,,,,,,,,,,,,,,,,,,,,,,,,,,,,,,,,,,,,,,,,,,,,1,001,2022_Nov_18_1815,Cognition2_FullCode1,2021.2.3,100.08710982480316,
/Users/shamslab/Desktop/Cognition2_FullExperimentFile/1_VisualBlock1.csv,16,2,2,1,2,1,1,11,41,53,83,95,100,112,142,154,159,171,176,3_audFile.wav,10,7,16,2,2,1,2,1,1,11,41,53,83,95,100,112,142,154,159,171,176,3_audFile.wav,10,7,0,1,,,,0,0,0,0,0,15,15,4,,,,,,,,,,,,,,,,,,,,,213.3932036729966,None,213.58320242700574,214.5832776019961,214.59318390699627,None,214.703213159999,215.0031914699939,215.1232599060022,215.4232163770066,215.54319198000303,215.5932013480051,215.7132300230005,216.01321622800606,216.1332383669942,216.1832164600055,216.3031952349993,216.35319392199744,214.69322013909988,None,216.45319805799227,None,217.7532992619963,None,217.86319094699866,218.1632309609995,218.28321826600586,218.58325815699936,218.70323511899915,218.75323212599324,218.87321934899956,219.1732240160054,219.2931827870052,219.34330390799732,219.4632210090058,219.51320524100447,217.85321691509745,None,2,0.4927623190014856,220.11326837999513,None,220.11326837999513,None,,,,,,,,,,,,,,,,,,,,,,,,,,,,,,,,,,,,,,,,,,,,,,,,,,,,,,,,,,,,,,,,,,,,,,,1,001,2022_Nov_18_1815,Cognition2_FullCode1,2021.2.3,100.08710982480316,
/Users/shamslab/Desktop/Cognition2_FullExperimentFile/1_VisualBlock1.csv,22,1,2,1,2,2,1,11,16,28,58,70,75,87,117,129,159,171,176,3_audFile.wav,10,5,22,1,2,1,2,2,1,11,16,28,58,70,75,87,117,129,159,171,176,3_audFile.wav,10,5,0,1,,,,0,0,0,0,0,16,16,26,,,,,,,,,,,,,,,,,,,,,220.6232407380012,None,220.8131977459998,221.8132974320033,221.82324281599722,None,221.93329234600242,221.98323071500636,222.10329694699612,222.40333063100115,222.5233091209957,222.57321228999353,222.69322672800627,222.99320960699697,223.1132350130065,223.41326269999263,223.53336517700518,223.5832533740031,221.92323553710304,None,223.68336120000458,None,224.98324548899836,None,225.0932288930053,225.14321696400293,225.26323678600602,225.5633077639941,225.68321820700658,225.73317039800168,225.8532387949963,226.15326511699823,226.27318996599934,226.57318006199785,226.6932319780026,226.74326027400093,225.0832185340958,None,2,0.4227955279930029,227.34323441899323,None,227.34323441899323,None,,,,,,,,,,,,,,,,,,,,,,,,,,,,,,,,,,,,,,,,,,,,,,,,,,,,,,,,,,,,,,,,,,,,,,,1,001,2022_Nov_18_1815,Cognition2_FullCode1,2021.2.3,100.08710982480316,
/Users/shamslab/Desktop/Cognition2_FullExperimentFile/1_VisualBlock1.csv,17,2,1,2,2,1,1,11,41,53,58,70,100,112,142,154,159,171,176,3_audFile.wav,10,6,17,2,1,2,2,1,1,11,41,53,58,70,100,112,142,154,159,171,176,3_audFile.wav,10,6,0,1,,,,0,0,0,0,0,17,17,8,,,,,,,,,,,,,,,,,,,,,227.78324827300094,None,227.97318070700567,228.97320209399913,228.98330669800634,None,229.09323159199266,229.39325670899416,229.5132314490038,229.56324516299355,229.68332417300553,229.983282606001,230.10326115399948,230.40330660699692,230.52329822299362,230.57325954599946,230.69324394599244,230.74324703599268,229.08318878609572,None,230.84325278199685,None,232.14331360399956,None,232.2531952339923,232.55326608699397,232.67324649100192,232.72330535799847,232.84330552299798,233.143290092994,233.26330728200264,233.56334297200374,233.6832609569974,233.73324023200257,233.85326259299472,233.90332046999538,232.2432809410937,None,1,0.2787417929939693,234.50326912099263,None,234.50326912099263,None,,,,,,,,,,,,,,,,,,,,,,,,,,,,,,,,,,,,,,,,,,,,,,,,,,,,,,,,,,,,,,,,,,,,,,,1,001,2022_Nov_18_1815,Cognition2_FullCode1,2021.2.3,100.08710982480316,
/Users/shamslab/Desktop/Cognition2_FullExperimentFile/1_VisualBlock1.csv,20,1,2,2,1,2,1,11,16,28,58,70,100,112,117,129,159,171,176,3_audFile.wav,10,5,28,1,2,1,1,2,2,11,16,28,58,70,75,87,92,104,134,146,176,3_audFile.wav,10,5,0,2,,,,0,0,0,0,0,18,18,11,,,,,,,,,,,,,,,,,,,,,234.7932690220041,None,234.98329284999636,235.9832899269968,235.99327529300353,None,236.10340760200052,236.15325344000303,236.2732998959982,236.57327748500393,236.69319506999454,236.99333645300067,237.1132620260032,237.163304229005,237.28331438399618,237.58334692500648,237.7032901019993,237.75327141399612,236.09330738009595,None,237.85327875599614,None,239.15331249899464,None,239.26332583000476,239.31330644499394,239.4333055629977,239.73329130500497,239.85330239099858,239.90332095300255,240.02339975599898,240.07329162300448,240.19335319199308,240.4932947549969,240.613271188995,240.91333804800524,239.25334261110112,None,1,0.5407158000016352,241.51327716400556,None,241.51327716400556,None,,,,,,,,,,,,,,,,,,,,,,,,,,,,,,,,,,,,,,,,,,,,,,,,,,,,,,,,,,,,,,,,,,,,,,,1,001,2022_Nov_18_1815,Cognition2_FullCode1,2021.2.3,100.08710982480316,
/Users/shamslab/Desktop/Cognition2_FullExperimentFile/1_VisualBlock1.csv,18,2,2,1,1,2,1,11,41,53,83,95,100,112,117,129,159,171,176,3_audFile.wav,10,7,16,2,2,1,2,1,1,11,41,53,83,95,100,112,142,154,159,171,176,3_audFile.wav,10,7,0,2,,,,0,0,0,0,0,19,19,29,,,,,,,,,,,,,,,,,,,,,242.07330208200437,None,242.2633335230057,243.26332140900195,243.27331359199889,None,243.38330766199215,243.6833526249975,243.80330434899952,244.1033526090032,244.22333370799606,244.2732924830052,244.39328067199676,244.44333098099742,244.5633394299948,244.86332381800457,244.9833103370038,245.03337198900408,243.3733116811025,None,245.13328690799244,None,246.43329304699728,None,246.54335500800516,246.84339600999374,246.96335300800274,247.26336065199575,247.3834654270031,247.4333555369958,247.55332747699867,247.85328747000312,247.97336208299384,248.02334526900086,248.14338128099917,248.19329173299775,246.53333342610568,None,1,0.7486676720000105,248.79332861599687,None,248.79332861599687,None,,,,,,,,,,,,,,,,,,,,,,,,,,,,,,,,,,,,,,,,,,,,,,,,,,,,,,,,,,,,,,,,,,,,,,,1,001,2022_Nov_18_1815,Cognition2_FullCode1,2021.2.3,100.08710982480316,
/Users/shamslab/Desktop/Cognition2_FullExperimentFile/1_VisualBlock1.csv,24,1,2,2,1,1,2,11,16,28,58,70,100,112,117,129,134,146,176,3_audFile.wav,10,5,24,1,2,2,1,1,2,11,16,28,58,70,100,112,117,129,134,146,176,3_audFile.wav,10,5,0,1,,,,0,0,0,0,0,20,20,30,,,,,,,,,,,,,,,,,,,,,249.55331814799865,None,249.7433216359932,250.74335062700266,250.7533917700057,None,250.86333971000568,250.91336338799738,251.03333454899257,251.33335683199402,251.45331772099598,251.75335953899776,251.87337553199905,251.92335784899478,252.04338235899922,252.09332777999225,252.2133749420027,252.51331196899991,250.85334692010366,None,252.61335081599827,None,253.91335085099854,None,254.02339125800063,254.07334928799537,254.19340113499493,254.49340798699996,254.613329617001,254.91332245100057,255.03335597399564,255.08338076400105,255.20336854099878,255.2534189979924,255.373319773993,255.67339163800352,254.01336324610457,None,1,0.8285975979961222,256.2734026550024,None,256.2734026550024,None,,,,,,,,,,,,,,,,,,,,,,,,,,,,,,,,,,,,,,,,,,,,,,,,,,,,,,,,,,,,,,,,,,,,,,,1,001,2022_Nov_18_1815,Cognition2_FullCode1,2021.2.3,100.08710982480316,
/Users/shamslab/Desktop/Cognition2_FullExperimentFile/1_VisualBlock1.csv,19,2,1,2,1,2,1,11,41,53,58,70,100,112,117,129,159,171,176,3_audFile.wav,10,6,19,2,1,2,1,2,1,11,41,53,58,70,100,112,117,129,159,171,176,3_audFile.wav,10,6,0,1,,,,0,0,0,0,0,21,21,7,,,,,,,,,,,,,,,,,,,,,257.1133467239997,None,257.30341486399993,258.3033566910017,258.3134133749991,None,258.4233666069922,258.72347064799396,258.84335727499274,258.89334433000477,259.0133739459998,259.3134832289943,259.43336400900444,259.4833555590012,259.6033555739996,259.9033600399998,260.02339189400664,260.0733384030027,258.41337762110635,None,260.17338213500625,None,261.4734877449955,None,261.58337639499223,261.8834018339985,262.0034070749971,262.0533947590011,262.17339954899217,262.4733765790006,262.59337717399467,262.6433772559976,262.7634584149928,263.0633821780066,263.18340281500423,263.23335798199696,261.5734012641013,None,1,1.24459769501118,263.8333879690035,None,263.8333879690035,None,,,,,,,,,,,,,,,,,,,,,,,,,,,,,,,,,,,,,,,,,,,,,,,,,,,,,,,,,,,,,,,,,,,,,,,1,001,2022_Nov_18_1815,Cognition2_FullCode1,2021.2.3,100.08710982480316,
/Users/shamslab/Desktop/Cognition2_FullExperimentFile/1_VisualBlock1.csv,20,1,2,2,1,2,1,11,16,28,58,70,100,112,117,129,159,171,176,3_audFile.wav,10,5,20,1,2,2,1,2,1,11,16,28,58,70,100,112,117,129,159,171,176,3_audFile.wav,10,5,0,1,,,,0,0,0,0,0,22,22,24,,,,,,,,,,,,,,,,,,,,,265.09340636400157,None,265.2834524850041,266.2833942330035,266.2934898329986,None,266.40351231799286,266.45341070099676,266.57341490499675,266.873434121997,266.993498226002,267.2933660480048,267.4133777380048,267.46342006800114,267.58341836299223,267.883432268005,268.0034060619946,268.0533682480018,266.3935149211,None,268.1533828149986,None,269.45340513299743,None,269.563439724996,269.6133880760026,269.73340219599777,270.03345834399806,270.15339771599974,270.45352628700493,270.5733715840033,270.6234235199954,270.7434481639939,271.0435151010024,271.1634109610022,271.21337115099595,269.5534258490923,None,2,0.3286147899925709,271.8134121769981,None,271.8134121769981,None,,,,,,,,,,,,,,,,,,,,,,,,,,,,,,,,,,,,,,,,,,,,,,,,,,,,,,,,,,,,,,,,,,,,,,,1,001,2022_Nov_18_1815,Cognition2_FullCode1,2021.2.3,100.08710982480316,
/Users/shamslab/Desktop/Cognition2_FullExperimentFile/1_VisualBlock1.csv,26,1,2,1,2,1,2,11,16,28,58,70,75,87,117,129,134,146,176,3_audFile.wav,10,5,20,1,2,2,1,2,1,11,16,28,58,70,100,112,117,129,159,171,176,3_audFile.wav,10,5,0,2,,,,0,0,0,0,0,23,23,27,,,,,,,,,,,,,,,,,,,,,272.1534074539959,None,272.34343045299465,273.3434275259933,273.3534699890006,None,273.46343143899867,273.5133996740042,273.6333879120066,273.9334199690056,274.0534398150048,274.10345419100486,274.2235034100013,274.523436760006,274.6434277090011,274.6933984609932,274.8134116889996,275.1134445689968,273.4534533180966,None,275.21340488600254,None,276.5134881279955,None,276.62348639300035,276.67351522200624,276.7934187429928,277.0934339420055,277.21343058800267,277.51346047999687,277.633438482997,277.68347158899996,277.8034504889947,278.10344860199257,278.22348500500084,278.27346562400635,276.613454597097,None,2,0.37262302900489885,278.87343497500115,None,278.87343497500115,None,,,,,,,,,,,,,,,,,,,,,,,,,,,,,,,,,,,,,,,,,,,,,,,,,,,,,,,,,,,,,,,,,,,,,,,1,001,2022_Nov_18_1815,Cognition2_FullCode1,2021.2.3,100.08710982480316,
/Users/shamslab/Desktop/Cognition2_FullExperimentFile/1_VisualBlock1.csv,24,1,2,2,1,1,2,11,16,28,58,70,100,112,117,129,134,146,176,3_audFile.wav,10,5,20,1,2,2,1,2,1,11,16,28,58,70,100,112,117,129,159,171,176,3_audFile.wav,10,5,0,2,,,,0,0,0,0,0,24,24,3,,,,,,,,,,,,,,,,,,,,,279.26352456099994,None,279.45342959200207,280.4534103610058,280.46347975099343,None,280.573471908996,280.62347737900564,280.7434637319966,281.0434690830007,281.1635456609947,281.46346144100244,281.58353542799887,281.63346404199547,281.7534646790009,281.80347866799275,281.92348412799765,282.22347725399595,280.5634833591001,None,282.3234869739972,None,283.62349371099845,None,283.73352771799546,283.7834650790028,283.90351131100033,284.20372170899645,284.32354149900493,284.62347293099447,284.74347183899954,284.7934769419953,284.91346861000056,285.2134885760024,285.3335012259922,285.38350383899524,283.72345272010426,None,1,0.7585170509992167,285.98351251200074,None,285.98351251200074,None,,,,,,,,,,,,,,,,,,,,,,,,,,,,,,,,,,,,,,,,,,,,,,,,,,,,,,,,,,,,,,,,,,,,,,,1,001,2022_Nov_18_1815,Cognition2_FullCode1,2021.2.3,100.08710982480316,
/Users/shamslab/Desktop/Cognition2_FullExperimentFile/1_VisualBlock1.csv,26,1,2,1,2,1,2,11,16,28,58,70,75,87,117,129,134,146,176,3_audFile.wav,10,5,26,1,2,1,2,1,2,11,16,28,58,70,75,87,117,129,134,146,176,3_audFile.wav,10,5,0,1,,,,0,0,0,0,0,25,25,19,,,,,,,,,,,,,,,,,,,,,286.7534750729974,None,286.94347160299367,287.9434511309955,287.95349693000026,None,288.0635312009981,288.1135281530005,288.2334332150058,288.5334553069988,288.6534767120029,288.70350830499956,288.82356670999434,289.12349584000185,289.24352816499595,289.2935432749946,289.4135138900019,289.7134766759991,288.05354046709255,None,289.81348929599335,None,291.11352011999406,None,291.2235542359995,291.2735082290019,291.39349466899876,291.69349472499744,291.81352357599826,291.8634670780011,291.98358730399923,292.28349681399413,292.40349773000344,292.4535115100007,292.5735334369965,292.873603576998,291.2134868941037,None,1,0.7404416429926641,293.4735456750059,None,293.4735456750059,None,,,,,,,,,,,,,,,,,,,,,,,,,,,,,,,,,,,,,,,,,,,,,,,,,,,,,,,,,,,,,,,,,,,,,,,1,001,2022_Nov_18_1815,Cognition2_FullCode1,2021.2.3,100.08710982480316,
/Users/shamslab/Desktop/Cognition2_FullExperimentFile/1_VisualBlock1.csv,23,2,1,2,1,1,2,11,41,53,58,70,100,112,117,129,134,146,176,3_audFile.wav,10,6,17,2,1,2,2,1,1,11,41,53,58,70,100,112,142,154,159,171,176,3_audFile.wav,10,6,0,2,,,,0,0,0,0,0,26,26,23,,,,,,,,,,,,,,,,,,,,,294.233534376006,None,294.4235103329993,295.4235153500049,295.43351487799373,None,295.5435174500017,295.84351964999223,295.9635328639997,296.0134818700026,296.13347805499507,296.4334951530036,296.55356775999826,296.6035073749954,296.72359309499734,296.7735007559968,296.8935079140065,297.1935319329932,295.5335180100927,None,297.2935244370019,None,298.59353211500274,None,298.7036659949954,299.00350170799356,299.1235333759978,299.1735279090062,299.29353676599567,299.59353209199617,299.7135097730061,300.0135224169935,300.1335106540064,300.1835282969987,300.30370770400623,300.3535302639939,298.69364779909375,None,1,0.6284087000094587,300.9536121429992,None,300.9536121429992,None,,,,,,,,,,,,,,,,,,,,,,,,,,,,,,,,,,,,,,,,,,,,,,,,,,,,,,,,,,,,,,,,,,,,,,,1,001,2022_Nov_18_1815,Cognition2_FullCode1,2021.2.3,100.08710982480316,
/Users/shamslab/Desktop/Cognition2_FullExperimentFile/1_VisualBlock1.csv,29,1,1,2,1,2,2,11,16,28,33,45,75,87,92,104,134,146,176,3_audFile.wav,10,4,27,1,1,2,2,1,2,11,16,28,33,45,75,87,117,129,134,146,176,3_audFile.wav,10,4,0,2,,,,0,0,0,0,0,27,27,1,,,,,,,,,,,,,,,,,,,,,301.593545376003,None,301.78352942499623,302.7835925669933,302.79352849299903,None,302.90358572700643,302.9535330660001,303.0735398419929,303.12356219100184,303.24355653399834,303.543639112002,303.6636324160063,303.71353957700194,303.8336251229921,304.133659212006,304.2535236239928,304.553507663004,302.89358449210414,None,304.65352607599925,None,305.95357144299487,None,306.0635771459929,306.11354770300386,306.23352893399715,306.28356319500017,306.4035680139932,306.7035811800015,306.8236407959921,307.12358015299833,307.2436075930018,307.29363229099545,307.4135214709968,307.71351818599214,306.0535547170992,None,2,0.6204492700053379,308.3135409599927,None,308.3135409599927,None,,,,,,,,,,,,,,,,,,,,,,,,,,,,,,,,,,,,,,,,,,,,,,,,,,,,,,,,,,,,,,,,,,,,,,,1,001,2022_Nov_18_1815,Cognition2_FullCode1,2021.2.3,100.08710982480316,
/Users/shamslab/Desktop/Cognition2_FullExperimentFile/1_VisualBlock1.csv,19,2,1,2,1,2,1,11,41,53,58,70,100,112,117,129,159,171,176,3_audFile.wav,10,6,21,2,1,1,2,2,1,11,41,53,58,70,75,87,117,129,159,171,176,3_audFile.wav,10,6,0,2,,,,0,0,0,0,0,28,28,10,,,,,,,,,,,,,,,,,,,,,308.95358043200395,None,309.1435733739927,310.1436420359969,310.15358052100055,None,310.2636979959934,310.5635986910056,310.68358638399513,310.73355214399635,310.8535520900041,311.15366420899227,311.2735422609985,311.3235866899922,311.44359505899774,311.7436513230059,311.8636859609978,311.9135227329971,310.25358227209364,None,312.0135172720038,None,313.3136031579925,None,313.42358682799386,313.7235706229985,313.8436419219943,313.89360842999304,314.0135332229984,314.06357619099435,314.1836654189974,314.4836069029989,314.6036298889958,314.9035820919962,315.0235991200025,315.0735358810052,313.4136090400978,None,1,1.6764223750069505,315.6735933589953,None,315.6735933589953,None,,,,,,,,,,,,,,,,,,,,,,,,,,,,,,,,,,,,,,,,,,,,,,,,,,,,,,,,,,,,,,,,,,,,,,,1,001,2022_Nov_18_1815,Cognition2_FullCode1,2021.2.3,100.08710982480316,
/Users/shamslab/Desktop/Cognition2_FullExperimentFile/1_VisualBlock1.csv,23,2,1,2,1,1,2,11,41,53,58,70,100,112,117,129,134,146,176,3_audFile.wav,10,6,23,2,1,2,1,1,2,11,41,53,58,70,100,112,117,129,134,146,176,3_audFile.wav,10,6,0,1,,,,0,0,0,0,0,29,29,9,,,,,,,,,,,,,,,,,,,,,317.3636571090028,None,317.5536124229984,318.5536054989934,318.56368609299534,None,318.6735355809942,318.9736419499968,319.09357650099264,319.14358469199215,319.26365578999685,319.5635867520032,319.683665812001,319.7336437579943,319.8536221910035,319.90361348599254,320.0236603789963,320.3236826009961,318.66357547709487,None,320.42360492599255,None,321.7236518599966,None,321.83358967000095,322.13360772799933,322.2536319380015,322.3036440129945,322.4237089429953,322.72363317800045,322.8436039560038,322.8936434579955,323.0136112159962,323.0635999149963,323.1836531750014,323.4836313370033,321.8236064500932,None,2,0.5463257570081623,324.0836869289924,None,324.0836869289924,None,,,,,,,,,,,,,,,,,,,,,,,,,,,,,,,,,,,,,,,,,,,,,,,,,,,,,,,,,,,,,,,,,,,,,,,1,001,2022_Nov_18_1815,Cognition2_FullCode1,2021.2.3,100.08710982480316,
/Users/shamslab/Desktop/Cognition2_FullExperimentFile/1_VisualBlock1.csv,25,2,1,1,2,1,2,11,41,53,58,70,75,87,117,129,134,146,176,3_audFile.wav,10,6,21,2,1,1,2,2,1,11,41,53,58,70,75,87,117,129,159,171,176,3_audFile.wav,10,6,0,2,,,,0,0,0,0,0,30,30,20,,,,,,,,,,,,,,,,,,,,,324.64364995500364,None,324.8336178269965,325.83362099599617,325.84365670800616,None,325.9536186159967,326.25368671999604,326.3736480069929,326.42368372899364,326.543650645006,326.5936458579963,326.71362060400133,327.0136318690056,327.13362418100587,327.18369026000437,327.30368699799874,327.60363390699786,325.9436061121058,None,327.70368402700115,None,329.003644825003,None,329.11366466600157,329.41366950099473,329.5336211679969,329.5837124249956,329.7036842880043,329.7536854939972,329.87361774900637,330.1736352650041,330.29370298600406,330.5936277669971,330.7136963889934,330.76369372299814,329.1036515480926,None,1,0.7063281839946285,331.3636598739977,None,331.3636598739977,None,,,,,,,,,,,,,,,,,,,,,,,,,,,,,,,,,,,,,,,,,,,,,,,,,,,,,,,,,,,,,,,,,,,,,,,1,001,2022_Nov_18_1815,Cognition2_FullCode1,2021.2.3,100.08710982480316,
/Users/shamslab/Desktop/Cognition2_FullExperimentFile/1_VisualBlock1.csv,29,1,1,2,1,2,2,11,16,28,33,45,75,87,92,104,134,146,176,3_audFile.wav,10,4,29,1,1,2,1,2,2,11,16,28,33,45,75,87,92,104,134,146,176,3_audFile.wav,10,4,0,1,,,,0,0,0,0,0,31,31,28,,,,,,,,,,,,,,,,,,,,,332.08368163500563,None,332.27367311299895,333.2736443259928,333.28369392399327,None,333.393635512999,333.4436690440052,333.5637187240063,333.6137089380063,333.7336473369942,334.03365551699244,334.1536192289932,334.2037862159923,334.3236501089996,334.6236988330056,334.74369507300435,335.04371789800643,333.3836521940946,None,335.14368577400455,None,336.4436743249971,None,336.55367387899605,336.6036811770027,336.7236972130049,336.773647643,336.8936717059987,337.19364170500194,337.3136666270002,337.3637041809998,337.4836603379954,337.783695413993,337.90371124100056,338.2036757750029,336.54366886209465,None,1,0.6262991559924558,338.80369279799925,None,338.80369279799925,None,,,,,,,,,,,,,,,,,,,,,,,,,,,,,,,,,,,,,,,,,,,,,,,,,,,,,,,,,,,,,,,,,,,,,,,1,001,2022_Nov_18_1815,Cognition2_FullCode1,2021.2.3,100.08710982480316,
/Users/shamslab/Desktop/Cognition2_FullExperimentFile/1_VisualBlock1.csv,,,,,,,,,,,,,,,,,,,,,,,,,,,,,,,,,,,,,,,,,,,,,,,,,,0,0,0,0,,,,,,,,,,,,,,,,,,,,,,,,,,,,,,,,,,,,,,,,,,,,,,,,,,,,,,,,,,,,,,,,,,,,,339.45372746700014,None,339.45372746700014,None,,,,,,,,,,,,,,,,,,,,,,,,,,,,,,,,,,,,,,,,,,,,,,,,,,,,,,,,,,,,,,,,,,,1,001,2022_Nov_18_1815,Cognition2_FullCode1,2021.2.3,100.08710982480316,
/Users/shamslab/Desktop/Cognition2_FullExperimentFile/1_AudioBlock1.csv,3,2,1,2,1,2,2,11,41,53,58,70,100,112,117,129,159,171,201,4_audFile.wav,10,2,3,2,1,2,1,2,2,11,41,53,58,70,100,112,117,129,159,171,201,4_audFile.wav,10,2,1,1,,,,0,1,1,1,0,0,0,8,,,,,,,,,,,,,,,399.56401230499614,None,space,19.038062273000833,399.66393178500584,None,418.75400845499826,None,418.93402590299957,None,419.9341448699997,421.7940296809975,420.0440183299943,420.3439998230024,420.4639908990066,420.5141422619927,420.63402090499585,420.9341409280023,421.0539994290011,421.10396720000426,421.2239908890042,421.52398996800184,421.6440021909948,None,420.03396382109787,None,421.94400970499555,None,423.2439978939947,None,423.3540107370063,423.65402207100124,423.7740165970026,423.82402134800213,423.94400246099394,424.2440331300022,424.36400723300176,424.41409296799975,424.53401064399804,424.8340292089997,424.95403549399634,425.25404833900393,423.3441470381047,None,1,0.6740012620139169,425.60400063800626,None,425.60400063800626,None,,,,,,,,,,,,,,,,,,,,,,,,,,,,,,,,,,,,,,,,,,,,,,,,,,,,,,,,,,,,,,,,,,,,,,,1,001,2022_Nov_18_1815,Cognition2_FullCode1,2021.2.3,100.08710982480316,
/Users/shamslab/Desktop/Cognition2_FullExperimentFile/1_AudioBlock1.csv,9,2,1,2,1,2,1,11,41,53,58,70,100,112,117,129,159,171,176,10_audFile.wav,10,2,14,2,1,1,2,1,2,11,41,53,58,70,75,87,117,129,134,146,176,15_audFile.wav,10,2,1,2,,,,0,1,1,1,0,1,1,30,,,,,,,,,,,,,,,,,,,,,426.2940432299947,None,426.48407866399793,427.4840092719969,427.5040799260023,None,427.6140658069926,427.91409482600284,428.03396872099256,428.0841460160009,428.2041235319921,428.50406857099733,428.62405760900583,428.67404217600415,428.7940795189934,429.0940378600062,429.2140469099977,429.26405997200345,427.6040315200924,None,429.3640268279996,None,430.95407839899417,None,431.0640146950027,431.36410337999405,431.48406760899525,431.53404797200346,431.6540696049924,431.7040734799957,431.8240253719996,432.1240509210038,432.2440821079945,432.294069784999,432.414067841004,432.71409075599513,431.0540665350971,None,2,0.3479248950025067,433.314074422,None,433.314074422,None,,,,,,,,,,,,,,,,,,,,,,,,,,,,,,,,,,,,,,,,,,,,,,,,,,,,,,,,,,,,,,,,,,,,,,,1,001,2022_Nov_18_1815,Cognition2_FullCode1,2021.2.3,100.08710982480316,
/Users/shamslab/Desktop/Cognition2_FullExperimentFile/1_AudioBlock1.csv,11,2,1,1,2,2,1,11,41,53,58,70,75,87,117,129,159,171,176,12_audFile.wav,10,2,7,2,1,2,2,1,1,11,41,53,58,70,100,112,142,154,159,171,176,8_audFile.wav,10,2,1,2,,,,0,1,1,1,0,2,2,12,,,,,,,,,,,,,,,,,,,,,433.6740789759933,None,433.8640272689954,434.864027018004,434.9140917479963,None,435.0240392949927,435.32412812400435,435.4440837180009,435.4940680889995,435.61414243000036,435.66404478599725,435.7840940140013,436.0840308909974,436.2040975139971,436.5040683910047,436.6240860760008,436.6740829449991,435.0140885850968,None,436.7740819979954,None,438.07420510900556,None,438.18407573600416,438.4840777780046,438.6041403559939,438.65409061399987,438.7741417149955,439.074165359998,439.19410838799377,439.49409853499674,439.61408216299606,439.6640959880024,439.7840473529941,439.83409582599415,438.17407843010443,None,1,0.34790463400713634,440.4340775479941,None,440.4340775479941,None,,,,,,,,,,,,,,,,,,,,,,,,,,,,,,,,,,,,,,,,,,,,,,,,,,,,,,,,,,,,,,,,,,,,,,,1,001,2022_Nov_18_1815,Cognition2_FullCode1,2021.2.3,100.08710982480316,
/Users/shamslab/Desktop/Cognition2_FullExperimentFile/1_AudioBlock1.csv,15,1,2,1,2,1,2,11,16,28,58,70,75,87,117,129,134,146,176,16_audFile.wav,10,1,12,1,2,1,2,2,1,11,16,28,58,70,75,87,117,129,159,171,176,13_audFile.wav,10,1,1,2,,,,0,1,1,1,0,3,3,2,,,,,,,,,,,,,,,,,,,,,440.794056454004,None,440.98410265399434,441.9841429859953,442.0341474750021,None,442.14408131600067,442.1941909830057,442.3142304359935,442.6141110890021,442.73410977800086,442.78408714699617,442.9040803079988,443.20409125900187,443.3241108170041,443.37415092899755,443.4941576249985,443.7940918319946,442.13407412510134,None,443.89411489600025,None,445.26414733300044,None,445.37413386200205,445.42410511399794,445.54411466399324,445.8441092449939,445.9640849849966,446.0140774080064,446.13407589599956,446.4341018270061,446.5540897280007,446.8540980319958,446.9740999630012,447.0241636879946,445.3641355810949,None,2,0.26988422201247886,447.62417415500386,None,447.62417415500386,None,,,,,,,,,,,,,,,,,,,,,,,,,,,,,,,,,,,,,,,,,,,,,,,,,,,,,,,,,,,,,,,,,,,,,,,1,001,2022_Nov_18_1815,Cognition2_FullCode1,2021.2.3,100.08710982480316,
/Users/shamslab/Desktop/Cognition2_FullExperimentFile/1_AudioBlock1.csv,5,1,2,1,2,2,2,11,16,28,58,70,75,87,117,129,159,171,201,6_audFile.wav,10,1,12,1,2,1,2,2,1,11,16,28,58,70,75,87,117,129,159,171,176,13_audFile.wav,10,1,1,2,,,,0,1,1,1,0,4,4,23,,,,,,,,,,,,,,,,,,,,,447.914167601004,None,448.0941173129977,449.0941435099958,449.12414554499264,450.98414232399955,449.23413613300363,449.2841414339928,449.4042701139988,449.70412527500594,449.82411912099633,449.8741728820023,449.99419785599457,450.2940976109967,450.4141736760066,450.7141057109984,450.83415365300607,None,449.2241120070947,None,451.1341026040027,None,452.4341157019953,None,452.5441392560024,452.5941518460022,452.71414000900404,453.01416842300387,453.1341081099963,453.1841212409927,453.3041870290035,453.6041603199992,453.72412444899965,454.024155815001,454.1442183290055,454.1941794059967,452.5342421201029,None,1,0.23587258699990343,454.7941151709965,None,454.7941151709965,None,,,,,,,,,,,,,,,,,,,,,,,,,,,,,,,,,,,,,,,,,,,,,,,,,,,,,,,,,,,,,,,,,,,,,,,1,001,2022_Nov_18_1815,Cognition2_FullCode1,2021.2.3,100.08710982480316,
/Users/shamslab/Desktop/Cognition2_FullExperimentFile/1_AudioBlock1.csv,10,1,2,2,1,2,1,11,16,28,58,70,100,112,117,129,159,171,176,11_audFile.wav,10,1,10,1,2,2,1,2,1,11,16,28,58,70,100,112,117,129,159,171,176,11_audFile.wav,10,1,1,1,,,,0,1,1,1,0,5,5,11,,,,,,,,,,,,,,,,,,,,,455.0441517839936,None,455.2341888200026,456.234123525006,456.28418216400314,None,456.3941521230008,456.4442020340066,456.5641717679973,456.8642411949986,456.98417205299484,457.2842407650023,457.40419554000255,457.4541598740034,457.5741573340056,457.87414083500335,457.99413623000146,458.0441537220031,456.3841292180994,None,458.1441581389954,None,459.4441823209927,None,459.554247313994,459.6042401739978,459.72418281699356,460.02418256999226,460.1441607839952,460.4441818619962,460.56415790900064,460.6141429309937,460.7341735999944,461.0341443130019,461.15415939899685,461.20430872999714,459.5442014910921,None,2,0.2177816399926087,461.8041996910033,None,461.8041996910033,None,,,,,,,,,,,,,,,,,,,,,,,,,,,,,,,,,,,,,,,,,,,,,,,,,,,,,,,,,,,,,,,,,,,,,,,1,001,2022_Nov_18_1815,Cognition2_FullCode1,2021.2.3,100.08710982480316,
/Users/shamslab/Desktop/Cognition2_FullExperimentFile/1_AudioBlock1.csv,1,2,1,2,2,1,2,11,41,53,58,70,100,112,142,154,159,171,201,2_audFile.wav,10,2,11,2,1,1,2,2,1,11,41,53,58,70,75,87,117,129,159,171,176,12_audFile.wav,10,2,1,2,,,,0,1,1,1,0,6,6,10,,,,,,,,,,,,,,,,,,,,,462.03416267399734,None,462.22412686199823,463.2242010769987,463.24425260099815,465.1041266800021,463.35417846600467,463.6542535500048,463.7742758420063,463.82418333299574,463.944178396996,464.2443346710061,464.3641715260019,464.66411482899275,464.78418175100524,464.8342156879953,464.95417739900586,None,463.34417013310014,None,465.2542400060047,None,466.55419387899747,None,466.66416025000217,466.9641596099973,467.0841336089943,467.1341787830024,467.2541974449996,467.3042071279924,467.4241309820063,467.7242504799942,467.8441684260033,468.1441206820018,468.2642265070026,468.3141947309923,466.6541845880973,None,2,0.5637809540057788,468.9141892570042,None,468.9141892570042,None,,,,,,,,,,,,,,,,,,,,,,,,,,,,,,,,,,,,,,,,,,,,,,,,,,,,,,,,,,,,,,,,,,,,,,,1,001,2022_Nov_18_1815,Cognition2_FullCode1,2021.2.3,100.08710982480316,
/Users/shamslab/Desktop/Cognition2_FullExperimentFile/1_AudioBlock1.csv,8,2,2,1,1,2,1,11,41,53,83,95,100,112,117,129,159,171,176,9_audFile.wav,10,3,6,2,2,1,2,1,1,11,41,53,83,95,100,112,142,154,159,171,176,7_audFile.wav,10,3,1,2,,,,0,1,1,1,0,7,7,27,,,,,,,,,,,,,,,,,,,,,469.49423080700217,None,469.68419479699514,470.68416763699497,470.73421080100525,None,470.84416700099246,471.14414849400055,471.2641320709954,471.56427824099956,471.684256403998,471.7342507949943,471.85424234899983,471.9042070889991,472.02425249500084,472.32416620699223,472.4442149709939,472.4942614650063,470.8341962720995,None,472.5941988590057,None,473.9042565669952,None,474.0141878279974,474.31420071900357,474.43417598400265,474.73425710700394,474.8542532069987,474.90419967399794,475.02423125300265,475.32428761599294,475.44425826599763,475.4941878259997,475.61418896399846,475.6643305299949,474.0042330460972,None,2,0.2937617879942991,476.26424296699406,None,476.26424296699406,None,,,,,,,,,,,,,,,,,,,,,,,,,,,,,,,,,,,,,,,,,,,,,,,,,,,,,,,,,,,,,,,,,,,,,,,1,001,2022_Nov_18_1815,Cognition2_FullCode1,2021.2.3,100.08710982480316,
/Users/shamslab/Desktop/Cognition2_FullExperimentFile/1_AudioBlock1.csv,9,2,1,2,1,2,1,11,41,53,58,70,100,112,117,129,159,171,176,10_audFile.wav,10,2,9,2,1,2,1,2,1,11,41,53,58,70,100,112,117,129,159,171,176,10_audFile.wav,10,2,1,1,,,,0,1,1,1,0,8,8,28,,,,,,,,,,,,,,,,,,,,,476.57421777999843,None,476.7642405069928,477.76421443199797,477.7741877770022,None,477.88432296700194,478.1842569690052,478.30421489199216,478.3542560490023,478.47423191400594,478.7742544520006,478.8942427650036,478.94424692800385,479.064290934999,479.3642348279973,479.48424149499624,479.53419020900037,477.87423658009794,None,479.63423770299414,None,480.93427325099765,None,481.04425085800176,481.34425788400404,481.46424642700003,481.5142493769963,481.6342490560055,481.9342365649936,482.05424573199707,482.1042472179979,482.2242495579994,482.52426877699327,482.644329888004,482.6942524979968,481.03426614209894,None,2,0.23987854100414552,483.294220027994,None,483.294220027994,None,,,,,,,,,,,,,,,,,,,,,,,,,,,,,,,,,,,,,,,,,,,,,,,,,,,,,,,,,,,,,,,,,,,,,,,1,001,2022_Nov_18_1815,Cognition2_FullCode1,2021.2.3,100.08710982480316,
/Users/shamslab/Desktop/Cognition2_FullExperimentFile/1_AudioBlock1.csv,0,2,2,1,2,1,2,11,41,53,83,95,100,112,142,154,159,171,201,1_audFile.wav,10,3,8,2,2,1,1,2,1,11,41,53,83,95,100,112,117,129,159,171,176,9_audFile.wav,10,3,1,2,,,,0,1,1,1,0,9,9,31,,,,,,,,,,,,,,,,,,,,,483.54433486200287,None,483.7342700709996,484.7342864039965,484.7444142960012,486.60426685999846,484.8542525100056,485.15432280099776,485.27425962200505,485.5742886210064,485.69423287500103,485.74432069499744,485.8642838700034,486.1643327750062,486.2842811099981,486.33426915599557,486.4542639160063,None,484.84427017009585,None,486.7544034530001,None,488.0542893840029,None,488.16443241499655,488.4643415759929,488.58429920999333,488.8843095850025,489.0043030300003,489.05429316399386,489.17431475099875,489.22427390300436,489.34426951099886,489.64440292499785,489.76428268899326,489.81428460900497,488.15426518110036,None,2,0.1997925649920944,490.4143033300061,None,490.4143033300061,None,,,,,,,,,,,,,,,,,,,,,,,,,,,,,,,,,,,,,,,,,,,,,,,,,,,,,,,,,,,,,,,,,,,,,,,1,001,2022_Nov_18_1815,Cognition2_FullCode1,2021.2.3,100.08710982480316,
/Users/shamslab/Desktop/Cognition2_FullExperimentFile/1_AudioBlock1.csv,12,1,2,1,2,2,1,11,16,28,58,70,75,87,117,129,159,171,176,13_audFile.wav,10,1,4,1,2,2,1,2,2,11,16,28,58,70,100,112,117,129,159,171,201,5_audFile.wav,10,1,1,2,,,,0,1,1,1,0,10,10,1,,,,,,,,,,,,,,,,,,,,,490.624314375993,None,490.8142897619982,491.81429313299304,491.8244072850066,None,491.9343143849983,491.9843249109981,492.1043667719932,492.4043411839957,492.52435335400514,492.5743034680054,492.6942653129954,492.99429247999797,493.1142492049985,493.4143005579972,493.53434511399246,493.58442501499667,491.9242874321033,None,493.6843232889951,None,494.9843517219997,None,495.09425573000044,495.1443107899977,495.2643277540046,495.56440016000124,495.68439942400437,495.9842928970029,496.10433604900027,496.1542773819965,496.27431416399486,496.5743837579939,496.69428495899774,496.99433204199886,495.08426820909955,None,2,0.3256786690035369,497.3443040239945,None,497.3443040239945,None,,,,,,,,,,,,,,,,,,,,,,,,,,,,,,,,,,,,,,,,,,,,,,,,,,,,,,,,,,,,,,,,,,,,,,,1,001,2022_Nov_18_1815,Cognition2_FullCode1,2021.2.3,100.08710982480316,
/Users/shamslab/Desktop/Cognition2_FullExperimentFile/1_AudioBlock1.csv,8,2,2,1,1,2,1,11,41,53,83,95,100,112,117,129,159,171,176,9_audFile.wav,10,3,8,2,2,1,1,2,1,11,41,53,83,95,100,112,117,129,159,171,176,9_audFile.wav,10,3,1,1,,,,0,1,1,1,0,11,11,16,,,,,,,,,,,,,,,,,,,,,497.6844086820056,None,497.8742961609969,498.8743093289959,498.88434867300384,None,498.9943215579988,499.2943121809949,499.41429141699336,499.7143112630001,499.83430926900473,499.8843997859949,500.0043852279923,500.05428903999564,500.17432173900306,500.474302386996,500.594324701,500.64440746999753,498.9842843300983,None,500.7443560230022,None,502.04433412800427,None,502.15430730200023,502.45441603100335,502.574350298004,502.8743168479996,502.9942876809946,503.04439697899215,503.1643628890015,503.21432644099696,503.33430791100545,503.6343687070039,503.75433255999815,503.8043797709979,502.1443403761048,None,2,0.6976126410008874,504.404367258001,None,504.404367258001,None,,,,,,,,,,,,,,,,,,,,,,,,,,,,,,,,,,,,,,,,,,,,,,,,,,,,,,,,,,,,,,,,,,,,,,,1,001,2022_Nov_18_1815,Cognition2_FullCode1,2021.2.3,100.08710982480316,
/Users/shamslab/Desktop/Cognition2_FullExperimentFile/1_AudioBlock1.csv,3,2,1,2,1,2,2,11,41,53,58,70,100,112,117,129,159,171,201,4_audFile.wav,10,2,1,2,1,2,2,1,2,11,41,53,58,70,100,112,142,154,159,171,201,2_audFile.wav,10,2,1,2,,,,0,1,1,1,0,12,12,7,,,,,,,,,,,,,,,,,,,,,505.11433565200423,None,505.3044648070063,506.304359517002,506.31434981999337,508.17428645100154,506.42436357500264,506.72451599600026,506.8443185799988,506.8942991889926,507.0143404010014,507.31432106699503,507.434368784001,507.48438861599425,507.60439629500615,507.90440703999775,508.0244225839997,None,506.41438910709695,None,508.3243552369968,None,509.6244094029971,None,509.73428989600507,510.0344778330036,510.15435554800206,510.2043516840058,510.3243642000016,510.62440992399934,510.7444232550042,511.0443564140005,511.16441124600533,511.21434160799254,511.334348933,511.6343874049926,509.72435125609337,None,1,0.28560083400225267,511.98435834399424,None,511.98435834399424,None,,,,,,,,,,,,,,,,,,,,,,,,,,,,,,,,,,,,,,,,,,,,,,,,,,,,,,,,,,,,,,,,,,,,,,,1,001,2022_Nov_18_1815,Cognition2_FullCode1,2021.2.3,100.08710982480316,
/Users/shamslab/Desktop/Cognition2_FullExperimentFile/1_AudioBlock1.csv,2,1,2,2,2,1,2,11,16,28,58,70,100,112,142,154,159,171,201,3_audFile.wav,10,1,5,1,2,1,2,2,2,11,16,28,58,70,75,87,117,129,159,171,201,6_audFile.wav,10,1,1,2,,,,0,1,1,1,0,13,13,26,,,,,,,,,,,,,,,,,,,,,512.2844308070053,None,512.4743579589995,513.4744200819987,513.4844018779986,515.344402349001,513.5943484320014,513.6443628020061,513.7644067030051,514.0643716140039,514.1844150840043,514.4844051739929,514.6044147520006,514.9044266139972,515.0244144189928,515.0743676840066,515.1944103290007,None,513.5843602351058,None,515.494386107006,None,516.7943999010022,None,516.9044357209932,516.9544235979993,517.0743764149956,517.3743573739921,517.4944080279965,517.5444367449963,517.6643808549998,517.9644303259993,518.0844108119927,518.3844012280024,518.5044127209985,518.8044175510004,516.8944740990962,None,2,0.195597871002974,519.1544483720063,None,519.1544483720063,None,,,,,,,,,,,,,,,,,,,,,,,,,,,,,,,,,,,,,,,,,,,,,,,,,,,,,,,,,,,,,,,,,,,,,,,1,001,2022_Nov_18_1815,Cognition2_FullCode1,2021.2.3,100.08710982480316,
/Users/shamslab/Desktop/Cognition2_FullExperimentFile/1_AudioBlock1.csv,14,2,1,1,2,1,2,11,41,53,58,70,75,87,117,129,134,146,176,15_audFile.wav,10,2,14,2,1,1,2,1,2,11,41,53,58,70,75,87,117,129,134,146,176,15_audFile.wav,10,2,1,1,,,,0,1,1,1,0,14,14,22,,,,,,,,,,,,,,,,,,,,,519.364425435997,None,519.5543798339932,520.5543878930039,520.5644173129986,None,520.6744306829933,520.9744025139953,521.0944230750029,521.1444157700025,521.2644340809929,521.3144376220007,521.4344011520006,521.7344528419926,521.8544764830003,521.9044401099964,522.0244115270034,522.3244459929992,520.6644321700994,None,522.424435687004,None,523.7244351789996,None,523.8344623330049,524.1343923899985,524.2546031160018,524.3044933399942,524.4244599049998,524.4745714790042,524.5944086310046,524.8944318440044,525.0143494950025,525.0644182560063,525.1844257439952,525.484560123994,523.8243780690943,None,1,0.3534804250084562,526.0845083250024,None,526.0845083250024,None,,,,,,,,,,,,,,,,,,,,,,,,,,,,,,,,,,,,,,,,,,,,,,,,,,,,,,,,,,,,,,,,,,,,,,,1,001,2022_Nov_18_1815,Cognition2_FullCode1,2021.2.3,100.08710982480316,
/Users/shamslab/Desktop/Cognition2_FullExperimentFile/1_AudioBlock1.csv,6,2,2,1,2,1,1,11,41,53,83,95,100,112,142,154,159,171,176,7_audFile.wav,10,3,6,2,2,1,2,1,1,11,41,53,83,95,100,112,142,154,159,171,176,7_audFile.wav,10,3,1,1,,,,0,1,1,1,0,15,15,20,,,,,,,,,,,,,,,,,,,,,526.4544579920039,None,526.644437504001,527.6444337639987,527.6544639009953,None,527.7644411350047,528.0645428080024,528.1844519949955,528.484438429994,528.6044560449955,528.6544941449974,528.7744911810005,529.0744225529925,529.1944911699975,529.2444556489936,529.364476251998,529.4144381020014,527.754459070097,None,529.514430641997,None,530.8144366930064,None,530.9244636039948,531.2244643710001,531.3444347000041,531.644420718003,531.7644438839925,531.8144297539984,531.9344637869945,532.2344756709936,532.3544422599953,532.4044695269986,532.5244618040015,532.5744162079936,530.9144568671006,None,1,0.35958704800577834,533.1744601690007,None,533.1744601690007,None,,,,,,,,,,,,,,,,,,,,,,,,,,,,,,,,,,,,,,,,,,,,,,,,,,,,,,,,,,,,,,,,,,,,,,,1,001,2022_Nov_18_1815,Cognition2_FullCode1,2021.2.3,100.08710982480316,
/Users/shamslab/Desktop/Cognition2_FullExperimentFile/1_AudioBlock1.csv,2,1,2,2,2,1,2,11,16,28,58,70,100,112,142,154,159,171,201,3_audFile.wav,10,1,2,1,2,2,2,1,2,11,16,28,58,70,100,112,142,154,159,171,201,3_audFile.wav,10,1,1,1,,,,0,1,1,1,0,16,16,15,,,,,,,,,,,,,,,,,,,,,533.5445660010009,None,533.7344326379971,534.734435018996,534.7444769779977,536.6044534590037,534.8544394030032,534.9044892810052,535.0244621530001,535.3244514830003,535.4444609420025,535.7445204660035,535.8644878570049,536.1644700369943,536.284482832998,536.3344649659994,536.4544945779926,None,534.8444651891011,None,536.7544606629963,None,538.0544563220028,None,538.1645115610008,538.2144714509923,538.3344779119943,538.6344726219977,538.7544591360056,539.0544482090045,539.1744623819977,539.4744596749952,539.5944503780047,539.6445277519961,539.7644944549975,540.064560468003,538.1544879750988,None,1,0.5114823220064864,540.4145109469973,None,540.4145109469973,None,,,,,,,,,,,,,,,,,,,,,,,,,,,,,,,,,,,,,,,,,,,,,,,,,,,,,,,,,,,,,,,,,,,,,,,1,001,2022_Nov_18_1815,Cognition2_FullCode1,2021.2.3,100.08710982480316,
/Users/shamslab/Desktop/Cognition2_FullExperimentFile/1_AudioBlock1.csv,0,2,2,1,2,1,2,11,41,53,83,95,100,112,142,154,159,171,201,1_audFile.wav,10,3,0,2,2,1,2,1,2,11,41,53,83,95,100,112,142,154,159,171,201,1_audFile.wav,10,3,1,1,,,,0,1,1,1,0,17,17,4,,,,,,,,,,,,,,,,,,,,,540.9445488920028,None,541.1345630080032,542.134465723997,542.1445329379931,544.0045262380008,542.2545552480005,542.5544966180023,542.674488108998,542.9744717739959,543.094486136004,543.1445518989931,543.2644967149972,543.564502024994,543.6845309060009,543.7344507980015,543.8544979069993,None,542.2444806950923,None,544.1545036290045,None,545.4545065099956,None,545.5645157739928,545.8645460130065,545.984518244004,546.2845283850038,546.4045021490019,546.4544797529961,546.5744594749995,546.8744854639954,546.9945007759961,547.0445423859928,547.1645818749967,547.4645327799954,545.5545145571057,None,1,0.19149661099072546,547.8144941560022,None,547.8144941560022,None,,,,,,,,,,,,,,,,,,,,,,,,,,,,,,,,,,,,,,,,,,,,,,,,,,,,,,,,,,,,,,,,,,,,,,,1,001,2022_Nov_18_1815,Cognition2_FullCode1,2021.2.3,100.08710982480316,
/Users/shamslab/Desktop/Cognition2_FullExperimentFile/1_AudioBlock1.csv,4,1,2,2,1,2,2,11,16,28,58,70,100,112,117,129,159,171,201,5_audFile.wav,10,1,4,1,2,2,1,2,2,11,16,28,58,70,100,112,117,129,159,171,201,5_audFile.wav,10,1,1,1,,,,0,1,1,1,0,18,18,9,,,,,,,,,,,,,,,,,,,,,548.0245234479953,None,548.2144818539964,549.2145084490039,549.2245338659995,551.0845163049962,549.3345371530013,549.3845201149961,549.5045917289972,549.8045180089975,549.9245204839972,550.2245382349938,550.3445177639951,550.3945022849948,550.5145346689969,550.814586612003,550.9345041189954,None,549.3244999600981,None,551.2345148919994,None,552.5345277529996,None,552.6445420829987,552.6945627670066,552.8145100550028,553.1145220570033,553.2345141380065,553.5345082269923,553.6545282010047,553.7045286929933,553.8245956030005,554.1245422670036,554.2447852860059,554.5445370069938,552.6345160811004,None,1,0.24749099000473507,554.8945081449929,None,554.8945081449929,None,,,,,,,,,,,,,,,,,,,,,,,,,,,,,,,,,,,,,,,,,,,,,,,,,,,,,,,,,,,,,,,,,,,,,,,1,001,2022_Nov_18_1815,Cognition2_FullCode1,2021.2.3,100.08710982480316,
/Users/shamslab/Desktop/Cognition2_FullExperimentFile/1_AudioBlock1.csv,7,2,1,2,2,1,1,11,41,53,58,70,100,112,142,154,159,171,176,8_audFile.wav,10,2,11,2,1,1,2,2,1,11,41,53,58,70,75,87,117,129,159,171,176,12_audFile.wav,10,2,1,2,,,,0,1,1,1,0,19,19,14,,,,,,,,,,,,,,,,,,,,,555.1545104630059,None,555.3445168780017,556.3445580239932,556.3545711549959,None,556.4646308469964,556.7646018410014,556.8845731899928,556.9345155750052,557.0545222899964,557.354529802993,557.4745682819921,557.7745448030037,557.8945352940063,557.9446198369988,558.0645761110063,558.1145024659927,556.4545480230997,None,558.21451772,None,559.5145894890011,None,559.6246330610011,559.9245837430062,560.0446225530031,560.094588109001,560.214525014002,560.2646045089932,560.3845657339989,560.6845727689943,560.8045583000057,561.1045473889972,561.2245808050066,561.2745254500041,559.6145671810925,None,1,0.15545922300952952,561.8745235709939,None,561.8745235709939,None,,,,,,,,,,,,,,,,,,,,,,,,,,,,,,,,,,,,,,,,,,,,,,,,,,,,,,,,,,,,,,,,,,,,,,,1,001,2022_Nov_18_1815,Cognition2_FullCode1,2021.2.3,100.08710982480316,
/Users/shamslab/Desktop/Cognition2_FullExperimentFile/1_AudioBlock1.csv,14,2,1,1,2,1,2,11,41,53,58,70,75,87,117,129,134,146,176,15_audFile.wav,10,2,13,2,1,2,1,1,2,11,41,53,58,70,100,112,117,129,134,146,176,14_audFile.wav,10,2,1,2,,,,0,1,1,1,0,20,20,24,,,,,,,,,,,,,,,,,,,,,562.0445571519958,None,562.2345291959937,563.2345709509973,563.244757020002,None,563.3545625330007,563.654601133996,563.774600181001,563.8246424539975,563.9445453039953,563.9946097249922,564.1146101019986,564.4145646779943,564.5345627089991,564.584580263996,564.7046372229961,565.0045755839965,563.3446086020965,None,565.1045908399974,None,566.6846308490058,None,566.7946131869976,567.0946005919977,567.214578582003,567.264665101,567.3847608140059,567.6845928770053,567.804583707999,567.8545877330034,567.9745558769937,568.0246005770023,568.1446615790046,568.444583421995,566.784590998094,None,2,0.16140962899953593,569.0445844390051,None,569.0445844390051,None,,,,,,,,,,,,,,,,,,,,,,,,,,,,,,,,,,,,,,,,,,,,,,,,,,,,,,,,,,,,,,,,,,,,,,,1,001,2022_Nov_18_1815,Cognition2_FullCode1,2021.2.3,100.08710982480316,
/Users/shamslab/Desktop/Cognition2_FullExperimentFile/1_AudioBlock1.csv,7,2,1,2,2,1,1,11,41,53,58,70,100,112,142,154,159,171,176,8_audFile.wav,10,2,7,2,1,2,2,1,1,11,41,53,58,70,100,112,142,154,159,171,176,8_audFile.wav,10,2,1,1,,,,0,1,1,1,0,21,21,17,,,,,,,,,,,,,,,,,,,,,569.2246127690014,None,569.4146097079938,570.4145716390049,570.4247403019981,None,570.5346315409988,570.8346004710038,570.9545816299942,571.0046580110065,571.1246188600053,571.4246576229925,571.5446201000013,571.844617722003,571.964661645994,572.0146119410056,572.1345823919983,572.1846178830019,570.5245575660927,None,572.2846233260061,None,573.5847456280026,None,573.6945922599989,573.9946399180044,574.1145883410063,574.1647360179923,574.2846425710013,574.5846093159926,574.7046103600005,575.0046501409961,575.1246870220057,575.1745993990044,575.2947369869944,575.344645367004,573.6846287771011,None,1,0.5573723220004467,575.9446274479997,None,575.9446274479997,None,,,,,,,,,,,,,,,,,,,,,,,,,,,,,,,,,,,,,,,,,,,,,,,,,,,,,,,,,,,,,,,,,,,,,,,1,001,2022_Nov_18_1815,Cognition2_FullCode1,2021.2.3,100.08710982480316,
/Users/shamslab/Desktop/Cognition2_FullExperimentFile/1_AudioBlock1.csv,6,2,2,1,2,1,1,11,41,53,83,95,100,112,142,154,159,171,176,7_audFile.wav,10,3,0,2,2,1,2,1,2,11,41,53,83,95,100,112,142,154,159,171,201,1_audFile.wav,10,3,1,2,,,,0,1,1,1,0,22,22,29,,,,,,,,,,,,,,,,,,,,,576.5147350500047,None,576.7045916969946,577.704666538004,577.7146018539934,None,577.8246265339985,578.1247270750027,578.2446527190041,578.5446904900018,578.6647534990043,578.7147417079977,578.8346357889968,579.1345880269946,579.254643798995,579.3046600259986,579.4246473999956,579.4746382659941,577.8146427971049,None,579.5746222570015,None,580.8746447549929,None,580.9847658350045,581.2846639439958,581.4046316029999,581.7046365099959,581.8246438689966,581.8746342639934,581.9947085339954,582.294606009993,582.4146056949976,582.4646735300048,582.5846486299997,582.8846466329996,580.9746393101057,None,1,0.2113454670034116,583.2346447029995,None,583.2346447029995,None,,,,,,,,,,,,,,,,,,,,,,,,,,,,,,,,,,,,,,,,,,,,,,,,,,,,,,,,,,,,,,,,,,,,,,,1,001,2022_Nov_18_1815,Cognition2_FullCode1,2021.2.3,100.08710982480316,
/Users/shamslab/Desktop/Cognition2_FullExperimentFile/1_AudioBlock1.csv,13,2,1,2,1,1,2,11,41,53,58,70,100,112,117,129,134,146,176,14_audFile.wav,10,2,13,2,1,2,1,1,2,11,41,53,58,70,100,112,117,129,134,146,176,14_audFile.wav,10,2,1,1,,,,0,1,1,1,0,23,23,25,,,,,,,,,,,,,,,,,,,,,583.4646508599981,None,583.6545945130056,584.6546631920064,584.664730976001,None,584.7746345469932,585.0746386130049,585.1947475490015,585.2447321030049,585.3646659020014,585.6646895529993,585.7846875069954,585.8346478229942,585.9546596919972,586.0046635570034,586.1247336490051,586.4246654379967,584.7646393891016,None,586.5246975619957,None,587.8247591830004,None,587.9346439929941,588.2347846869961,588.354647960994,588.4048458009929,588.5247040139948,588.8246887679998,588.9446640160022,588.9946450749994,589.1146715780051,589.1646642569976,589.2847230810003,589.5846888170054,587.9246467510936,None,1,0.20524349699553568,590.1847523729957,None,590.1847523729957,None,,,,,,,,,,,,,,,,,,,,,,,,,,,,,,,,,,,,,,,,,,,,,,,,,,,,,,,,,,,,,,,,,,,,,,,1,001,2022_Nov_18_1815,Cognition2_FullCode1,2021.2.3,100.08710982480316,
/Users/shamslab/Desktop/Cognition2_FullExperimentFile/1_AudioBlock1.csv,13,2,1,2,1,1,2,11,41,53,58,70,100,112,117,129,134,146,176,14_audFile.wav,10,2,3,2,1,2,1,2,2,11,41,53,58,70,100,112,117,129,159,171,201,4_audFile.wav,10,2,1,2,,,,0,1,1,1,0,24,24,6,,,,,,,,,,,,,,,,,,,,,590.4047199140041,None,590.5946051369974,591.594713575003,591.604726687001,None,591.7146224099997,592.0146670459944,592.1346744449984,592.1847278729983,592.3047207929922,592.6047065360035,592.7246897659934,592.7746903259977,592.894662103994,592.9446766040055,593.0646941809973,593.3647373559943,591.7046652170945,None,593.4646802369971,None,594.7646956340031,None,594.8747062809998,595.1746864640008,595.2947154160065,595.3446784150001,595.4647457590036,595.7648341460008,595.8847121989966,595.9346743999922,596.054648431993,596.3546980050014,596.4747348759993,596.7746775499982,594.8647006881044,None,2,0.0492808629933279,597.1247177059995,None,597.1247177059995,None,,,,,,,,,,,,,,,,,,,,,,,,,,,,,,,,,,,,,,,,,,,,,,,,,,,,,,,,,,,,,,,,,,,,,,,1,001,2022_Nov_18_1815,Cognition2_FullCode1,2021.2.3,100.08710982480316,
/Users/shamslab/Desktop/Cognition2_FullExperimentFile/1_AudioBlock1.csv,1,2,1,2,2,1,2,11,41,53,58,70,100,112,142,154,159,171,201,2_audFile.wav,10,2,1,2,1,2,2,1,2,11,41,53,58,70,100,112,142,154,159,171,201,2_audFile.wav,10,2,1,1,,,,0,1,1,1,0,25,25,13,,,,,,,,,,,,,,,,,,,,,597.1846972719941,None,597.374648912999,598.3746960900025,598.3847604199982,600.2447326539987,598.4946450319985,598.7947112819966,598.9147024050035,598.9647644420038,599.0846814300021,599.3847106989997,599.5047547580034,599.8047324079962,599.9247426319926,599.9747023350064,600.0947129300039,None,598.484703879102,None,600.3947068389971,None,601.6947254389961,None,601.8047618609999,602.1047662430065,602.2247758540034,602.2747070899932,602.3947181139956,602.6947205220058,602.8147142270027,603.114760743003,603.234714552993,603.2847656380036,603.4047710239975,603.7047770829959,601.7947285591042,None,1,0.5752731189859333,604.0547248569928,None,604.0547248569928,None,,,,,,,,,,,,,,,,,,,,,,,,,,,,,,,,,,,,,,,,,,,,,,,,,,,,,,,,,,,,,,,,,,,,,,,1,001,2022_Nov_18_1815,Cognition2_FullCode1,2021.2.3,100.08710982480316,
/Users/shamslab/Desktop/Cognition2_FullExperimentFile/1_AudioBlock1.csv,5,1,2,1,2,2,2,11,16,28,58,70,75,87,117,129,159,171,201,6_audFile.wav,10,1,5,1,2,1,2,2,2,11,16,28,58,70,75,87,117,129,159,171,201,6_audFile.wav,10,1,1,1,,,,0,1,1,1,0,26,26,5,,,,,,,,,,,,,,,,,,,,,604.6447958189965,None,604.8347867389966,605.834709939998,605.8447837410058,607.704756363004,605.9547419830051,606.0047754080006,606.1247971779958,606.4247424170026,606.5447378529934,606.5947060129984,606.7147036300012,607.0148438220058,607.1347213469999,607.4347356070066,607.5547254559933,None,605.9446967080992,None,607.8547279619961,None,609.1547692089953,None,609.2647889170039,609.3148045220005,609.4348060049961,609.7347937750019,609.8547894749936,609.9047824049921,610.0248279410007,610.324767418002,610.4447807510005,610.744778622,610.8648872820049,611.1648127959925,609.2547304480947,None,2,0.1872643069946207,611.5147186749964,None,611.5147186749964,None,,,,,,,,,,,,,,,,,,,,,,,,,,,,,,,,,,,,,,,,,,,,,,,,,,,,,,,,,,,,,,,,,,,,,,,1,001,2022_Nov_18_1815,Cognition2_FullCode1,2021.2.3,100.08710982480316,
/Users/shamslab/Desktop/Cognition2_FullExperimentFile/1_AudioBlock1.csv,4,1,2,2,1,2,2,11,16,28,58,70,100,112,117,129,159,171,201,5_audFile.wav,10,1,15,1,2,1,2,1,2,11,16,28,58,70,75,87,117,129,134,146,176,16_audFile.wav,10,1,1,2,,,,0,1,1,1,0,27,27,0,,,,,,,,,,,,,,,,,,,,,611.7147577720025,None,611.9048891949933,612.9047497370047,612.9148064960027,614.7747543809965,613.0248643039959,613.0748126239923,613.1947922639956,613.4947524000017,613.614749225002,613.9148043390014,614.0347396190045,614.0848177599983,614.2049897599936,614.5047809509997,614.6247968950047,None,613.0147774050972,None,614.9247834010021,None,616.2247887669946,None,616.334809573993,616.3847829839942,616.5047964400001,616.8047831849981,616.9247696870007,616.9747860749922,617.0947866630013,617.3947767630016,617.5147625240061,617.5647779970022,617.6848559100035,617.984772152995,616.3247529160988,None,2,0.3172600109974155,618.5847850660066,None,618.5847850660066,None,,,,,,,,,,,,,,,,,,,,,,,,,,,,,,,,,,,,,,,,,,,,,,,,,,,,,,,,,,,,,,,,,,,,,,,1,001,2022_Nov_18_1815,Cognition2_FullCode1,2021.2.3,100.08710982480316,
/Users/shamslab/Desktop/Cognition2_FullExperimentFile/1_AudioBlock1.csv,11,2,1,1,2,2,1,11,41,53,58,70,75,87,117,129,159,171,176,12_audFile.wav,10,2,11,2,1,1,2,2,1,11,41,53,58,70,75,87,117,129,159,171,176,12_audFile.wav,10,2,1,1,,,,0,1,1,1,0,28,28,3,,,,,,,,,,,,,,,,,,,,,618.9148489950021,None,619.1048355050007,620.1048037690052,620.1148266539967,None,620.2247752380063,620.5248583219945,620.6448323450022,620.6947693109978,620.8147952830041,620.8648990929942,620.9848593130009,621.2848077219969,621.4048355690029,621.7048029029975,621.8249197319965,621.8748003530054,620.2147769721021,None,621.9747903389944,None,623.2748309250019,None,623.3848445790063,623.684769547006,623.8047803369991,623.8548782480066,623.9748312250013,624.0248306980066,624.1448241339967,624.4448289569991,624.5648456070048,624.8648147979984,624.9848199029948,625.0347940719948,623.374773701097,None,2,0.3631826969940448,625.6348135129956,None,625.6348135129956,None,,,,,,,,,,,,,,,,,,,,,,,,,,,,,,,,,,,,,,,,,,,,,,,,,,,,,,,,,,,,,,,,,,,,,,,1,001,2022_Nov_18_1815,Cognition2_FullCode1,2021.2.3,100.08710982480316,
/Users/shamslab/Desktop/Cognition2_FullExperimentFile/1_AudioBlock1.csv,10,1,2,2,1,2,1,11,16,28,58,70,100,112,117,129,159,171,176,11_audFile.wav,10,1,5,1,2,1,2,2,2,11,16,28,58,70,75,87,117,129,159,171,201,6_audFile.wav,10,1,1,2,,,,0,1,1,1,0,29,29,19,,,,,,,,,,,,,,,,,,,,,626.0148244169977,None,626.2048169430054,627.204838952006,627.2148531720013,None,627.3248412599933,627.3748011220014,627.494845854002,627.7947815149964,627.9148037349951,628.214812360995,628.3348227959941,628.3848587419925,628.5048607009958,628.8048226599931,628.924853605,628.9747899469949,627.3148345040943,None,629.0748090669949,None,630.3748269250063,None,630.4848486870033,630.5348103750002,630.6548096219922,630.9549022909923,631.074805641998,631.1248466980032,631.2447865650029,631.5448488550028,631.6648504460027,631.9648492910055,632.0848395850044,632.3848437359993,630.4748570781055,None,2,0.19117569300578907,632.734819025005,None,632.734819025005,None,,,,,,,,,,,,,,,,,,,,,,,,,,,,,,,,,,,,,,,,,,,,,,,,,,,,,,,,,,,,,,,,,,,,,,,1,001,2022_Nov_18_1815,Cognition2_FullCode1,2021.2.3,100.08710982480316,
/Users/shamslab/Desktop/Cognition2_FullExperimentFile/1_AudioBlock1.csv,12,1,2,1,2,2,1,11,16,28,58,70,75,87,117,129,159,171,176,13_audFile.wav,10,1,12,1,2,1,2,2,1,11,16,28,58,70,75,87,117,129,159,171,176,13_audFile.wav,10,1,1,1,,,,0,1,1,1,0,30,30,21,,,,,,,,,,,,,,,,,,,,,632.9448405209987,None,633.1348140320042,634.1349078060011,634.1448732849967,None,634.2548530109925,634.3048485399922,634.4248659010045,634.7248695229937,634.8449273300066,634.8948383840034,635.0148233649961,635.3148392139992,635.4348625690036,635.734832482005,635.8548764820007,635.9049012320029,634.2448316970956,None,636.0048817490024,None,637.3048927049967,None,637.4148315119965,637.4648676390061,637.5848670989944,637.884864024003,638.004906823,638.0549309909984,638.1748809870041,638.4748531789955,638.5948355540022,638.8949080869934,639.0148551720049,639.0648785280064,637.4048480281024,None,1,0.18111316100112163,639.6648862889997,None,639.6648862889997,None,,,,,,,,,,,,,,,,,,,,,,,,,,,,,,,,,,,,,,,,,,,,,,,,,,,,,,,,,,,,,,,,,,,,,,,1,001,2022_Nov_18_1815,Cognition2_FullCode1,2021.2.3,100.08710982480316,
/Users/shamslab/Desktop/Cognition2_FullExperimentFile/1_AudioBlock1.csv,15,1,2,1,2,1,2,11,16,28,58,70,75,87,117,129,134,146,176,16_audFile.wav,10,1,15,1,2,1,2,1,2,11,16,28,58,70,75,87,117,129,134,146,176,16_audFile.wav,10,1,1,1,,,,0,1,1,1,0,31,31,18,,,,,,,,,,,,,,,,,,,,,639.8649001680024,None,640.0548543839977,641.0548278009956,641.0649048789928,None,641.1748956139927,641.2249232699978,641.3448759710009,641.6448922179989,641.764938872002,641.8148862700036,641.9348428189987,642.2348457199987,642.3548726830049,642.4049917969969,642.5248787419987,642.8248729479965,641.1648945641034,None,642.9248929110036,None,644.2350771399942,None,644.3448722269968,644.3949455429974,644.5148953829921,644.8149238309998,644.9349872220046,644.9849368099967,645.1049309380032,645.4048810899985,645.5248949969973,645.5749147790048,645.6949455470021,645.994909437999,644.3349272560997,None,2,0.3791104470001301,646.5948873390007,None,646.5948873390007,None,,,,,,,,,,,,,,,,,,,,,,,,,,,,,,,,,,,,,,,,,,,,,,,,,,,,,,,,,,,,,,,,,,,,,,,1,001,2022_Nov_18_1815,Cognition2_FullCode1,2021.2.3,100.08710982480316,
/Users/shamslab/Desktop/Cognition2_FullExperimentFile/1_AudioBlock1.csv,,,,,,,,,,,,,,,,,,,,,,,,,,,,,,,,,,,,,,,,,,,,,,,,,,0,1,1,1,,,,,,,,,,,,,,,,,,,,,,,,,,,,,,,,,,,,,,,,,,,,,,,,,,,,,,,,,,,,,,,,,,,,,646.9949200480041,None,646.9949200480041,None,,,,,,,,,,,,,,,,,,,,,,,,,,,,,,,,,,,,,,,,,,,,,,,,,,,,,,,,,,,,,,,,,,,1,001,2022_Nov_18_1815,Cognition2_FullCode1,2021.2.3,100.08710982480316,
,,,,,,,,,,,,,,,,,,,,,,,,,,,,,,,,,,,,,,,,,,,,,,,,,,,,,,,,,,,,,,,,,,,,,,,,,,,,,,,,,,,,,,,,,,,,,,,,,,,,,,,,,,,,,,,,,,,,,,,,,,,,,,706.995257773,None,c,341.7967120789981,731.985284608003,None,,,,,,,,,,,,,,,,,,,,,,,,,,,,,,,,,,,,,,,,,,,,,,,,,,,,,,,,,,,,,1,001,2022_Nov_18_1815,Cognition2_FullCode1,2021.2.3,100.08710982480316,
,,,,,,,,,,,,,,,,,,,,,,,,,,,,,,,,,,,,,,,,,,,,,,,,,,,,,,,,,,,,,,,,,,,,,,,,,,,,,,,,,,,,,,,,,,,,,,,,,,,,,,,,,,,,,,,,,,,,,,,,,,,,,,,,,,,,space,2.0934809710015543,1074.2965321789961,None,,,,,,,,,,,,,,,,,,,,,,,,,,,,,,,,,,,,,,,,,,,,,,,,,,,,,,,,,1,001,2022_Nov_18_1815,Cognition2_FullCode1,2021.2.3,100.08710982480316,
,,,,,,,,,,,,,,,,,,,,,,,,,,,,,,,,,,,,,,,,,,,,,,,,,,,,,,,,,,,,,,,,,,,,,,,,,,,,,,,,,,,,,,,,,,,,,,,,,,,,,,,,,,,,,,,,,,,,,,,,,,,,,,,,,,,,,,,,1073.8965861089964,None,1076.4066780870053,None,space,53.23540853300074,1076.5866070860066,None,,,,,,,,,,,,,,,,,,,,,,,,,,,,,,,,,,,,,,,,,,,,,,,,,1,001,2022_Nov_18_1815,Cognition2_FullCode1,2021.2.3,100.08710982480316,
,,,,,,,,,,,,,,,,,,,,,,,,,,,,,,,,,,,,,,,,,,,,,,,/Users/shamslab/Desktop/Cognition2_FullExperimentFile/conditionFiles_SRT/1_audioblock.csv,A,94,,,,,,,,,0,0,0,0,0,0,0,17,,,,,,,,,,,,,,,,,,,,,,,,,,,,,,,,,,,,,,,,,,,,,,,,,,,,,,,,,,,,,,,,,,,,,,,,,,,,,,,1130.346816602003,None,space,4.255160058004549,1130.4468849209952,None,1134.7267893899989,None,1137.166888214997,1137.1768544389925,1137.1669296751031,None,space,2.7431871389999287,1137.166888214997,None,None,1136.226812109002,1137.1569310780033,1136.226812109002,None,1140.0268897310016,None,1140.0268179301027,1140.1268528799992,,,,,,,,,,,,,,,,,,,,,,,,1,001,2022_Nov_18_1815,Cognition2_FullCode1,2021.2.3,100.08710982480316,
,,,,,,,,,,,,,,,,,,,,,,,,,,,,,,,,,,,,,,,,,,,,,,,/Users/shamslab/Desktop/Cognition2_FullExperimentFile/conditionFiles_SRT/1_audioblock.csv,A,207,,,,,,,,,0,0,0,0,0,1,1,22,,,,,,,,,,,,,,,,,,,,,,,,,,,,,,,,,,,,,,,,,,,,,,,,,,,,,,,,,,,,,,,,,,,,,,,,,,,,,,,,,,,,,1140.326897883002,None,1143.8968358400016,1143.9068424430006,1143.896852589093,None,space,1.8051499870052794,1143.8968358400016,None,None,1141.8269114629948,1143.8868539919931,1141.8269114629948,None,1145.8068974509952,None,1145.8068367830972,1145.9068811729958,,,,,,,,,,,,,,,,,,,,,,,,1,001,2022_Nov_18_1815,Cognition2_FullCode1,2021.2.3,100.08710982480316,
,,,,,,,,,,,,,,,,,,,,,,,,,,,,,,,,,,,,,,,,,,,,,,,/Users/shamslab/Desktop/Cognition2_FullExperimentFile/conditionFiles_SRT/1_audioblock.csv,A,272,,,,,,,,,0,0,0,0,0,2,2,2,,,,,,,,,,,,,,,,,,,,,,,,,,,,,,,,,,,,,,,,,,,,,,,,,,,,,,,,,,,,,,,,,,,,,,,,,,,,,,,,,,,,,1146.1069640570058,None,1150.3269181810028,1150.3369788199925,1150.3268589410989,None,space,0.9190870540041942,1150.3269181810028,None,None,1147.606895902005,1150.316860343999,1147.606895902005,None,1151.3468827110046,None,1151.3469195211044,1151.4470387280016,,,,,,,,,,,,,,,,,,,,,,,,1,001,2022_Nov_18_1815,Cognition2_FullCode1,2021.2.3,100.08710982480316,
,,,,,,,,,,,,,,,,,,,,,,,,,,,,,,,,,,,,,,,,,,,,,,,/Users/shamslab/Desktop/Cognition2_FullExperimentFile/conditionFiles_SRT/1_audioblock.csv,A,374,,,,,,,,,0,0,0,0,0,3,3,1,,,,,,,,,,,,,,,,,,,,,,,,,,,,,,,,,,,,,,,,,,,,,,,,,,,,,,,,,,,,,,,,,,,,,,,,,,,,,,,,,,,,,1151.6468932090065,None,1156.8870600880036,1156.8968526940007,1156.8868419631006,None,space,0.21493634099897463,1156.8870600880036,None,None,1153.1469675889966,1156.8768433660007,1153.1469675889966,None,1157.2068945759966,None,1157.2070268411014,1157.3070050170063,,,,,,,,,,,,,,,,,,,,,,,,1,001,2022_Nov_18_1815,Cognition2_FullCode1,2021.2.3,100.08710982480316,
,,,,,,,,,,,,,,,,,,,,,,,,,,,,,,,,,,,,,,,,,,,,,,,/Users/shamslab/Desktop/Cognition2_FullExperimentFile/conditionFiles_SRT/1_audioblock.csv,A,348,,,,,,,,,0,0,0,0,0,4,4,16,,,,,,,,,,,,,,,,,,,,,,,,,,,,,,,,,,,,,,,,,,,,,,,,,,,,,,,,,,,,,,,,,,,,,,,,,,,,,,,,,,,,,1157.5068978369964,None,1162.486908286999,1162.4969384919968,1162.4869447741046,None,space,0.16707652500190306,1162.486908286999,None,None,1159.006901173998,1162.4769461770047,1159.006901173998,None,1162.7569605809986,None,1162.7568905650958,1162.8569476919947,,,,,,,,,,,,,,,,,,,,,,,,1,001,2022_Nov_18_1815,Cognition2_FullCode1,2021.2.3,100.08710982480316,
,,,,,,,,,,,,,,,,,,,,,,,,,,,,,,,,,,,,,,,,,,,,,,,/Users/shamslab/Desktop/Cognition2_FullExperimentFile/conditionFiles_SRT/1_audioblock.csv,A,394,,,,,,,,,0,0,0,0,0,5,5,25,,,,,,,,,,,,,,,,,,,,,,,,,,,,,,,,,,,,,,,,,,,,,,,,,,,,,,,,,,,,,,,,,,,,,,,,,,,,,,,,,,,,,1163.0569388540025,None,1168.497038884001,1168.5069284100027,1168.4970580790948,None,space,0.2530051669891691,1168.497038884001,None,None,1164.556938513997,1168.487059481995,1164.556938513997,None,1168.8570306839974,None,1168.856942557101,1168.9569314440014,,,,,,,,,,,,,,,,,,,,,,,,1,001,2022_Nov_18_1815,Cognition2_FullCode1,2021.2.3,100.08710982480316,
,,,,,,,,,,,,,,,,,,,,,,,,,,,,,,,,,,,,,,,,,,,,,,,/Users/shamslab/Desktop/Cognition2_FullExperimentFile/conditionFiles_SRT/1_audioblock.csv,A,355,,,,,,,,,0,0,0,0,0,6,6,15,,,,,,,,,,,,,,,,,,,,,,,,,,,,,,,,,,,,,,,,,,,,,,,,,,,,,,,,,,,,,,,,,,,,,,,,,,,,,,,,,,,,,1169.1570314959972,None,1174.2069384579954,1174.217028700994,1174.2069863991026,None,space,0.24704851699061692,1174.2069384579954,None,None,1170.6569803040038,1174.1969878020027,1170.6569803040038,None,1174.5570743709977,None,1174.5569481570972,1174.6570355809963,,,,,,,,,,,,,,,,,,,,,,,,1,001,2022_Nov_18_1815,Cognition2_FullCode1,2021.2.3,100.08710982480316,
,,,,,,,,,,,,,,,,,,,,,,,,,,,,,,,,,,,,,,,,,,,,,,,/Users/shamslab/Desktop/Cognition2_FullExperimentFile/conditionFiles_SRT/1_audioblock.csv,A,286,,,,,,,,,0,0,0,0,0,7,7,27,,,,,,,,,,,,,,,,,,,,,,,,,,,,,,,,,,,,,,,,,,,,,,,,,,,,,,,,,,,,,,,,,,,,,,,,,,,,,,,,,,,,,1174.857009158004,None,1179.217032186003,1179.2269687130029,1179.2169781860982,None,space,0.2929932200058829,1179.217032186003,None,None,1176.357022134005,1179.2069795889984,1176.357022134005,None,1179.617025132,None,1179.616973623092,1179.7169945119967,,,,,,,,,,,,,,,,,,,,,,,,1,001,2022_Nov_18_1815,Cognition2_FullCode1,2021.2.3,100.08710982480316,
,,,,,,,,,,,,,,,,,,,,,,,,,,,,,,,,,,,,,,,,,,,,,,,/Users/shamslab/Desktop/Cognition2_FullExperimentFile/conditionFiles_SRT/1_audioblock.csv,A,218,,,,,,,,,0,0,0,0,0,8,8,20,,,,,,,,,,,,,,,,,,,,,,,,,,,,,,,,,,,,,,,,,,,,,,,,,,,,,,,,,,,,,,,,,,,,,,,,,,,,,,,,,,,,,1179.9169870369951,None,1183.5970724369981,1183.6069926670025,1183.5970143261045,None,space,0.5769101360056084,1183.5970724369981,None,None,1181.4170044380007,1183.5870157290046,1181.4170044380007,None,1184.2770725449955,None,1184.2770059651054,1184.3770652079984,,,,,,,,,,,,,,,,,,,,,,,,1,001,2022_Nov_18_1815,Cognition2_FullCode1,2021.2.3,100.08710982480316,
,,,,,,,,,,,,,,,,,,,,,,,,,,,,,,,,,,,,,,,,,,,,,,,/Users/shamslab/Desktop/Cognition2_FullExperimentFile/conditionFiles_SRT/1_audioblock.csv,A,226,,,,,,,,,0,0,0,0,0,9,9,14,,,,,,,,,,,,,,,,,,,,,,,,,,,,,,,,,,,,,,,,,,,,,,,,,,,,,,,,,,,,,,,,,,,,,,,,,,,,,,,,,,,,,1184.5770083120005,None,1188.3370080449968,1188.3470085159934,1188.3370645750954,None,space,0.5330127060005907,1188.3370080449968,None,None,1186.077053216999,1188.3270659779955,1186.077053216999,None,1188.9770530660026,None,1188.9770063781004,1189.0770464689995,,,,,,,,,,,,,,,,,,,,,,,,1,001,2022_Nov_18_1815,Cognition2_FullCode1,2021.2.3,100.08710982480316,
,,,,,,,,,,,,,,,,,,,,,,,,,,,,,,,,,,,,,,,,,,,,,,,/Users/shamslab/Desktop/Cognition2_FullExperimentFile/conditionFiles_SRT/1_audioblock.csv,A,205,,,,,,,,,0,0,0,0,0,10,10,23,,,,,,,,,,,,,,,,,,,,,,,,,,,,,,,,,,,,,,,,,,,,,,,,,,,,,,,,,,,,,,,,,,,,,,,,,,,,,,,,,,,,,1189.2770349229977,None,1192.8270406520023,1192.837053943993,1192.8270475761062,None,space,0.6109501979954075,1192.8270406520023,None,None,1190.777117894002,1192.8170489790064,1190.777117894002,None,1193.5470325979986,None,1193.5471480460953,1193.6470794670022,,,,,,,,,,,,,,,,,,,,,,,,1,001,2022_Nov_18_1815,Cognition2_FullCode1,2021.2.3,100.08710982480316,
,,,,,,,,,,,,,,,,,,,,,,,,,,,,,,,,,,,,,,,,,,,,,,,/Users/shamslab/Desktop/Cognition2_FullExperimentFile/conditionFiles_SRT/1_audioblock.csv,A,145,,,,,,,,,0,0,0,0,0,11,11,10,,,,,,,,,,,,,,,,,,,,,,,,,,,,,,,,,,,,,,,,,,,,,,,,,,,,,,,,,,,,,,,,,,,,,,,,,,,,,,,,,,,,,1193.8470003870025,None,1196.7971984809992,1196.807072933996,1196.7970454450958,None,space,0.6728234420006629,1196.7971984809992,None,None,1195.3470560389978,1196.787046847996,1195.3470560389978,None,1197.5770778930018,None,1197.5770650080929,1197.6770943760057,,,,,,,,,,,,,,,,,,,,,,,,1,001,2022_Nov_18_1815,Cognition2_FullCode1,2021.2.3,100.08710982480316,
,,,,,,,,,,,,,,,,,,,,,,,,,,,,,,,,,,,,,,,,,,,,,,,/Users/shamslab/Desktop/Cognition2_FullExperimentFile/conditionFiles_SRT/1_audioblock.csv,A,361,,,,,,,,,0,0,0,0,0,12,12,3,,,,,,,,,,,,,,,,,,,,,,,,,,,,,,,,,,,,,,,,,,,,,,,,,,,,,,,,,,,,,,,,,,,,,,,,,,,,,,,,,,,,,1197.8771291580051,None,1202.9871200049965,1202.997089024997,1202.9871079570992,None,space,0.7148922359920107,1202.9871200049965,None,None,1199.3771873229998,1202.9771093599993,1199.3771873229998,None,1203.8070782709983,None,1203.807122986106,1203.9070955339994,,,,,,,,,,,,,,,,,,,,,,,,1,001,2022_Nov_18_1815,Cognition2_FullCode1,2021.2.3,100.08710982480316,
,,,,,,,,,,,,,,,,,,,,,,,,,,,,,,,,,,,,,,,,,,,,,,,/Users/shamslab/Desktop/Cognition2_FullExperimentFile/conditionFiles_SRT/1_audioblock.csv,A,235,,,,,,,,,0,0,0,0,0,13,13,9,,,,,,,,,,,,,,,,,,,,,,,,,,,,,,,,,,,,,,,,,,,,,,,,,,,,,,,,,,,,,,,,,,,,,,,,,,,,,,,,,,,,,1204.1070938140037,None,1207.9571850840002,1207.9671015689964,1207.9570833211008,None,space,0.5288111889967695,1207.9571850840002,None,None,1205.6071320649935,1207.947084724001,1205.6071320649935,None,1208.5870815649978,None,1208.5871129011036,1208.6870865079982,,,,,,,,,,,,,,,,,,,,,,,,1,001,2022_Nov_18_1815,Cognition2_FullCode1,2021.2.3,100.08710982480316,
,,,,,,,,,,,,,,,,,,,,,,,,,,,,,,,,,,,,,,,,,,,,,,,/Users/shamslab/Desktop/Cognition2_FullExperimentFile/conditionFiles_SRT/1_audioblock.csv,A,89,,,,,,,,,0,0,0,0,0,14,14,12,,,,,,,,,,,,,,,,,,,,,,,,,,,,,,,,,,,,,,,,,,,,,,,,,,,,,,,,,,,,,,,,,,,,,,,,,,,,,,,,,,,,,1208.887104249996,None,1211.277190038003,1211.2871332899958,1211.2771389441011,None,space,0.6247887719946448,1211.277190038003,None,None,1210.3870849319937,1211.2671403470013,1210.3870849319937,None,1212.0071331530053,None,1212.0071423141023,1212.1071424730035,,,,,,,,,,,,,,,,,,,,,,,,1,001,2022_Nov_18_1815,Cognition2_FullCode1,2021.2.3,100.08710982480316,
,,,,,,,,,,,,,,,,,,,,,,,,,,,,,,,,,,,,,,,,,,,,,,,/Users/shamslab/Desktop/Cognition2_FullExperimentFile/conditionFiles_SRT/1_audioblock.csv,A,150,,,,,,,,,0,0,0,0,0,15,15,26,,,,,,,,,,,,,,,,,,,,,,,,,,,,,,,,,,,,,,,,,,,,,,,,,,,,,,,,,,,,,,,,,,,,,,,,,,,,,,,,,,,,,1212.3071573909983,None,1215.3071299599978,1215.3171496900031,1215.3071963871014,None,space,0.5308559620025335,1215.3071299599978,None,None,1213.8071223799925,1215.2971977900015,1213.8071223799925,None,1215.9471486770053,None,1215.9471259880927,1216.0472010929952,,,,,,,,,,,,,,,,,,,,,,,,1,001,2022_Nov_18_1815,Cognition2_FullCode1,2021.2.3,100.08710982480316,
,,,,,,,,,,,,,,,,,,,,,,,,,,,,,,,,,,,,,,,,,,,,,,,/Users/shamslab/Desktop/Cognition2_FullExperimentFile/conditionFiles_SRT/1_audioblock.csv,A,77,,,,,,,,,0,0,0,0,0,16,16,5,,,,,,,,,,,,,,,,,,,,,,,,,,,,,,,,,,,,,,,,,,,,,,,,,,,,,,,,,,,,,,,,,,,,,,,,,,,,,,,,,,,,,1216.2470747329935,None,1218.5171491090005,1218.5271409999987,1218.5172164750954,None,space,0.6088772369985236,1218.5171491090005,None,None,1217.7471303109924,1218.5072178779956,1217.7471303109924,None,1219.2271454019938,None,1219.2272286720952,1219.3271853089973,,,,,,,,,,,,,,,,,,,,,,,,1,001,2022_Nov_18_1815,Cognition2_FullCode1,2021.2.3,100.08710982480316,
,,,,,,,,,,,,,,,,,,,,,,,,,,,,,,,,,,,,,,,,,,,,,,,/Users/shamslab/Desktop/Cognition2_FullExperimentFile/conditionFiles_SRT/1_audioblock.csv,A,346,,,,,,,,,0,0,0,0,0,17,17,28,,,,,,,,,,,,,,,,,,,,,,,,,,,,,,,,,,,,,,,,,,,,,,,,,,,,,,,,,,,,,,,,,,,,,,,,,,,,,,,,,,,,,1219.527162821003,None,1224.4871649279958,1224.4972610749974,1224.4871955780952,None,space,0.6548323560127756,1224.4871649279958,None,None,1221.0271900869993,1224.4771969809954,1221.0271900869993,None,1225.247180456994,None,1225.247145952101,1225.3471772049961,,,,,,,,,,,,,,,,,,,,,,,,1,001,2022_Nov_18_1815,Cognition2_FullCode1,2021.2.3,100.08710982480316,
,,,,,,,,,,,,,,,,,,,,,,,,,,,,,,,,,,,,,,,,,,,,,,,/Users/shamslab/Desktop/Cognition2_FullExperimentFile/conditionFiles_SRT/1_audioblock.csv,A,243,,,,,,,,,0,0,0,0,0,18,18,11,,,,,,,,,,,,,,,,,,,,,,,,,,,,,,,,,,,,,,,,,,,,,,,,,,,,,,,,,,,,,,,,,,,,,,,,,,,,,,,,,,,,,1225.5471966439945,None,1229.4771752579982,1229.487171597997,1229.4771947490924,None,space,0.5048510049964534,1229.4771752579982,None,None,1227.0471458880056,1229.4671961519925,1227.0471458880056,None,1230.0872212940012,None,1230.0872217950935,1230.1872286069993,,,,,,,,,,,,,,,,,,,,,,,,1,001,2022_Nov_18_1815,Cognition2_FullCode1,2021.2.3,100.08710982480316,
,,,,,,,,,,,,,,,,,,,,,,,,,,,,,,,,,,,,,,,,,,,,,,,/Users/shamslab/Desktop/Cognition2_FullExperimentFile/conditionFiles_SRT/1_audioblock.csv,A,56,,,,,,,,,0,0,0,0,0,19,19,18,,,,,,,,,,,,,,,,,,,,,,,,,,,,,,,,,,,,,,,,,,,,,,,,,,,,,,,,,,,,,,,,,,,,,,,,,,,,,,,,,,,,,1230.3871813769947,None,1232.4472034359933,1232.4572077449993,1232.4472411821014,None,space,0.7268439879990183,1232.4472034359933,None,None,1231.8872149050003,1232.4372425850015,1231.8872149050003,None,1233.2772071219952,None,1233.2772904751007,1233.3772999670036,,,,,,,,,,,,,,,,,,,,,,,,1,001,2022_Nov_18_1815,Cognition2_FullCode1,2021.2.3,100.08710982480316,
,,,,,,,,,,,,,,,,,,,,,,,,,,,,,,,,,,,,,,,,,,,,,,,/Users/shamslab/Desktop/Cognition2_FullExperimentFile/conditionFiles_SRT/1_audioblock.csv,A,156,,,,,,,,,0,0,0,0,0,20,20,21,,,,,,,,,,,,,,,,,,,,,,,,,,,,,,,,,,,,,,,,,,,,,,,,,,,,,,,,,,,,,,,,,,,,,,,,,,,,,,,,,,,,,1233.5772244580003,None,1236.6372505839972,1236.6472611820063,1236.6371979911025,None,space,0.5847507059952477,1236.6372505839972,None,None,1235.077278937999,1236.6271993940027,1235.077278937999,None,1237.327202993998,None,1237.3272570390952,1237.427226904998,,,,,,,,,,,,,,,,,,,,,,,,1,001,2022_Nov_18_1815,Cognition2_FullCode1,2021.2.3,100.08710982480316,
,,,,,,,,,,,,,,,,,,,,,,,,,,,,,,,,,,,,,,,,,,,,,,,/Users/shamslab/Desktop/Cognition2_FullExperimentFile/conditionFiles_SRT/1_audioblock.csv,A,92,,,,,,,,,0,0,0,0,0,21,21,24,,,,,,,,,,,,,,,,,,,,,,,,,,,,,,,,,,,,,,,,,,,,,,,,,,,,,,,,,,,,,,,,,,,,,,,,,,,,,,,,,,,,,1237.6272201829997,None,1240.0472094839934,1240.0572366349952,1240.0472393201023,None,space,0.5907790420023957,1240.0472094839934,None,None,1239.127220262002,1240.0372407230025,1239.127220262002,None,1240.747303080003,None,1240.7472536320972,1240.8472267739999,,,,,,,,,,,,,,,,,,,,,,,,1,001,2022_Nov_18_1815,Cognition2_FullCode1,2021.2.3,100.08710982480316,
,,,,,,,,,,,,,,,,,,,,,,,,,,,,,,,,,,,,,,,,,,,,,,,/Users/shamslab/Desktop/Cognition2_FullExperimentFile/conditionFiles_SRT/1_audioblock.csv,A,202,,,,,,,,,0,0,0,0,0,22,22,8,,,,,,,,,,,,,,,,,,,,,,,,,,,,,,,,,,,,,,,,,,,,,,,,,,,,,,,,,,,,,,,,,,,,,,,,,,,,,,,,,,,,,1241.0472250049934,None,1244.567239240001,1244.5772568980028,1244.5673092751065,None,space,0.6147431559948018,1244.567239240001,None,None,1242.5472443960025,1244.5573106780066,1242.5472443960025,None,1245.287201514002,None,1245.2872794191032,1245.3872430519987,,,,,,,,,,,,,,,,,,,,,,,,1,001,2022_Nov_18_1815,Cognition2_FullCode1,2021.2.3,100.08710982480316,
,,,,,,,,,,,,,,,,,,,,,,,,,,,,,,,,,,,,,,,,,,,,,,,/Users/shamslab/Desktop/Cognition2_FullExperimentFile/conditionFiles_SRT/1_audioblock.csv,A,96,,,,,,,,,0,0,0,0,0,23,23,29,,,,,,,,,,,,,,,,,,,,,,,,,,,,,,,,,,,,,,,,,,,,,,,,,,,,,,,,,,,,,,,,,,,,,,,,,,,,,,,,,,,,,1245.5872475999931,None,1248.0473538590013,1248.057259342997,1248.0472587580996,None,space,0.7186489839950809,1248.0473538590013,None,None,1247.0872793710005,1248.0372601609997,1247.0872793710005,None,1248.867323094004,None,1248.8672433380968,1248.9673179969977,,,,,,,,,,,,,,,,,,,,,,,,1,001,2022_Nov_18_1815,Cognition2_FullCode1,2021.2.3,100.08710982480316,
,,,,,,,,,,,,,,,,,,,,,,,,,,,,,,,,,,,,,,,,,,,,,,,/Users/shamslab/Desktop/Cognition2_FullExperimentFile/conditionFiles_SRT/1_audioblock.csv,A,141,,,,,,,,,0,0,0,0,0,24,24,7,,,,,,,,,,,,,,,,,,,,,,,,,,,,,,,,,,,,,,,,,,,,,,,,,,,,,,,,,,,,,,,,,,,,,,,,,,,,,,,,,,,,,1249.1672354490001,None,1252.0772980509937,1252.0872672419937,1252.0773814581014,None,space,0.552749780996237,1252.0772980509937,None,None,1250.6673451810057,1252.0673828610015,1250.6673451810057,None,1252.7372892470012,None,1252.7372544650977,1252.8372888199956,,,,,,,,,,,,,,,,,,,,,,,,1,001,2022_Nov_18_1815,Cognition2_FullCode1,2021.2.3,100.08710982480316,
,,,,,,,,,,,,,,,,,,,,,,,,,,,,,,,,,,,,,,,,,,,,,,,/Users/shamslab/Desktop/Cognition2_FullExperimentFile/conditionFiles_SRT/1_audioblock.csv,A,159,,,,,,,,,0,0,0,0,0,25,25,19,,,,,,,,,,,,,,,,,,,,,,,,,,,,,,,,,,,,,,,,,,,,,,,,,,,,,,,,,,,,,,,,,,,,,,,,,,,,,,,,,,,,,1253.037285590006,None,1256.127379048994,1256.1372822679987,1256.127310034103,None,space,0.6706194279977353,1256.127379048994,None,None,1254.5372833979927,1256.117311437003,1254.5372833979927,None,1256.9072967889952,None,1256.9073722630972,1257.0073216500023,,,,,,,,,,,,,,,,,,,,,,,,1,001,2022_Nov_18_1815,Cognition2_FullCode1,2021.2.3,100.08710982480316,
,,,,,,,,,,,,,,,,,,,,,,,,,,,,,,,,,,,,,,,,,,,,,,,/Users/shamslab/Desktop/Cognition2_FullExperimentFile/conditionFiles_SRT/1_audioblock.csv,A,189,,,,,,,,,0,0,0,0,0,26,26,6,,,,,,,,,,,,,,,,,,,,,,,,,,,,,,,,,,,,,,,,,,,,,,,,,,,,,,,,,,,,,,,,,,,,,,,,,,,,,,,,,,,,,1257.2072949300054,None,1260.5973281149927,1260.6072870770004,1260.5972796810936,None,space,0.5846559049969073,1260.5973281149927,None,None,1258.7073104500014,1260.5872810839937,1258.7073104500014,None,1261.2873090899957,None,1261.2873062960978,1261.387337469001,,,,,,,,,,,,,,,,,,,,,,,,1,001,2022_Nov_18_1815,Cognition2_FullCode1,2021.2.3,100.08710982480316,
,,,,,,,,,,,,,,,,,,,,,,,,,,,,,,,,,,,,,,,,,,,,,,,/Users/shamslab/Desktop/Cognition2_FullExperimentFile/conditionFiles_SRT/1_audioblock.csv,A,57,,,,,,,,,0,0,0,0,0,27,27,0,,,,,,,,,,,,,,,,,,,,,,,,,,,,,,,,,,,,,,,,,,,,,,,,,,,,,,,,,,,,,,,,,,,,,,,,,,,,,,,,,,,,,1261.587311982992,None,1263.6573391830025,1263.6673132449941,1263.6573699551052,None,space,0.3486621439951705,1263.6573391830025,None,None,1263.0873322830012,1263.6473713580053,1263.0873322830012,None,1264.1073423189955,None,1264.1073291671025,1264.207283939002,,,,,,,,,,,,,,,,,,,,,,,,1,001,2022_Nov_18_1815,Cognition2_FullCode1,2021.2.3,100.08710982480316,
,,,,,,,,,,,,,,,,,,,,,,,,,,,,,,,,,,,,,,,,,,,,,,,/Users/shamslab/Desktop/Cognition2_FullExperimentFile/conditionFiles_SRT/1_audioblock.csv,A,334,,,,,,,,,0,0,0,0,0,28,28,4,,,,,,,,,,,,,,,,,,,,,,,,,,,,,,,,,,,,,,,,,,,,,,,,,,,,,,,,,,,,,,,,,,,,,,,,,,,,,,,,,,,,,1264.4073002359946,None,1269.2473472129932,1269.2573770570016,1269.2473668721038,None,space,0.31063355000515,1269.2473472129932,None,None,1265.9073117869993,1269.237368275004,1265.9073117869993,None,1269.667358052,None,1269.6673259341012,1269.7673608979967,,,,,,,,,,,,,,,,,,,,,,,,1,001,2022_Nov_18_1815,Cognition2_FullCode1,2021.2.3,100.08710982480316,
,,,,,,,,,,,,,,,,,,,,,,,,,,,,,,,,,,,,,,,,,,,,,,,/Users/shamslab/Desktop/Cognition2_FullExperimentFile/conditionFiles_SRT/1_audioblock.csv,A,156,,,,,,,,,0,0,0,0,0,29,29,13,,,,,,,,,,,,,,,,,,,,,,,,,,,,,,,,,,,,,,,,,,,,,,,,,,,,,,,,,,,,,,,,,,,,,,,,,,,,,,,,,,,,,1269.9674408110004,None,1273.0274638370029,1273.0374048999947,1273.027386571103,None,space,0.29852591900271364,1273.0274638370029,None,None,1271.467328062994,1273.0173879740032,1271.467328062994,None,1273.4273530469945,None,1273.427401503094,1273.5273649610026,,,,,,,,,,,,,,,,,,,,,,,,1,001,2022_Nov_18_1815,Cognition2_FullCode1,2021.2.3,100.08710982480316,
,,,,,,,,,,,,,,,,,,,,,,,,,,,,,,,,,,,,,,,,,,,,,,,/Users/shamslab/Desktop/Cognition2_FullExperimentFile/conditionFiles_SRT/1_audioblock.csv,,,,,,,,,,,0,0,0,0,,,,,,,,,,,,,,,,,,,,,,,,,,,,,,,,,,,,,,,,,,,,,,,,,,,,,,,,,,,,,,,,,,,,,,,,,,,,,,,,,,,,,,,,,,,,,,,,,,,,,,,,,,,,,,,,,,,,,,,,,,,,,,,,,,,1,001,2022_Nov_18_1815,Cognition2_FullCode1,2021.2.3,100.08710982480316,
,,,,,,,,,,,,,,,,,,,,,,,,,,,,,,,,,,,,,,,,,,,,,,,/Users/shamslab/Desktop/Cognition2_FullExperimentFile/conditionFiles_SRT/1_bisensoryblock.csv,B,101,,,,,,,,,0,1,1,2,0,0,0,0,,,,,,,,,,,,,,,,,,,,,,,,,,,,,,,,,,,,,,,,,,,,,,,,,,,,,,,,,,,,,,,,,,,,,,,,,,,,,,,1274.2276498309948,None,space,9.80653901300684,1274.3274247609952,None,1284.1574211599946,None,1286.6674280470033,1286.6774526999943,1286.6674058071046,None,space,0.8586056430067401,1286.6674280470033,None,None,1285.6574700799974,1286.6574072100047,1285.6574700799974,None,1287.6274687080004,None,1287.6274649580998,1287.7274838260055,,,,,,,,,,,,,,,,,,,,,,,,1,001,2022_Nov_18_1815,Cognition2_FullCode1,2021.2.3,100.08710982480316,
,,,,,,,,,,,,,,,,,,,,,,,,,,,,,,,,,,,,,,,,,,,,,,,/Users/shamslab/Desktop/Cognition2_FullExperimentFile/conditionFiles_SRT/1_bisensoryblock.csv,B,278,,,,,,,,,0,1,1,2,0,1,1,10,,,,,,,,,,,,,,,,,,,,,,,,,,,,,,,,,,,,,,,,,,,,,,,,,,,,,,,,,,,,,,,,,,,,,,,,,,,,,,,,,,,,,1287.927433888006,None,1292.2074679170037,1292.2174145689933,1292.2074725121026,None,space,0.23853850799787324,1292.2074679170037,None,None,1289.4275094780023,1292.1974739150028,1289.4275094780023,None,1292.5474591189995,None,1292.5474194971,1292.6475358519965,,,,,,,,,,,,,,,,,,,,,,,,1,001,2022_Nov_18_1815,Cognition2_FullCode1,2021.2.3,100.08710982480316,
,,,,,,,,,,,,,,,,,,,,,,,,,,,,,,,,,,,,,,,,,,,,,,,/Users/shamslab/Desktop/Cognition2_FullExperimentFile/conditionFiles_SRT/1_bisensoryblock.csv,B,148,,,,,,,,,0,1,1,2,0,2,2,28,,,,,,,,,,,,,,,,,,,,,,,,,,,,,,,,,,,,,,,,,,,,,,,,,,,,,,,,,,,,,,,,,,,,,,,,,,,,,,,,,,,,,1292.8475220310065,None,1295.8275250269944,1295.8374917159963,1295.8274452260928,None,space,0.2664640830043936,1295.8275250269944,None,None,1294.3474687179987,1295.817446628993,1294.3474687179987,None,1296.1974921670044,None,1296.1974622511013,1296.2974469089968,,,,,,,,,,,,,,,,,,,,,,,,1,001,2022_Nov_18_1815,Cognition2_FullCode1,2021.2.3,100.08710982480316,
,,,,,,,,,,,,,,,,,,,,,,,,,,,,,,,,,,,,,,,,,,,,,,,/Users/shamslab/Desktop/Cognition2_FullExperimentFile/conditionFiles_SRT/1_bisensoryblock.csv,B,276,,,,,,,,,0,1,1,2,0,3,3,13,,,,,,,,,,,,,,,,,,,,,,,,,,,,,,,,,,,,,,,,,,,,,,,,,,,,,,,,,,,,,,,,,,,,,,,,,,,,,,,,,,,,,1296.4974831940053,None,1300.7574626459973,1300.767562455003,1300.7575187760929,None,space,0.264522412995575,1300.7574626459973,None,None,1297.9974804950034,1300.747520178993,1297.9974804950034,None,1301.1274793369957,None,1301.1275022101006,1301.2275083389977,,,,,,,,,,,,,,,,,,,,,,,,1,001,2022_Nov_18_1815,Cognition2_FullCode1,2021.2.3,100.08710982480316,
,,,,,,,,,,,,,,,,,,,,,,,,,,,,,,,,,,,,,,,,,,,,,,,/Users/shamslab/Desktop/Cognition2_FullExperimentFile/conditionFiles_SRT/1_bisensoryblock.csv,B,342,,,,,,,,,0,1,1,2,0,4,4,1,,,,,,,,,,,,,,,,,,,,,,,,,,,,,,,,,,,,,,,,,,,,,,,,,,,,,,,,,,,,,,,,,,,,,,,,,,,,,,,,,,,,,1301.4274710040045,None,1306.3474561939947,1306.357542704005,1306.3474973650998,None,space,0.21859149599913508,1306.3474561939947,None,None,1302.9274545039952,1306.337498768,1302.9274545039952,None,1306.6675271819986,None,1306.667514392099,1306.7675313329964,,,,,,,,,,,,,,,,,,,,,,,,1,001,2022_Nov_18_1815,Cognition2_FullCode1,2021.2.3,100.08710982480316,
,,,,,,,,,,,,,,,,,,,,,,,,,,,,,,,,,,,,,,,,,,,,,,,/Users/shamslab/Desktop/Cognition2_FullExperimentFile/conditionFiles_SRT/1_bisensoryblock.csv,B,323,,,,,,,,,0,1,1,2,0,5,5,3,,,,,,,,,,,,,,,,,,,,,,,,,,,,,,,,,,,,,,,,,,,,,,,,,,,,,,,,,,,,,,,,,,,,,,,,,,,,,,,,,,,,,1306.9675590849947,None,1311.6974883759976,1311.7075845350046,1311.6975285701017,None,space,0.14851564100536052,1311.6974883759976,None,None,1308.4675118000014,1311.6875299730018,1308.4675118000014,None,1311.9475505349983,None,1311.9475633330992,1312.0475088050007,,,,,,,,,,,,,,,,,,,,,,,,1,001,2022_Nov_18_1815,Cognition2_FullCode1,2021.2.3,100.08710982480316,
,,,,,,,,,,,,,,,,,,,,,,,,,,,,,,,,,,,,,,,,,,,,,,,/Users/shamslab/Desktop/Cognition2_FullExperimentFile/conditionFiles_SRT/1_bisensoryblock.csv,B,196,,,,,,,,,0,1,1,2,0,6,6,17,,,,,,,,,,,,,,,,,,,,,,,,,,,,,,,,,,,,,,,,,,,,,,,,,,,,,,,,,,,,,,,,,,,,,,,,,,,,,,,,,,,,,1312.2476434840064,None,1315.7075235090015,1315.717578130003,1315.707599552098,None,space,0.13848575500014704,1315.7075235090015,None,None,1313.74750872,1315.697600954998,1313.74750872,None,1315.9475130479987,None,1315.947593892092,1316.0476061380032,,,,,,,,,,,,,,,,,,,,,,,,1,001,2022_Nov_18_1815,Cognition2_FullCode1,2021.2.3,100.08710982480316,
,,,,,,,,,,,,,,,,,,,,,,,,,,,,,,,,,,,,,,,,,,,,,,,/Users/shamslab/Desktop/Cognition2_FullExperimentFile/conditionFiles_SRT/1_bisensoryblock.csv,B,200,,,,,,,,,0,1,1,2,0,7,7,19,,,,,,,,,,,,,,,,,,,,,,,,,,,,,,,,,,,,,,,,,,,,,,,,,,,,,,,,,,,,,,,,,,,,,,,,,,,,,,,,,,,,,1316.2475422129937,None,1319.7476478180033,1319.7575361570052,1319.747627825095,None,space,0.14633605699054897,1319.7476478180033,None,None,1317.747531838002,1319.737629227995,1317.747531838002,None,1319.9975584219937,None,1319.9975164071045,1320.097553116997,,,,,,,,,,,,,,,,,,,,,,,,1,001,2022_Nov_18_1815,Cognition2_FullCode1,2021.2.3,100.08710982480316,
,,,,,,,,,,,,,,,,,,,,,,,,,,,,,,,,,,,,,,,,,,,,,,,/Users/shamslab/Desktop/Cognition2_FullExperimentFile/conditionFiles_SRT/1_bisensoryblock.csv,B,232,,,,,,,,,0,1,1,2,0,8,8,12,,,,,,,,,,,,,,,,,,,,,,,,,,,,,,,,,,,,,,,,,,,,,,,,,,,,,,,,,,,,,,,,,,,,,,,,,,,,,,,,,,,,,1320.297538083003,None,1324.117556238998,1324.1275782790035,1324.117610789105,None,space,0.3844418369990308,1324.117556238998,None,None,1321.7975705769932,1324.107612192005,1321.7975705769932,None,1324.6075963159965,None,1324.6075554850947,1324.7075313679961,,,,,,,,,,,,,,,,,,,,,,,,1,001,2022_Nov_18_1815,Cognition2_FullCode1,2021.2.3,100.08710982480316,
