filePaths,rhythm,stim1,stim2,stim3,stim4,stim5,stim6,stim1Start,stim1End,stim2Start,stim2End,stim3Start,stim3End,stim4Start,stim4End,stim5Start,stim5End,stim6Start,stim6End,audFile,audStart,similCat,rhythm_i2,stim1_i2,stim2_i2,stim3_i2,stim4_i2,stim5_i2,stim6_i2,stim1Start_i2,stim1End_i2,stim2Start_i2,stim2End_i2,stim3Start_i2,stim3End_i2,stim4Start_i2,stim4End_i2,stim5Start_i2,stim5End_i2,stim6Start_i2,stim6End_i2,audFile_i2,audStart_i2,similCat_i2,setVol,corrMatchAnswer,condFilePath,sensoryCond,stimStart,overallRhythmOrder.thisRepN,overallRhythmOrder.thisTrialN,overallRhythmOrder.thisN,overallRhythmOrder.thisIndex,AudVisRhythmLoop.thisRepN,AudVisRhythmLoop.thisTrialN,AudVisRhythmLoop.thisN,AudVisRhythmLoop.thisIndex,pickingSRTCond.thisRepN,pickingSRTCond.thisTrialN,pickingSRTCond.thisN,pickingSRTCond.thisIndex,srtTrials.thisRepN,srtTrials.thisTrialN,srtTrials.thisN,srtTrials.thisIndex,text_3.started,text_3.stopped,goToNext.keys,goToNext.rt,goToNext.started,goToNext.stopped,variableInstructions.started,variableInstructions.stopped,goToBlockKey.keys,goToBlockKey.rt,goToBlockKey.started,goToBlockKey.stopped,text_2.started,text_2.stopped,preFix.started,preFix.stopped,holdFix.started,holdFix.stopped,cir1.started,cir1.stopped,cir2.started,cir2.stopped,cir3.started,cir3.stopped,cir4.started,cir4.stopped,cir5.started,cir5.stopped,cir6.started,cir6.stopped,audioTrialSound.started,audioTrialSound.stopped,text.started,text.stopped,holdFix_i2.started,holdFix_i2.stopped,cir1_i2.started,cir1_i2.stopped,cir2_i2.started,cir2_i2.stopped,cir3_i2.started,cir3_i2.stopped,cir4_i2.started,cir4_i2.stopped,cir5_i2.started,cir5_i2.stopped,cir6_i2.started,cir6_i2.stopped,audioTrialSound_i2.started,audioTrialSound_i2.stopped,rhythmChoice.keys,rhythmChoice.rt,rhythmChoice.started,rhythmChoice.stopped,promptTxt.started,promptTxt.stopped,breatheBro.started,breatheBro.stopped,image.started,image.stopped,goToTrailTxt.started,goToTrailTxt.stopped,keyToGoNext.keys,keyToGoNext.rt,keyToGoNext.started,keyToGoNext.stopped,keyToGo.keys,keyToGo.rt,keyToGo.started,keyToGo.stopped,spaceTxt.started,spaceTxt.stopped,mainInstrText.started,mainInstrText.stopped,MoveToMainTask.keys,MoveToMainTask.rt,MoveToMainTask.started,MoveToMainTask.stopped,whichBlkTxt.started,whichBlkTxt.stopped,LetsGoGirls.keys,LetsGoGirls.rt,LetsGoGirls.started,LetsGoGirls.stopped,fixCross.started,fixCross.stopped,gratingStim.started,gratingStim.stopped,beepStim.started,beepStim.stopped,yesHitIt.keys,yesHitIt.rt,yesHitIt.started,yesHitIt.stopped,catchEarly.keys,catchEarly.started,catchEarly.stopped,text_4.started,text_4.stopped,feedbackIfNeeded.started,feedbackIfNeeded.stopped,annoyingBeep.started,annoyingBeep.stopped,catchEarly.rt,wordListTime,wordRecallInstr.started,wordRecallInstr.stopped,keytoWords.keys,keytoWords.rt,keytoWords.started,keytoWords.stopped,textForWords.text,textForWords.started,textForWords.stopped,wordText.started,wordText.stopped,wordTestTiming.keys,wordTestTiming.rt,wordTestTiming.started,wordTestTiming.stopped,byebyeText.started,byebyeText.stopped,pressToEnd.keys,pressToEnd.rt,pressToEnd.started,pressToEnd.stopped,participant,session,date,expName,psychopyVersion,frameRate,
,,,,,,,,,,,,,,,,,,,,,,,,,,,,,,,,,,,,,,,,,,,,,,,,,,,,,,,,,,,,,,,,,,19.67253791098483,None,space,86.07385403796798,19.862589706026483,None,,,,,,,,,,,,,,,,,,,,,,,,,,,,,,,,,,,,,,,,,,,,,,,,,,,,,,,,,,,,,,,,,,,,,,,,,,,,,,,,,,,,,,,,,,,,,,,,,,,,,,,,,,,,,,,,,,,,,,,,,2,001,2022_Nov_21_1609,Cognition2_FullCode1,2021.2.3,100.02265410431252,
/Users/shamslab/Desktop/Cognition2_FullExperimentFile/2_VisualBlock1.csv,28,1,2,1,1,2,2,11,16,28,58,70,75,87,92,104,134,146,176,3_audFile.wav,10,5,22,1,2,1,2,2,1,11,16,28,58,70,75,87,117,129,159,171,176,3_audFile.wav,10,5,0,2,,,,0,0,0,0,0,0,0,31,,,,,,,,,,,,,,,106.07295318401884,None,space,3.6915702830301598,106.17286176100606,None,109.91292199399322,None,110.10288174101152,None,111.10287957498804,None,111.21290787501493,111.26286432502093,111.38300352398073,111.68285251402995,111.8029114510282,111.8528894840274,111.97291358298389,112.02287846599938,112.1428775159875,112.44290788599756,112.56290822097799,112.86289283202495,111.20287849911256,None,112.96291231998475,None,114.2728463030071,None,114.38291183201363,114.4328934350051,114.5529109640047,114.85289214097429,114.97290391300339,115.02298348897602,115.14295140298782,115.44289954501437,115.56294962897664,115.86289535497781,115.98295054899063,116.03289321099874,114.37291004910367,None,1,4.447522769973148,116.6329012120259,None,116.6329012120259,None,,,,,,,,,,,,,,,,,,,,,,,,,,,,,,,,,,,,,,,,,,,,,,,,,,,,,,,,,,,,,,,,,,,,,,,2,001,2022_Nov_21_1609,Cognition2_FullCode1,2021.2.3,100.02265410431252,
/Users/shamslab/Desktop/Cognition2_FullExperimentFile/2_VisualBlock1.csv,24,1,2,2,1,1,2,11,16,28,58,70,100,112,117,129,134,146,176,3_audFile.wav,10,5,24,1,2,2,1,1,2,11,16,28,58,70,100,112,117,129,134,146,176,3_audFile.wav,10,5,0,1,,,,0,0,0,0,0,1,1,13,,,,,,,,,,,,,,,,,,,,,121.10290273302235,None,121.28289509098977,122.28289732598932,122.30296467302833,None,122.41298312897561,122.4629872069927,122.58296661201166,122.88293072202941,123.00299566698959,123.3029740480124,123.42296527099097,123.47293912700843,123.59293821197934,123.64291634300025,123.76292022602865,124.06290284200804,122.40293433109764,None,124.16290337702958,None,125.46292214700952,None,125.57294253498549,125.62296279001748,125.74294587998884,126.04300250700908,126.16296978102764,126.46299768600147,126.58298442000523,126.63297105999663,126.7529712949763,126.80297235498438,126.92290145799052,127.22294705099193,125.56296860007569,None,2,3.761507329007145,127.82292142999358,None,127.82292142999358,None,,,,,,,,,,,,,,,,,,,,,,,,,,,,,,,,,,,,,,,,,,,,,,,,,,,,,,,,,,,,,,,,,,,,,,,2,001,2022_Nov_21_1609,Cognition2_FullCode1,2021.2.3,100.02265410431252,
/Users/shamslab/Desktop/Cognition2_FullExperimentFile/2_VisualBlock1.csv,16,2,2,1,2,1,1,11,41,53,83,95,100,112,142,154,159,171,176,3_audFile.wav,10,7,16,2,2,1,2,1,1,11,41,53,83,95,100,112,142,154,159,171,176,3_audFile.wav,10,7,0,1,,,,0,0,0,0,0,2,2,5,,,,,,,,,,,,,,,,,,,,,131.60299054800998,None,131.79296727501787,132.79307587002404,132.8030008589849,None,132.91301382897655,133.21297784498893,133.33297056303127,133.63297414500266,133.75302257400472,133.80295609898167,133.92296500498196,134.2229739180184,134.34299605502747,134.39294407999841,134.5129859460285,134.56296791898785,132.90308267512592,None,134.6629978850251,None,135.9630075119785,None,136.0730207990273,136.37306341598742,136.49303537298692,136.7929956780281,136.9130331139895,136.9630545519758,137.0829605180188,137.38299095298862,137.50300849799532,137.55301671702182,137.67299922200618,137.723048423999,136.06299891107483,None,2,0.8934449200169183,138.32298825797625,None,138.32298825797625,None,,,,,,,,,,,,,,,,,,,,,,,,,,,,,,,,,,,,,,,,,,,,,,,,,,,,,,,,,,,,,,,,,,,,,,,2,001,2022_Nov_21_1609,Cognition2_FullCode1,2021.2.3,100.02265410431252,
/Users/shamslab/Desktop/Cognition2_FullExperimentFile/2_VisualBlock1.csv,29,1,1,2,1,2,2,11,16,28,33,45,75,87,92,104,134,146,176,3_audFile.wav,10,4,29,1,1,2,1,2,2,11,16,28,33,45,75,87,92,104,134,146,176,3_audFile.wav,10,4,0,1,,,,0,0,0,0,0,3,3,7,,,,,,,,,,,,,,,,,,,,,139.23313979402883,None,139.42299346602522,140.42298844800098,140.4330314960098,None,140.54301773098996,140.59301687497646,140.71303182799602,140.76297385100042,140.8830717150122,141.18299273302546,141.30298821697943,141.35302100598346,141.47307461698074,141.77310226199916,141.89303882501554,142.19301873800578,140.53298240609,None,142.29301310598385,None,143.5930907530128,None,143.70302871399326,143.75303837301908,143.87304071401013,143.92301596497418,144.04310246702516,144.34299216902582,144.46298721502535,144.51314952300163,144.6330201299861,144.93308382702526,145.0530985610094,145.35304463398643,143.69296688208124,None,2,1.4714080329868011,145.9530274210265,None,145.9530274210265,None,,,,,,,,,,,,,,,,,,,,,,,,,,,,,,,,,,,,,,,,,,,,,,,,,,,,,,,,,,,,,,,,,,,,,,,2,001,2022_Nov_21_1609,Cognition2_FullCode1,2021.2.3,100.02265410431252,
/Users/shamslab/Desktop/Cognition2_FullExperimentFile/2_VisualBlock1.csv,29,1,1,2,1,2,2,11,16,28,33,45,75,87,92,104,134,146,176,3_audFile.wav,10,4,27,1,1,2,2,1,2,11,16,28,33,45,75,87,117,129,134,146,176,3_audFile.wav,10,4,0,2,,,,0,0,0,0,0,4,4,17,,,,,,,,,,,,,,,,,,,,,147.44302854902344,None,147.63306546397507,148.63303075300064,148.64300406503025,None,148.7530436749803,148.80311215901747,148.92301343102008,148.97303508000914,149.09304344997508,149.39305278402753,149.51306913100416,149.56307858601213,149.6830331889796,149.9830275119748,150.10301363799954,150.40299997199327,148.743081080087,None,150.50300125102513,None,151.80306350399042,None,151.9130618229974,151.9630743250018,152.08306871401146,152.13314430002356,152.25303598301252,152.55311973002972,152.67305017402396,152.97306698799366,153.09305870201206,153.14302895998117,153.26306313899113,153.5630429420271,151.90308083908167,None,2,1.0294331290060654,154.16308350197505,None,154.16308350197505,None,,,,,,,,,,,,,,,,,,,,,,,,,,,,,,,,,,,,,,,,,,,,,,,,,,,,,,,,,,,,,,,,,,,,,,,2,001,2022_Nov_21_1609,Cognition2_FullCode1,2021.2.3,100.02265410431252,
/Users/shamslab/Desktop/Cognition2_FullExperimentFile/2_VisualBlock1.csv,19,2,1,2,1,2,1,11,41,53,58,70,100,112,117,129,159,171,176,3_audFile.wav,10,6,21,2,1,1,2,2,1,11,41,53,58,70,75,87,117,129,159,171,176,3_audFile.wav,10,6,0,2,,,,0,0,0,0,0,5,5,12,,,,,,,,,,,,,,,,,,,,,155.2031872930238,None,155.39313475700328,156.39312854898162,156.40305737400195,None,156.51309278199915,156.8131257300265,156.93309286801377,156.98307133303024,157.10309138899902,157.4030698799761,157.52304780302802,157.57313569902908,157.6930822120048,157.99305798200658,158.1133170889807,158.16310429997975,156.50308953912463,None,158.2630986860022,None,159.56311355298385,None,159.67309946700698,159.9731930400012,160.09316852799384,160.1430553959799,160.26301628298825,160.31313336302992,160.43316408002283,160.73310971801402,160.85313798702555,161.15311758802272,161.27315027697477,161.3230607219739,159.66308375110384,None,1,0.557342772022821,161.92309072898934,None,161.92309072898934,None,,,,,,,,,,,,,,,,,,,,,,,,,,,,,,,,,,,,,,,,,,,,,,,,,,,,,,,,,,,,,,,,,,,,,,,2,001,2022_Nov_21_1609,Cognition2_FullCode1,2021.2.3,100.02265410431252,
/Users/shamslab/Desktop/Cognition2_FullExperimentFile/2_VisualBlock1.csv,19,2,1,2,1,2,1,11,41,53,58,70,100,112,117,129,159,171,176,3_audFile.wav,10,6,19,2,1,2,1,2,1,11,41,53,58,70,100,112,117,129,159,171,176,3_audFile.wav,10,6,0,1,,,,0,0,0,0,0,6,6,9,,,,,,,,,,,,,,,,,,,,,162.49308969598496,None,162.6830808550003,163.6830975880148,163.69315780198667,None,163.80308913899353,164.1031100960099,164.2230744260014,164.27308470499702,164.39311429898953,164.6931499579805,164.81312644999707,164.863088721002,164.9831132949912,165.28310693701496,165.40316244901624,165.4530886639841,163.79308959608898,None,165.5530973339919,None,166.8531449100119,None,166.9631118910038,167.26315486698877,167.38311655801954,167.4331978650298,167.5532470989856,167.85318700398784,167.97315083799185,168.02311551303137,168.14309749001404,168.44310722401133,168.5630893469788,168.6131281409762,166.95311107311863,None,1,0.6832988919923082,169.21312667499296,None,169.21312667499296,None,,,,,,,,,,,,,,,,,,,,,,,,,,,,,,,,,,,,,,,,,,,,,,,,,,,,,,,,,,,,,,,,,,,,,,,2,001,2022_Nov_21_1609,Cognition2_FullCode1,2021.2.3,100.02265410431252,
/Users/shamslab/Desktop/Cognition2_FullExperimentFile/2_VisualBlock1.csv,16,2,2,1,2,1,1,11,41,53,83,95,100,112,142,154,159,171,176,3_audFile.wav,10,7,18,2,2,1,1,2,1,11,41,53,83,95,100,112,117,129,159,171,176,3_audFile.wav,10,7,0,2,,,,0,0,0,0,0,7,7,30,,,,,,,,,,,,,,,,,,,,,169.91315792000387,None,170.1031178989797,171.10314383602235,171.11319665802876,None,171.2231497890316,171.52316282398533,171.64313803898403,171.9431753740064,172.06325013597962,172.11319193698,172.23317199898884,172.53316297801211,172.6531583329779,172.70312838099198,172.82318773400038,172.87317590601742,171.21316244709305,None,172.97315062902635,None,174.27316559600877,None,174.3831138969981,174.68310604197904,174.80311350198463,175.10312306601554,175.2230947309872,175.27322587301023,175.39317679603118,175.4431529850117,175.56311125098728,175.86313661502209,175.9831301359809,176.0331420309958,174.37313364009606,None,2,0.7272675230051391,176.633173307986,None,176.633173307986,None,,,,,,,,,,,,,,,,,,,,,,,,,,,,,,,,,,,,,,,,,,,,,,,,,,,,,,,,,,,,,,,,,,,,,,,2,001,2022_Nov_21_1609,Cognition2_FullCode1,2021.2.3,100.02265410431252,
/Users/shamslab/Desktop/Cognition2_FullExperimentFile/2_VisualBlock1.csv,17,2,1,2,2,1,1,11,41,53,58,70,100,112,142,154,159,171,176,3_audFile.wav,10,6,25,2,1,1,2,1,2,11,41,53,58,70,75,87,117,129,134,146,176,3_audFile.wav,10,6,0,2,,,,0,0,0,0,0,8,8,24,,,,,,,,,,,,,,,,,,,,,177.37316693301545,None,177.56314270402072,178.56312468397664,178.5731768339756,None,178.68318808299955,178.98312905197963,179.10313961398788,179.153170495003,179.2731792720151,179.57323739601998,179.69318870198913,179.9931647219928,180.1131754469825,180.1631679040147,180.2831250570016,180.33322832500562,178.67313150607515,None,180.4331937370007,None,181.7331785869901,None,181.84314276097575,182.1432105610147,182.26323012198554,182.31329757301137,182.43317857501097,182.48321131902048,182.60318997199647,182.9031567859929,183.02318414498586,183.0731694130227,183.19316129997605,183.49318951397436,181.83315104112262,None,1,1.523272130987607,184.09319960599532,None,184.09319960599532,None,,,,,,,,,,,,,,,,,,,,,,,,,,,,,,,,,,,,,,,,,,,,,,,,,,,,,,,,,,,,,,,,,,,,,,,2,001,2022_Nov_21_1609,Cognition2_FullCode1,2021.2.3,100.02265410431252,
/Users/shamslab/Desktop/Cognition2_FullExperimentFile/2_VisualBlock1.csv,21,2,1,1,2,2,1,11,41,53,58,70,75,87,117,129,159,171,176,3_audFile.wav,10,6,19,2,1,2,1,2,1,11,41,53,58,70,100,112,117,129,159,171,176,3_audFile.wav,10,6,0,2,,,,0,0,0,0,0,9,9,23,,,,,,,,,,,,,,,,,,,,,185.63319896900794,None,185.82325696502812,186.8231682810001,186.83318923600018,None,186.94332775397925,187.24314713402418,187.36321439500898,187.41331617801916,187.5331943309866,187.5833076129784,187.70322272001067,188.0031706999871,188.12335493200226,188.42319977999432,188.543187252013,188.59316535003018,186.93315471109236,None,188.69321872200817,None,189.9931987900054,None,190.10324649099493,190.40327709697885,190.5233659829828,190.57321381301153,190.6931961629889,190.99327330698725,191.11322486400604,191.1632085129968,191.28320527699543,191.58319273003144,191.70320062001701,191.75319633097388,190.09320462011965,None,2,1.2472143020131625,192.35325991699938,None,192.35325991699938,None,,,,,,,,,,,,,,,,,,,,,,,,,,,,,,,,,,,,,,,,,,,,,,,,,,,,,,,,,,,,,,,,,,,,,,,2,001,2022_Nov_21_1609,Cognition2_FullCode1,2021.2.3,100.02265410431252,
/Users/shamslab/Desktop/Cognition2_FullExperimentFile/2_VisualBlock1.csv,16,2,2,1,2,1,1,11,41,53,83,95,100,112,142,154,159,171,176,3_audFile.wav,10,7,16,2,2,1,2,1,1,11,41,53,83,95,100,112,142,154,159,171,176,3_audFile.wav,10,7,0,1,,,,0,0,0,0,0,10,10,19,,,,,,,,,,,,,,,,,,,,,193.61327213200275,None,193.80321930599166,194.80319974798476,194.81328435300384,None,194.92322994302958,195.22323433699785,195.34322284301743,195.64319636602886,195.76320983102778,195.81328894599574,195.93340630299645,196.23322370799724,196.35326448699925,196.40319805202307,196.5232266220264,196.57324358500773,194.91326440009288,None,196.67336613801308,None,197.9732730659889,None,198.08330362202832,198.38319217198296,198.5032224879833,198.80324218102032,198.92322201101342,198.97323531197617,199.09324089600705,199.39323406701442,199.51323839998804,199.56329678697512,199.6832335650106,199.7332529160194,198.07321458507795,None,1,0.963241784949787,200.33325363899348,None,200.33325363899348,None,,,,,,,,,,,,,,,,,,,,,,,,,,,,,,,,,,,,,,,,,,,,,,,,,,,,,,,,,,,,,,,,,,,,,,,2,001,2022_Nov_21_1609,Cognition2_FullCode1,2021.2.3,100.02265410431252,
/Users/shamslab/Desktop/Cognition2_FullExperimentFile/2_VisualBlock1.csv,24,1,2,2,1,1,2,11,16,28,58,70,100,112,117,129,134,146,176,3_audFile.wav,10,5,24,1,2,2,1,1,2,11,16,28,58,70,100,112,117,129,134,146,176,3_audFile.wav,10,5,0,1,,,,0,0,0,0,0,11,11,6,,,,,,,,,,,,,,,,,,,,,201.31327174400212,None,201.50330086098984,202.50326004100498,202.5132454839768,None,202.623306820984,202.6733159639989,202.79331896698568,203.0933018969954,203.21327397902496,203.51327379402937,203.6331987589947,203.68330598901957,203.8032327099936,203.85328578698682,203.97328381397529,204.2732638560119,202.61324029311072,None,204.3732569559943,None,205.6733324759989,None,205.7832300189766,205.83329868299188,205.95327842602273,206.2532654890092,206.37331292999443,206.67328277800698,206.79327388602542,206.84323079301976,206.9632803099812,207.01329362700926,207.133237697999,207.43328993802425,205.77325512410607,None,1,2.11116089602001,208.03327129798708,None,208.03327129798708,None,,,,,,,,,,,,,,,,,,,,,,,,,,,,,,,,,,,,,,,,,,,,,,,,,,,,,,,,,,,,,,,,,,,,,,,2,001,2022_Nov_21_1609,Cognition2_FullCode1,2021.2.3,100.02265410431252,
/Users/shamslab/Desktop/Cognition2_FullExperimentFile/2_VisualBlock1.csv,28,1,2,1,1,2,2,11,16,28,58,70,75,87,92,104,134,146,176,3_audFile.wav,10,5,28,1,2,1,1,2,2,11,16,28,58,70,75,87,92,104,134,146,176,3_audFile.wav,10,5,0,1,,,,0,0,0,0,0,12,12,29,,,,,,,,,,,,,,,,,,,,,210.16325838700868,None,210.35329001402715,211.35328536800807,211.36326238297625,None,211.4732631460065,211.5232878740062,211.64325323601952,211.943348100991,212.06336487201042,212.11331212503137,212.23330994602293,212.2833401960088,212.40330890199402,212.703254010994,212.8233117610216,213.12329075398156,211.46330140612554,None,213.2232669320074,None,214.523323343019,None,214.63338025502162,214.68330402497668,214.80326778499875,215.10333073500078,215.22327082703123,215.27332750399364,215.39335227402626,215.44330784701742,215.56332635402214,215.8633175540017,215.9832898710156,216.28330389002804,214.62332051212434,None,1,1.0530905299820006,216.8833829939831,None,216.8833829939831,None,,,,,,,,,,,,,,,,,,,,,,,,,,,,,,,,,,,,,,,,,,,,,,,,,,,,,,,,,,,,,,,,,,,,,,,2,001,2022_Nov_21_1609,Cognition2_FullCode1,2021.2.3,100.02265410431252,
/Users/shamslab/Desktop/Cognition2_FullExperimentFile/2_VisualBlock1.csv,23,2,1,2,1,1,2,11,41,53,58,70,100,112,117,129,134,146,176,3_audFile.wav,10,6,17,2,1,2,2,1,1,11,41,53,58,70,100,112,142,154,159,171,176,3_audFile.wav,10,6,0,2,,,,0,0,0,0,0,13,13,15,,,,,,,,,,,,,,,,,,,,,217.9533395600156,None,218.14348060201155,219.14331497100648,219.15334317600355,None,219.2633579359972,219.56327704899013,219.68335089902394,219.73333579400787,219.85333478002576,220.15332079603104,220.2733226220007,220.32335664198035,220.4433208220289,220.49332658102503,220.61335137998685,220.91332976601552,219.25332221307326,None,221.0134204889764,None,222.31341508898186,None,222.42336507397704,222.72338416002458,222.84337075200165,222.89338035002584,223.01335257198662,223.31340786302462,223.4333264530287,223.73335610999493,223.85337012202945,223.90334427001653,224.02332496497547,224.0733532839804,222.41330131312134,None,2,0.8951161419972777,224.67333039501682,None,224.67333039501682,None,,,,,,,,,,,,,,,,,,,,,,,,,,,,,,,,,,,,,,,,,,,,,,,,,,,,,,,,,,,,,,,,,,,,,,,2,001,2022_Nov_21_1609,Cognition2_FullCode1,2021.2.3,100.02265410431252,
/Users/shamslab/Desktop/Cognition2_FullExperimentFile/2_VisualBlock1.csv,24,1,2,2,1,1,2,11,16,28,58,70,100,112,117,129,134,146,176,3_audFile.wav,10,5,20,1,2,2,1,2,1,11,16,28,58,70,100,112,117,129,159,171,176,3_audFile.wav,10,5,0,2,,,,0,0,0,0,0,14,14,21,,,,,,,,,,,,,,,,,,,,,225.58335993700894,None,225.77341557003092,226.7733663439867,226.7833457540255,None,226.8933383669937,226.94335419498384,227.0633603829774,227.36346325097838,227.48336220701458,227.78334734297823,227.90336646098876,227.95335482101655,228.07337121898308,228.12335629801964,228.24335129698738,228.54332708899165,226.8833969371044,None,228.64337087300373,None,229.9433253579773,None,230.05335487198317,230.1033492020215,230.22335770202335,230.52342464099638,230.64334798097843,230.94338278198848,231.06333436002024,231.11343189602485,231.23333605699008,231.53339493297972,231.65337075397838,231.70335672900546,230.0434146351181,None,2,0.6809943999978714,232.30343690601876,None,232.30343690601876,None,,,,,,,,,,,,,,,,,,,,,,,,,,,,,,,,,,,,,,,,,,,,,,,,,,,,,,,,,,,,,,,,,,,,,,,2,001,2022_Nov_21_1609,Cognition2_FullCode1,2021.2.3,100.02265410431252,
/Users/shamslab/Desktop/Cognition2_FullExperimentFile/2_VisualBlock1.csv,25,2,1,1,2,1,2,11,41,53,58,70,75,87,117,129,134,146,176,3_audFile.wav,10,6,23,2,1,2,1,1,2,11,41,53,58,70,100,112,117,129,134,146,176,3_audFile.wav,10,6,0,2,,,,0,0,0,0,0,15,15,2,,,,,,,,,,,,,,,,,,,,,233.00334805098828,None,233.19336681999266,234.1934233600041,234.2033629770158,None,234.31338768597925,234.61342017701827,234.7333607680048,234.78334461100167,234.90335741703166,234.95350434602005,235.0733999100048,235.37337453500368,235.49348522501532,235.54335999599425,235.663386595028,235.96338530402863,234.30339243408525,None,236.0633557200199,None,237.36339852999663,None,237.47338964499068,237.77342870098073,237.89341538399458,237.9434202159755,238.0634714590269,238.3633412779891,238.4833619580022,238.53340597701026,238.65340220101643,238.70334335701773,238.823360837996,239.123374658986,237.46339977812022,None,2,0.46903113304870203,239.72339724499034,None,239.72339724499034,None,,,,,,,,,,,,,,,,,,,,,,,,,,,,,,,,,,,,,,,,,,,,,,,,,,,,,,,,,,,,,,,,,,,,,,,2,001,2022_Nov_21_1609,Cognition2_FullCode1,2021.2.3,100.02265410431252,
/Users/shamslab/Desktop/Cognition2_FullExperimentFile/2_VisualBlock1.csv,20,1,2,2,1,2,1,11,16,28,58,70,100,112,117,129,159,171,176,3_audFile.wav,10,5,24,1,2,2,1,1,2,11,16,28,58,70,100,112,117,129,134,146,176,3_audFile.wav,10,5,0,2,,,,0,0,0,0,0,16,16,3,,,,,,,,,,,,,,,,,,,,,240.2033900800161,None,240.39346462400863,241.39340272801928,241.40344785602065,None,241.51352022303035,241.56344899901887,241.6835487249773,241.98349707300076,242.10338596400106,242.40338843601057,242.52341938501922,242.57340730598662,242.69341161602642,242.99341584701324,243.11341579898726,243.16342769400217,241.50344212411437,None,243.26339774602093,None,244.5634025390027,None,244.67342585301958,244.72342165902955,244.84343400702346,245.14337249402888,245.26346428901888,245.56335489201592,245.68350669299252,245.7334332150058,245.85352879599668,245.90349709201837,246.02348405501107,246.3234307160019,244.66347271809354,None,2,1.2449732110253535,246.9234875169932,None,246.9234875169932,None,,,,,,,,,,,,,,,,,,,,,,,,,,,,,,,,,,,,,,,,,,,,,,,,,,,,,,,,,,,,,,,,,,,,,,,2,001,2022_Nov_21_1609,Cognition2_FullCode1,2021.2.3,100.02265410431252,
/Users/shamslab/Desktop/Cognition2_FullExperimentFile/2_VisualBlock1.csv,27,1,1,2,2,1,2,11,16,28,33,45,75,87,117,129,134,146,176,3_audFile.wav,10,4,29,1,1,2,1,2,2,11,16,28,33,45,75,87,92,104,134,146,176,3_audFile.wav,10,4,0,2,,,,0,0,0,0,0,17,17,0,,,,,,,,,,,,,,,,,,,,,248.18343349400675,None,248.37347456102725,249.37342081498355,249.38341780699557,None,249.49347231298452,249.54342510801507,249.66342110099504,249.71348120097537,249.83347732399125,250.13349803502206,250.2534068750101,250.55348560702987,250.67343526199693,250.72342680598376,250.84345353301615,251.14341637498,249.4834612411214,None,251.24342667299788,None,252.54345131100854,None,252.65343973698327,252.70343395101372,252.82346958399285,252.87349306000397,252.99349451402668,253.29347822500858,253.4134461869835,253.4634515970247,253.58349601301597,253.88344830297865,254.00342763599474,254.30344160401728,252.64344114507549,None,2,0.593027308001183,254.903462569986,None,254.903462569986,None,,,,,,,,,,,,,,,,,,,,,,,,,,,,,,,,,,,,,,,,,,,,,,,,,,,,,,,,,,,,,,,,,,,,,,,2,001,2022_Nov_21_1609,Cognition2_FullCode1,2021.2.3,100.02265410431252,
/Users/shamslab/Desktop/Cognition2_FullExperimentFile/2_VisualBlock1.csv,22,1,2,1,2,2,1,11,16,28,58,70,75,87,117,129,159,171,176,3_audFile.wav,10,5,26,1,2,1,2,1,2,11,16,28,58,70,75,87,117,129,134,146,176,3_audFile.wav,10,5,0,2,,,,0,0,0,0,0,18,18,22,,,,,,,,,,,,,,,,,,,,,255.5134558849968,None,255.70355487399502,256.70344033901347,256.7135048690252,None,256.8234381090151,256.8734833819908,256.9934785760124,257.2934432810289,257.4135153000243,257.46345085301436,257.583572293981,257.88348540797597,258.0034470820101,258.30346339102834,258.4234633889864,258.4734839189914,256.8134514820995,None,258.5735035749967,None,259.87347801902797,None,259.9834860700066,260.0334833210218,260.15348964801524,260.4534994389978,260.57349259901093,260.62348595802905,260.7434766530059,261.0434727470274,261.1634715310065,261.21349279303104,261.33352579700295,261.63349525700323,259.9735004311078,None,2,1.1669302529771812,262.23353444301756,None,262.23353444301756,None,,,,,,,,,,,,,,,,,,,,,,,,,,,,,,,,,,,,,,,,,,,,,,,,,,,,,,,,,,,,,,,,,,,,,,,2,001,2022_Nov_21_1609,Cognition2_FullCode1,2021.2.3,100.02265410431252,
/Users/shamslab/Desktop/Cognition2_FullExperimentFile/2_VisualBlock1.csv,18,2,2,1,1,2,1,11,41,53,83,95,100,112,117,129,159,171,176,3_audFile.wav,10,7,16,2,2,1,2,1,1,11,41,53,83,95,100,112,142,154,159,171,176,3_audFile.wav,10,7,0,2,,,,0,0,0,0,0,19,19,28,,,,,,,,,,,,,,,,,,,,,263.4135069940239,None,263.6034555869992,264.6034883300308,264.6135122330161,None,264.7235330410185,265.02346296800533,265.14346415700857,265.44351179199293,265.56350696098525,265.61351134697907,265.7335146010155,265.78349420800805,265.9034990820219,266.2034964709892,266.3234759820043,266.37352162599564,264.71347823907854,None,266.4735298390151,None,267.7735153060057,None,267.8834897779743,268.1835024720058,268.303485566983,268.60351027100114,268.7234860690078,268.77357107098214,268.89355567703024,269.1935325480299,269.31353242200566,269.3635167219909,269.48357045202283,269.5334987419774,267.873489585123,None,1,1.1708966710139066,270.13353901100345,None,270.13353901100345,None,,,,,,,,,,,,,,,,,,,,,,,,,,,,,,,,,,,,,,,,,,,,,,,,,,,,,,,,,,,,,,,,,,,,,,,2,001,2022_Nov_21_1609,Cognition2_FullCode1,2021.2.3,100.02265410431252,
/Users/shamslab/Desktop/Cognition2_FullExperimentFile/2_VisualBlock1.csv,22,1,2,1,2,2,1,11,16,28,58,70,75,87,117,129,159,171,176,3_audFile.wav,10,5,22,1,2,1,2,2,1,11,16,28,58,70,75,87,117,129,159,171,176,3_audFile.wav,10,5,0,1,,,,0,0,0,0,0,20,20,27,,,,,,,,,,,,,,,,,,,,,271.3234981059795,None,271.5135004789918,272.513538211002,272.5235343250097,None,272.6335170409875,272.68351738899946,272.803516681015,273.1035974280094,273.2235676459968,273.27353511500405,273.3935337960138,273.6936755150091,273.8135750510264,274.1135378740146,274.2335508969845,274.28349796601105,272.62352291011484,None,274.3835473060026,None,275.6835753779742,None,275.79354376299307,275.8435410329839,275.96351994399447,276.26354942301987,276.3835381940007,276.43352771300124,276.5535902570118,276.85356805298943,276.9735440540244,277.27352531498764,277.39358278602595,277.4435490000178,275.7835999361123,None,2,1.3729304680018686,278.0435453670216,None,278.0435453670216,None,,,,,,,,,,,,,,,,,,,,,,,,,,,,,,,,,,,,,,,,,,,,,,,,,,,,,,,,,,,,,,,,,,,,,,,2,001,2022_Nov_21_1609,Cognition2_FullCode1,2021.2.3,100.02265410431252,
/Users/shamslab/Desktop/Cognition2_FullExperimentFile/2_VisualBlock1.csv,21,2,1,1,2,2,1,11,41,53,58,70,75,87,117,129,159,171,176,3_audFile.wav,10,6,21,2,1,1,2,2,1,11,41,53,58,70,75,87,117,129,159,171,176,3_audFile.wav,10,6,0,1,,,,0,0,0,0,0,21,21,25,,,,,,,,,,,,,,,,,,,,,279.43365694303066,None,279.62355104798917,280.62354038801277,280.6336178550264,None,280.7436440580059,281.0435561949853,281.1635574660031,281.2136570850271,281.3336078519933,281.3835505740135,281.50353744399035,281.8035431149765,281.9235376390279,282.2235530629987,282.3435530079878,282.3936400230159,280.73355178610655,None,282.49351811100496,None,283.7935946920188,None,283.9035501910257,284.20354762201896,284.3235371260089,284.3736036309856,284.4936425469932,284.54365218197927,284.6635562420124,284.96355523797683,285.0835532450001,285.3835560110165,285.50358356599463,285.55360945500433,283.89359404711286,None,1,1.3108678620192222,286.1535653669853,None,286.1535653669853,None,,,,,,,,,,,,,,,,,,,,,,,,,,,,,,,,,,,,,,,,,,,,,,,,,,,,,,,,,,,,,,,,,,,,,,,2,001,2022_Nov_21_1609,Cognition2_FullCode1,2021.2.3,100.02265410431252,
/Users/shamslab/Desktop/Cognition2_FullExperimentFile/2_VisualBlock1.csv,23,2,1,2,1,1,2,11,41,53,58,70,100,112,117,129,134,146,176,3_audFile.wav,10,6,19,2,1,2,1,2,1,11,41,53,58,70,100,112,117,129,159,171,176,3_audFile.wav,10,6,0,2,,,,0,0,0,0,0,22,22,4,,,,,,,,,,,,,,,,,,,,,287.4835760309943,None,287.6735792059917,288.6736118919798,288.68360175401904,None,288.7935503629851,289.0935384010081,289.21363292302703,289.2635716709774,289.38358038599836,289.68356069899164,289.80359840299934,289.8536029190291,289.97361111297505,290.0236437339918,290.1436020489782,290.44357028900413,288.7835871091229,None,290.5435986390221,None,291.8435812690295,None,291.95362101501087,292.2536935899989,292.3736305410275,292.4235908440314,292.54362423397833,292.8436042420217,292.96361962502124,293.0136344319908,293.1336181630031,293.4336419629981,293.5536410409841,293.6035656799795,291.94366141810315,None,2,0.7648430370027199,294.2035895389854,None,294.2035895389854,None,,,,,,,,,,,,,,,,,,,,,,,,,,,,,,,,,,,,,,,,,,,,,,,,,,,,,,,,,,,,,,,,,,,,,,,2,001,2022_Nov_21_1609,Cognition2_FullCode1,2021.2.3,100.02265410431252,
/Users/shamslab/Desktop/Cognition2_FullExperimentFile/2_VisualBlock1.csv,17,2,1,2,2,1,1,11,41,53,58,70,100,112,142,154,159,171,176,3_audFile.wav,10,6,17,2,1,2,2,1,1,11,41,53,58,70,100,112,142,154,159,171,176,3_audFile.wav,10,6,0,1,,,,0,0,0,0,0,23,23,11,,,,,,,,,,,,,,,,,,,,,294.98360909102485,None,295.173643453978,296.1736402090173,296.183600777993,None,296.2936937910272,296.5936423820094,296.7136426520301,296.76363520300947,296.88366281200433,297.1836646539741,297.30364844202995,297.6036012370023,297.7236984469928,297.7736329740146,297.89360422699247,297.94358995201765,296.2836506210733,None,298.0435899120057,None,299.343702276994,None,299.4536523229908,299.75376390700694,299.8736609069747,299.9236092020292,300.0436010810081,300.34362690802664,300.4636805480113,300.7636795709841,300.88370846700855,300.9336343710311,301.0536550009856,301.10369492700556,299.44366822607117,None,1,0.3367932609980926,301.7036563800066,None,301.7036563800066,None,,,,,,,,,,,,,,,,,,,,,,,,,,,,,,,,,,,,,,,,,,,,,,,,,,,,,,,,,,,,,,,,,,,,,,,2,001,2022_Nov_21_1609,Cognition2_FullCode1,2021.2.3,100.02265410431252,
/Users/shamslab/Desktop/Cognition2_FullExperimentFile/2_VisualBlock1.csv,25,2,1,1,2,1,2,11,41,53,58,70,75,87,117,129,134,146,176,3_audFile.wav,10,6,25,2,1,1,2,1,2,11,41,53,58,70,75,87,117,129,134,146,176,3_audFile.wav,10,6,0,1,,,,0,0,0,0,0,24,24,1,,,,,,,,,,,,,,,,,,,,,302.053647601977,None,302.24367524601985,303.24360005703056,303.2536679059849,None,303.3636563090258,303.66366079699947,303.7836502700229,303.8336447170004,303.9536730449763,304.0036469110055,304.12365351698827,304.4236711990088,304.5436805500067,304.59366052102996,304.7136790159857,305.01371949497843,303.35368569608545,None,305.1137400409789,None,306.41371449799044,None,306.52361834200565,306.82365785498405,306.94363895698916,306.9936796479742,307.1136327580316,307.16366453899536,307.28363599901786,307.58370045002084,307.70366037701024,307.7537048209924,307.8737451240304,308.17367122799624,306.5136615970987,None,1,1.0107072929968126,308.7737263040035,None,308.7737263040035,None,,,,,,,,,,,,,,,,,,,,,,,,,,,,,,,,,,,,,,,,,,,,,,,,,,,,,,,,,,,,,,,,,,,,,,,2,001,2022_Nov_21_1609,Cognition2_FullCode1,2021.2.3,100.02265410431252,
/Users/shamslab/Desktop/Cognition2_FullExperimentFile/2_VisualBlock1.csv,26,1,2,1,2,1,2,11,16,28,58,70,75,87,117,129,134,146,176,3_audFile.wav,10,5,26,1,2,1,2,1,2,11,16,28,58,70,75,87,117,129,134,146,176,3_audFile.wav,10,5,0,1,,,,0,0,0,0,0,25,25,26,,,,,,,,,,,,,,,,,,,,,309.8036932059913,None,309.99368880002294,310.9936931760167,311.0036511369981,None,311.1136864689761,311.163770766987,311.2836437249789,311.5837556900224,311.70369695301633,311.75369823002256,311.8736853270093,312.17375592701137,312.2936835529981,312.34371147002093,312.4636645090068,312.76369748299476,311.1036903220811,None,312.86380508798175,None,314.16368034499465,None,314.2736949630198,314.3237502659904,314.44369325897424,314.74370193702634,314.86366387602175,314.9137039160123,315.0337121490156,315.3337118860218,315.45371561299544,315.50370084500173,315.62372422299813,315.92369427601807,314.26371019909857,None,1,0.3567255769739859,316.52371720498195,None,316.52371720498195,None,,,,,,,,,,,,,,,,,,,,,,,,,,,,,,,,,,,,,,,,,,,,,,,,,,,,,,,,,,,,,,,,,,,,,,,2,001,2022_Nov_21_1609,Cognition2_FullCode1,2021.2.3,100.02265410431252,
/Users/shamslab/Desktop/Cognition2_FullExperimentFile/2_VisualBlock1.csv,27,1,1,2,2,1,2,11,16,28,33,45,75,87,117,129,134,146,176,3_audFile.wav,10,4,27,1,1,2,2,1,2,11,16,28,33,45,75,87,117,129,134,146,176,3_audFile.wav,10,4,0,1,,,,0,0,0,0,0,26,26,10,,,,,,,,,,,,,,,,,,,,,316.8937254829798,None,317.08367568900576,318.08379050699295,318.093711914029,None,318.2037092159735,318.25387188600143,318.3737030479824,318.4236770180287,318.5437077259994,318.84370082698297,318.9636991380248,319.26370824698824,319.3837058750214,319.43376084201736,319.55374931602273,319.85373003198765,318.1936676570913,None,319.95381657301914,None,321.25374132802244,None,321.3637069860124,321.41372769797454,321.5337209259742,321.5837053650175,321.70369973097695,322.0038246299955,322.1236867100233,322.42372107697884,322.5437256830046,322.593823520001,322.7137282739859,323.0138403819874,321.3536997550982,None,2,0.41070728097110987,323.6137289510225,None,323.6137289510225,None,,,,,,,,,,,,,,,,,,,,,,,,,,,,,,,,,,,,,,,,,,,,,,,,,,,,,,,,,,,,,,,,,,,,,,,2,001,2022_Nov_21_1609,Cognition2_FullCode1,2021.2.3,100.02265410431252,
/Users/shamslab/Desktop/Cognition2_FullExperimentFile/2_VisualBlock1.csv,23,2,1,2,1,1,2,11,41,53,58,70,100,112,117,129,134,146,176,3_audFile.wav,10,6,23,2,1,2,1,1,2,11,41,53,58,70,100,112,117,129,134,146,176,3_audFile.wav,10,6,0,1,,,,0,0,0,0,0,27,27,16,,,,,,,,,,,,,,,,,,,,,324.0437251330004,None,324.2337277600309,325.23376574000577,325.2437457750202,None,325.3537615649984,325.653719000984,325.7738657349837,325.82372604100965,325.94381638400955,326.24372862197924,326.3637455889839,326.41374516201904,326.5337605649838,326.58368799299933,326.70374529302353,327.003714926017,325.3437797240913,None,327.1037586759776,None,328.40371019998565,None,328.5137608689838,328.81377874099417,328.933832499024,328.9837351620081,329.1037624179735,329.40377060102765,329.52372937399196,329.57374140497996,329.69382800901076,329.74378678400535,329.8637589249993,330.1637329449877,328.50382393511245,None,2,1.5727077249903232,330.76377550000325,None,330.76377550000325,None,,,,,,,,,,,,,,,,,,,,,,,,,,,,,,,,,,,,,,,,,,,,,,,,,,,,,,,,,,,,,,,,,,,,,,,2,001,2022_Nov_21_1609,Cognition2_FullCode1,2021.2.3,100.02265410431252,
/Users/shamslab/Desktop/Cognition2_FullExperimentFile/2_VisualBlock1.csv,18,2,2,1,1,2,1,11,41,53,83,95,100,112,117,129,159,171,176,3_audFile.wav,10,7,18,2,2,1,1,2,1,11,41,53,83,95,100,112,117,129,159,171,176,3_audFile.wav,10,7,0,1,,,,0,0,0,0,0,28,28,14,,,,,,,,,,,,,,,,,,,,,332.3537773329881,None,332.5437583210296,333.5437525419984,333.5538158220006,None,333.6637029420235,333.96381737297634,334.0838497779914,334.38378898700466,334.50371045200154,334.5537851980189,334.6737734490307,334.7237468200037,334.8437757270294,335.14375484001357,335.26371203700546,335.31375427002786,333.65375881810905,None,335.41382274898933,None,336.7138270820142,None,336.82381812197855,337.1238805089961,337.24376572598703,337.5437866069842,337.66385040298337,337.71378632698907,337.8338282270124,337.8838665059884,338.00378557899967,338.30375315301353,338.42379372997675,338.47383535897825,336.8137780181132,None,1,0.5186452560010366,339.0737780780182,None,339.0737780780182,None,,,,,,,,,,,,,,,,,,,,,,,,,,,,,,,,,,,,,,,,,,,,,,,,,,,,,,,,,,,,,,,,,,,,,,,2,001,2022_Nov_21_1609,Cognition2_FullCode1,2021.2.3,100.02265410431252,
/Users/shamslab/Desktop/Cognition2_FullExperimentFile/2_VisualBlock1.csv,20,1,2,2,1,2,1,11,16,28,58,70,100,112,117,129,159,171,176,3_audFile.wav,10,5,20,1,2,2,1,2,1,11,16,28,58,70,100,112,117,129,159,171,176,3_audFile.wav,10,5,0,1,,,,0,0,0,0,0,29,29,20,,,,,,,,,,,,,,,,,,,,,339.6038519599824,None,339.7938700480154,340.79377778002527,340.80387430102564,None,340.91378440201515,340.9638275600155,341.08377559197834,341.3838010680047,341.5038335919962,341.8037764200126,341.92382512800395,341.9738293950213,342.0938525790116,342.3938461350044,342.51385478599695,342.5638088689884,340.9038210050785,None,342.6637992680189,None,343.9638038970297,None,344.07382554898504,344.12384425400523,344.2437876799959,344.5438910389785,344.6637822680059,344.9638391690096,345.0838377100299,345.133817230002,345.2538579640095,345.5538463470293,345.67386646399973,345.72381027101073,344.0638989470899,None,2,1.0765684039797634,346.3238815679797,None,346.3238815679797,None,,,,,,,,,,,,,,,,,,,,,,,,,,,,,,,,,,,,,,,,,,,,,,,,,,,,,,,,,,,,,,,,,,,,,,,2,001,2022_Nov_21_1609,Cognition2_FullCode1,2021.2.3,100.02265410431252,
/Users/shamslab/Desktop/Cognition2_FullExperimentFile/2_VisualBlock1.csv,22,1,2,1,2,2,1,11,16,28,58,70,75,87,117,129,159,171,176,3_audFile.wav,10,5,20,1,2,2,1,2,1,11,16,28,58,70,100,112,117,129,159,171,176,3_audFile.wav,10,5,0,2,,,,0,0,0,0,0,30,30,8,,,,,,,,,,,,,,,,,,,,,347.4138885589782,None,347.6038551760139,348.6038160379976,348.61394441802986,None,348.7238286859938,348.7739059550222,348.8938614029903,349.1938255589921,349.3138604250271,349.3637765989988,349.48388628597604,349.7838104930124,349.9038887270144,350.20384378702147,350.32381562597584,350.37394612602657,348.71382147911936,None,350.47384623700054,None,351.7738573310198,None,351.88381207198836,351.93392150697764,352.05385180399753,352.3538533929968,352.4738412669976,352.77384197799256,352.8938672930235,352.94386227900395,353.06382871902315,353.363843914005,353.4838286230224,353.5338604890276,351.87389045307646,None,1,1.3945528399781324,354.13387368503027,None,354.13387368503027,None,,,,,,,,,,,,,,,,,,,,,,,,,,,,,,,,,,,,,,,,,,,,,,,,,,,,,,,,,,,,,,,,,,,,,,,2,001,2022_Nov_21_1609,Cognition2_FullCode1,2021.2.3,100.02265410431252,
/Users/shamslab/Desktop/Cognition2_FullExperimentFile/2_VisualBlock1.csv,26,1,2,1,2,1,2,11,16,28,58,70,75,87,117,129,134,146,176,3_audFile.wav,10,5,28,1,2,1,1,2,2,11,16,28,58,70,75,87,92,104,134,146,176,3_audFile.wav,10,5,0,2,,,,0,0,0,0,0,31,31,18,,,,,,,,,,,,,,,,,,,,,355.543873823015,None,355.73389511503046,356.73387037502835,356.7438624810311,None,356.8538922009757,356.90385551098734,357.02391469298163,357.3238493829849,357.4438402520027,357.4938684920198,357.61387258401373,357.91386672703084,358.0338763819891,358.08389085001545,358.20384899299825,358.5038611399941,356.84388655109797,None,358.6038681709906,None,359.9038529699901,None,360.01388745597797,360.06392484199023,360.1838345240103,360.4839347520028,360.6038789509912,360.65395668300334,360.77387825300684,360.82386844197754,360.94385965302354,361.243870033999,361.36387123097666,361.66397195099853,360.0039603250916,None,2,1.200448920018971,362.26398293999955,None,362.26398293999955,None,,,,,,,,,,,,,,,,,,,,,,,,,,,,,,,,,,,,,,,,,,,,,,,,,,,,,,,,,,,,,,,,,,,,,,,2,001,2022_Nov_21_1609,Cognition2_FullCode1,2021.2.3,100.02265410431252,
/Users/shamslab/Desktop/Cognition2_FullExperimentFile/2_VisualBlock1.csv,,,,,,,,,,,,,,,,,,,,,,,,,,,,,,,,,,,,,,,,,,,,,,,,,,0,0,0,0,,,,,,,,,,,,,,,,,,,,,,,,,,,,,,,,,,,,,,,,,,,,,,,,,,,,,,,,,,,,,,,,,,,,,363.493859411974,None,363.493859411974,None,,,,,,,,,,,,,,,,,,,,,,,,,,,,,,,,,,,,,,,,,,,,,,,,,,,,,,,,,,,,,,,,,,,2,001,2022_Nov_21_1609,Cognition2_FullCode1,2021.2.3,100.02265410431252,
/Users/shamslab/Desktop/Cognition2_FullExperimentFile/2_AudioBlock1.csv,4,1,2,2,1,2,2,11,16,28,58,70,100,112,117,129,159,171,201,5_audFile.wav,10,1,12,1,2,1,2,2,1,11,16,28,58,70,75,87,117,129,159,171,176,13_audFile.wav,10,1,1,2,,,,0,1,1,1,0,0,0,24,,,,,,,,,,,,,,,423.5941096969764,None,space,41.73828418494668,423.6941111829947,None,465.484316941991,None,465.6643442630302,None,466.69430610502604,468.5542903940077,466.80431217199657,466.8542768729967,466.9742917470285,467.2742733199848,467.39433754602214,467.69427980697947,467.8143858810072,467.8643126550014,467.98428942402825,468.28435309400083,468.4043267960078,None,466.7943085540901,None,468.70431753399316,None,470.03440058301203,None,470.1442764609819,470.1943829450174,470.3143236020114,470.614345968992,470.73430357000325,470.7842769449926,470.9042723120074,471.2043307389831,471.32427153899334,471.6243209160166,471.7443904100219,471.7943286760128,470.1342714630882,None,1,1.0621062300051562,472.3943388980115,None,472.3943388980115,None,,,,,,,,,,,,,,,,,,,,,,,,,,,,,,,,,,,,,,,,,,,,,,,,,,,,,,,,,,,,,,,,,,,,,,,2,001,2022_Nov_21_1609,Cognition2_FullCode1,2021.2.3,100.02265410431252,
/Users/shamslab/Desktop/Cognition2_FullExperimentFile/2_AudioBlock1.csv,6,2,2,1,2,1,1,11,41,53,83,95,100,112,142,154,159,171,176,7_audFile.wav,10,3,6,2,2,1,2,1,1,11,41,53,83,95,100,112,142,154,159,171,176,7_audFile.wav,10,3,1,1,,,,0,1,1,1,0,1,1,25,,,,,,,,,,,,,,,,,,,,,473.47439730301267,None,473.664341124997,474.66433085501194,474.68433436198393,None,474.79432909499155,475.09432666999055,475.21431930799736,475.51435709098587,475.63439023902174,475.6843506320147,475.80433908698615,476.1043269109796,476.22439805901377,476.27429928199854,476.39437829202507,476.4443680969998,474.78437642910285,None,476.54438154702075,None,477.84434757300187,None,477.95430545700947,478.2543085879879,478.3743136789999,478.6744077199837,478.794359320018,478.84437394101406,478.964397919015,479.2643459099927,479.3843822660274,479.4343683079933,479.55436334898695,479.60432744701393,477.94433598208707,None,2,6.556104061950464,480.2043513560202,None,480.2043513560202,None,,,,,,,,,,,,,,,,,,,,,,,,,,,,,,,,,,,,,,,,,,,,,,,,,,,,,,,,,,,,,,,,,,,,,,,2,001,2022_Nov_21_1609,Cognition2_FullCode1,2021.2.3,100.02265410431252,
/Users/shamslab/Desktop/Cognition2_FullExperimentFile/2_AudioBlock1.csv,5,1,2,1,2,2,2,11,16,28,58,70,75,87,117,129,159,171,201,6_audFile.wav,10,1,5,1,2,1,2,2,2,11,16,28,58,70,75,87,117,129,159,171,201,6_audFile.wav,10,1,1,1,,,,0,1,1,1,0,2,2,28,,,,,,,,,,,,,,,,,,,,,486.7743631579797,None,486.96438114799093,487.9644018380204,487.9843410360045,489.84437559597427,488.0945806889795,488.14455771201756,488.26438388897805,488.56443818402477,488.6843596260296,488.7343995869742,488.8544026900199,489.1544859880232,489.27439677499933,489.5743832869921,489.6944033909822,None,488.08437993907137,None,489.9943839000189,None,491.2944263329846,None,491.4043745539966,491.454455514031,491.57439039001474,491.8744120139745,491.9944107159972,492.04452213901095,492.16439765901305,492.4643920700182,492.58439918997465,492.88435855001444,493.00438605301315,493.30442186800065,491.39445423608413,None,2,0.6661084130173549,493.65438808401814,None,493.65438808401814,None,,,,,,,,,,,,,,,,,,,,,,,,,,,,,,,,,,,,,,,,,,,,,,,,,,,,,,,,,,,,,,,,,,,,,,,2,001,2022_Nov_21_1609,Cognition2_FullCode1,2021.2.3,100.02265410431252,
/Users/shamslab/Desktop/Cognition2_FullExperimentFile/2_AudioBlock1.csv,2,1,2,2,2,1,2,11,16,28,58,70,100,112,142,154,159,171,201,3_audFile.wav,10,1,4,1,2,2,1,2,2,11,16,28,58,70,100,112,117,129,159,171,201,5_audFile.wav,10,1,1,2,,,,0,1,1,1,0,3,3,30,,,,,,,,,,,,,,,,,,,,,494.3344442350208,None,494.52437719202135,495.5244008569862,495.5344469069969,497.3943909180234,495.64441300398903,495.6943926549866,495.8144853989943,496.11442299501505,496.23441086598905,496.53439300402533,496.6544183429796,496.9544292219798,497.07442094699945,497.12446620699484,497.24440019298345,None,495.6344162420719,None,497.54436697799247,None,498.84441336098826,None,498.9544219740201,499.0043971569976,499.1243905160227,499.42445277399383,499.5444063830073,499.8444522609934,499.96440400200663,500.0144564610091,500.13447354198433,500.4344984519994,500.5544325860101,500.8544327470008,498.94443530007266,None,1,0.5800241780234501,501.2044091349817,None,501.2044091349817,None,,,,,,,,,,,,,,,,,,,,,,,,,,,,,,,,,,,,,,,,,,,,,,,,,,,,,,,,,,,,,,,,,,,,,,,2,001,2022_Nov_21_1609,Cognition2_FullCode1,2021.2.3,100.02265410431252,
/Users/shamslab/Desktop/Cognition2_FullExperimentFile/2_AudioBlock1.csv,7,2,1,2,2,1,1,11,41,53,58,70,100,112,142,154,159,171,176,8_audFile.wav,10,2,14,2,1,1,2,1,2,11,41,53,58,70,75,87,117,129,134,146,176,15_audFile.wav,10,2,1,2,,,,0,1,1,1,0,4,4,19,,,,,,,,,,,,,,,,,,,,,501.7944793970091,None,501.98444183100946,502.9843648740207,503.0345134519739,None,503.1444234729861,503.4444601900177,503.564434393018,503.61448197299615,503.7344308400061,504.03442774002906,504.15446187200723,504.45443599199643,504.574435558985,504.6244179930072,504.74443086300744,504.7944480230217,503.1344132620725,None,504.89449128397973,None,506.214458759001,None,506.32443214103114,506.62449835200096,506.74443015101133,506.7945054009906,506.9145038900315,506.96444652503124,507.08443010097835,507.38442827400286,507.5044570930186,507.5544884339906,507.67450300999917,507.9744793829741,506.3145371811115,None,1,0.4819688299903646,508.5744296089979,None,508.5744296089979,None,,,,,,,,,,,,,,,,,,,,,,,,,,,,,,,,,,,,,,,,,,,,,,,,,,,,,,,,,,,,,,,,,,,,,,,2,001,2022_Nov_21_1609,Cognition2_FullCode1,2021.2.3,100.02265410431252,
/Users/shamslab/Desktop/Cognition2_FullExperimentFile/2_AudioBlock1.csv,5,1,2,1,2,2,2,11,16,28,58,70,75,87,117,129,159,171,201,6_audFile.wav,10,1,10,1,2,2,1,2,1,11,16,28,58,70,100,112,117,129,159,171,176,11_audFile.wav,10,1,1,2,,,,0,1,1,1,0,5,5,13,,,,,,,,,,,,,,,,,,,,,509.07447761000367,None,509.2644482019823,510.26450968999416,510.27448369102785,512.1344900929835,510.3845236339839,510.43451424501836,510.5545325590065,510.85448469099356,510.9745143530308,511.0244989710045,511.14446407201467,511.44445174298016,511.56445052899653,511.8644624790177,511.98444569302956,None,510.3744464290794,None,512.284462097974,None,513.5944835830014,None,513.7044348180061,513.7544778740266,513.874528573011,514.1744961810182,514.2944654379971,514.594531728013,514.7145154739846,514.7645137709915,514.8845117900055,515.1845011819969,515.3044872210012,515.3545166429831,513.6945021681022,None,1,0.365933119028341,515.9544975259923,None,515.9544975259923,None,,,,,,,,,,,,,,,,,,,,,,,,,,,,,,,,,,,,,,,,,,,,,,,,,,,,,,,,,,,,,,,,,,,,,,,2,001,2022_Nov_21_1609,Cognition2_FullCode1,2021.2.3,100.02265410431252,
/Users/shamslab/Desktop/Cognition2_FullExperimentFile/2_AudioBlock1.csv,7,2,1,2,2,1,1,11,41,53,58,70,100,112,142,154,159,171,176,8_audFile.wav,10,2,7,2,1,2,2,1,1,11,41,53,58,70,100,112,142,154,159,171,176,8_audFile.wav,10,2,1,1,,,,0,1,1,1,0,6,6,11,,,,,,,,,,,,,,,,,,,,,516.334489691013,None,516.5245068559889,517.524474470003,517.5345189599902,None,517.6445572589873,517.9445107029751,518.0645678510191,518.1146670510061,518.2344905959908,518.534527108015,518.6545153610059,518.9545324090286,519.0744620690239,519.1244947380037,519.2445772810024,519.2945081550279,517.6344982990995,None,519.3945107299951,None,520.6945094250259,None,520.8045509760268,521.1045634769835,521.224592330982,521.2744967620238,521.3945784189855,521.6945162250195,521.8144842219772,522.1145399960224,522.2345450210269,522.2845860340167,522.4045689959894,522.4545257990249,520.7945315871038,None,1,0.47391945199342445,523.0545038009877,None,523.0545038009877,None,,,,,,,,,,,,,,,,,,,,,,,,,,,,,,,,,,,,,,,,,,,,,,,,,,,,,,,,,,,,,,,,,,,,,,,2,001,2022_Nov_21_1609,Cognition2_FullCode1,2021.2.3,100.02265410431252,
/Users/shamslab/Desktop/Cognition2_FullExperimentFile/2_AudioBlock1.csv,13,2,1,2,1,1,2,11,41,53,58,70,100,112,117,129,134,146,176,14_audFile.wav,10,2,7,2,1,2,2,1,1,11,41,53,58,70,100,112,142,154,159,171,176,8_audFile.wav,10,2,1,2,,,,0,1,1,1,0,7,7,21,,,,,,,,,,,,,,,,,,,,,523.5445213899948,None,523.7345246589975,524.7345316950232,524.7745489979861,None,524.8845193550223,525.1845199890085,525.3045018310077,525.3546098159859,525.4745218380122,525.7746602940024,525.8945342560182,525.9445281280205,526.0645126380259,526.1145483970176,526.2345802349737,526.5345353789744,524.8745148840826,None,526.6345218999777,None,527.9345817749854,None,528.0445141440141,528.3445388050168,528.4645431870013,528.5145485899993,528.634713758016,528.9345459780307,529.0546709899791,529.3545574130258,529.474540552008,529.5245242880192,529.6445438269875,529.694545129023,528.0345172390807,None,1,0.8179108669864945,530.2945330750081,None,530.2945330750081,None,,,,,,,,,,,,,,,,,,,,,,,,,,,,,,,,,,,,,,,,,,,,,,,,,,,,,,,,,,,,,,,,,,,,,,,2,001,2022_Nov_21_1609,Cognition2_FullCode1,2021.2.3,100.02265410431252,
/Users/shamslab/Desktop/Cognition2_FullExperimentFile/2_AudioBlock1.csv,9,2,1,2,1,2,1,11,41,53,58,70,100,112,117,129,159,171,176,10_audFile.wav,10,2,9,2,1,2,1,2,1,11,41,53,58,70,100,112,117,129,159,171,176,10_audFile.wav,10,2,1,1,,,,0,1,1,1,0,8,8,5,,,,,,,,,,,,,,,,,,,,,531.1245559169911,None,531.3145249820082,532.3145822560182,532.3645758990315,None,532.4745359459775,532.7745461150189,532.8945990049979,532.9445342579857,533.0645618350245,533.3645330360159,533.4845379950129,533.534615644021,533.654608566023,533.9545541909756,534.0745331210201,534.124567936,532.464557272091,None,534.2245347920107,None,535.5245738640078,None,535.6346025569947,535.9345801750314,536.0545723279938,536.1046357729938,536.2245462380233,536.5245630720165,536.6446425850154,536.6946840350283,536.8145714420243,537.1145902170101,537.2346241240157,537.2845191559754,535.6245663121226,None,2,1.1399815260083415,537.884540581028,None,537.884540581028,None,,,,,,,,,,,,,,,,,,,,,,,,,,,,,,,,,,,,,,,,,,,,,,,,,,,,,,,,,,,,,,,,,,,,,,,2,001,2022_Nov_21_1609,Cognition2_FullCode1,2021.2.3,100.02265410431252,
/Users/shamslab/Desktop/Cognition2_FullExperimentFile/2_AudioBlock1.csv,3,2,1,2,1,2,2,11,41,53,58,70,100,112,117,129,159,171,201,4_audFile.wav,10,2,7,2,1,2,2,1,1,11,41,53,58,70,100,112,142,154,159,171,176,8_audFile.wav,10,2,1,2,,,,0,1,1,1,0,9,9,12,,,,,,,,,,,,,,,,,,,,,539.0345930369804,None,539.2245683629881,540.2245535919792,540.2746084749815,542.1347067789757,540.3845651029842,540.6845523550292,540.8045499129803,540.8546565640136,540.9745829299791,541.2745835150126,541.3946246330161,541.4445869560004,541.5645571399946,541.8646127390093,541.9846425440046,None,540.3745755521231,None,542.2845739339828,None,543.5845781230018,None,543.6946301999851,543.9946110949968,544.1146274019848,544.1646953599993,544.2845683490159,544.5845705840038,544.7047200709931,545.0045772580197,545.1246141800075,545.1746113299741,545.2945900639752,545.3447112140129,543.6846089190803,None,1,1.5278564739855938,545.9445796840009,None,545.9445796840009,None,,,,,,,,,,,,,,,,,,,,,,,,,,,,,,,,,,,,,,,,,,,,,,,,,,,,,,,,,,,,,,,,,,,,,,,2,001,2022_Nov_21_1609,Cognition2_FullCode1,2021.2.3,100.02265410431252,
/Users/shamslab/Desktop/Cognition2_FullExperimentFile/2_AudioBlock1.csv,14,2,1,1,2,1,2,11,41,53,58,70,75,87,117,129,134,146,176,15_audFile.wav,10,2,7,2,1,2,2,1,1,11,41,53,58,70,100,112,142,154,159,171,176,8_audFile.wav,10,2,1,2,,,,0,1,1,1,0,10,10,0,,,,,,,,,,,,,,,,,,,,,547.4845920790103,None,547.6746289139846,548.6746675369795,548.6846427380224,None,548.7946294029825,549.0946328780265,549.2146280640154,549.2646928270115,549.3846040830249,549.4346044529811,549.5546065340168,549.8547360100201,549.9747083929833,550.0247399330256,550.1445824709954,550.4446327940095,548.7846469121287,None,550.5445968899876,None,551.8446230909904,None,551.9546384370187,552.2547466160031,552.3746288769762,552.4246276399936,552.54465806199,552.844601380988,552.9645847689826,553.2645975699998,553.3845970199909,553.4346216070116,553.5546974220197,553.6046035279869,551.9446545451065,None,2,3.2037567389779724,554.2046744659892,None,554.2046744659892,None,,,,,,,,,,,,,,,,,,,,,,,,,,,,,,,,,,,,,,,,,,,,,,,,,,,,,,,,,,,,,,,,,,,,,,,2,001,2022_Nov_21_1609,Cognition2_FullCode1,2021.2.3,100.02265410431252,
/Users/shamslab/Desktop/Cognition2_FullExperimentFile/2_AudioBlock1.csv,11,2,1,1,2,2,1,11,41,53,58,70,75,87,117,129,159,171,176,12_audFile.wav,10,2,1,2,1,2,2,1,2,11,41,53,58,70,100,112,142,154,159,171,201,2_audFile.wav,10,2,1,2,,,,0,1,1,1,0,11,11,20,,,,,,,,,,,,,,,,,,,,,557.4247241200064,None,557.6146446890198,558.6146201509982,558.6646789510269,None,558.7746435570298,559.074709254026,559.1947238480207,559.2447089260095,559.3646378159756,559.414790417999,559.5346737399814,559.8347133860225,559.9546781940153,560.2546622540103,560.3746751180151,560.424626291031,558.7647332560737,None,560.524654984998,None,561.8247067779885,None,561.9346704999916,562.2347147479886,562.3546332429978,562.4046378200292,562.5246591229807,562.8246557650273,562.9446708530304,563.2446562629775,563.3646884000045,563.4147240149905,563.5346379000111,563.8348167450167,561.9246906141052,None,1,0.5277755690040067,564.184669055976,None,564.184669055976,None,,,,,,,,,,,,,,,,,,,,,,,,,,,,,,,,,,,,,,,,,,,,,,,,,,,,,,,,,,,,,,,,,,,,,,,2,001,2022_Nov_21_1609,Cognition2_FullCode1,2021.2.3,100.02265410431252,
/Users/shamslab/Desktop/Cognition2_FullExperimentFile/2_AudioBlock1.csv,0,2,2,1,2,1,2,11,41,53,83,95,100,112,142,154,159,171,201,1_audFile.wav,10,3,6,2,2,1,2,1,1,11,41,53,83,95,100,112,142,154,159,171,176,7_audFile.wav,10,3,1,2,,,,0,1,1,1,0,12,12,2,,,,,,,,,,,,,,,,,,,,,564.7247045260156,None,564.9146948439884,565.9146763890167,565.9746913749841,567.8346707579913,566.0846750959754,566.3848214640166,566.5048057269887,566.8047794789891,566.9246926850174,566.9747583999997,567.0947178379865,567.3947026379756,567.514711691998,567.5647000530153,567.6847269340069,None,566.0747000260744,None,567.9847186550032,None,569.2847026379895,None,569.3946828059852,569.694836825016,569.8146817469969,570.1146592629957,570.234793325013,570.2848116760142,570.4047277069767,570.7046829020255,570.8247128580115,570.8746657139855,570.9946904879762,571.0447326209978,569.3846851211274,None,1,0.5477380189695396,571.6447082239902,None,571.6447082239902,None,,,,,,,,,,,,,,,,,,,,,,,,,,,,,,,,,,,,,,,,,,,,,,,,,,,,,,,,,,,,,,,,,,,,,,,2,001,2022_Nov_21_1609,Cognition2_FullCode1,2021.2.3,100.02265410431252,
/Users/shamslab/Desktop/Cognition2_FullExperimentFile/2_AudioBlock1.csv,15,1,2,1,2,1,2,11,16,28,58,70,75,87,117,129,134,146,176,16_audFile.wav,10,1,15,1,2,1,2,1,2,11,16,28,58,70,75,87,117,129,134,146,176,16_audFile.wav,10,1,1,1,,,,0,1,1,1,0,13,13,31,,,,,,,,,,,,,,,,,,,,,572.2047431620304,None,572.3947309469804,573.3947057329933,573.4147256350261,None,573.524693785992,573.5747229810222,573.6947377609904,573.9947486969759,574.1148206220241,574.1647011919995,574.2847807109938,574.5846862029866,574.7046906069736,574.7547491570003,574.8747276309878,575.1747210969916,573.5147096751025,None,575.2747174149845,None,576.5747645589872,None,576.6847260000068,576.7347349119955,576.8548082889756,577.1547491300153,577.2747498389799,577.3247146229842,577.4447259290027,577.7448264040286,577.8646805420285,577.9147402900271,578.0347387520014,578.3348050700151,576.6748483711272,None,1,0.737598221981898,578.9348275340162,None,578.9348275340162,None,,,,,,,,,,,,,,,,,,,,,,,,,,,,,,,,,,,,,,,,,,,,,,,,,,,,,,,,,,,,,,,,,,,,,,,2,001,2022_Nov_21_1609,Cognition2_FullCode1,2021.2.3,100.02265410431252,
/Users/shamslab/Desktop/Cognition2_FullExperimentFile/2_AudioBlock1.csv,1,2,1,2,2,1,2,11,41,53,58,70,100,112,142,154,159,171,201,2_audFile.wav,10,2,1,2,1,2,2,1,2,11,41,53,58,70,100,112,142,154,159,171,201,2_audFile.wav,10,2,1,1,,,,0,1,1,1,0,14,14,23,,,,,,,,,,,,,,,,,,,,,579.6847872000071,None,579.8747427100316,580.8747638029745,580.8847462540143,582.7447321300278,580.9947547690244,581.2949025940034,581.4147476310027,581.4647240000195,581.5847466930281,581.8848289920134,582.0048238079762,582.3047948150197,582.4247152609751,582.4747465180117,582.5948209880153,None,580.984795097087,None,582.894738834002,None,584.1947961220285,None,584.3047442790121,584.6047603969928,584.7247077620123,584.7748181240167,584.8947965140105,585.1947643089807,585.3147556239855,585.6147480080253,585.7347890090314,585.7847556499764,585.9047386579914,586.2047606609995,584.2947563981288,None,1,0.5896954879863188,586.5548165389919,None,586.5548165389919,None,,,,,,,,,,,,,,,,,,,,,,,,,,,,,,,,,,,,,,,,,,,,,,,,,,,,,,,,,,,,,,,,,,,,,,,2,001,2022_Nov_21_1609,Cognition2_FullCode1,2021.2.3,100.02265410431252,
/Users/shamslab/Desktop/Cognition2_FullExperimentFile/2_AudioBlock1.csv,2,1,2,2,2,1,2,11,16,28,58,70,100,112,142,154,159,171,201,3_audFile.wav,10,1,2,1,2,2,2,1,2,11,16,28,58,70,100,112,142,154,159,171,201,3_audFile.wav,10,1,1,1,,,,0,1,1,1,0,15,15,18,,,,,,,,,,,,,,,,,,,,,587.1548203619896,None,587.3447525260272,588.3447907909867,588.3548264229903,590.2147582669859,588.4647711060243,588.5148063360248,588.6347651759861,588.934847770026,589.0548164590145,589.3548027719953,589.474820627016,589.7748001390137,589.8947981990059,589.9447808280238,590.0647618679795,None,588.4548371920828,None,590.3647848219844,None,591.6647924170247,None,591.7748142160126,591.8247768059955,591.9447809080011,592.2448027980281,592.364808304992,592.6648175480077,592.7848047949956,593.0847763820202,593.2047673449852,593.2548047520104,593.3748112380272,593.6748155300156,591.7648427861277,None,2,0.6877101009595208,594.0247799290228,None,594.0247799290228,None,,,,,,,,,,,,,,,,,,,,,,,,,,,,,,,,,,,,,,,,,,,,,,,,,,,,,,,,,,,,,,,,,,,,,,,2,001,2022_Nov_21_1609,Cognition2_FullCode1,2021.2.3,100.02265410431252,
/Users/shamslab/Desktop/Cognition2_FullExperimentFile/2_AudioBlock1.csv,13,2,1,2,1,1,2,11,41,53,58,70,100,112,117,129,134,146,176,14_audFile.wav,10,2,13,2,1,2,1,1,2,11,41,53,58,70,100,112,117,129,134,146,176,14_audFile.wav,10,2,1,1,,,,0,1,1,1,0,16,16,3,,,,,,,,,,,,,,,,,,,,,594.7247928950237,None,594.9148590940167,595.9148096260033,595.9248279600288,None,596.0348596309777,596.3348100180156,596.4548430200084,596.5048459250247,596.6248408890096,596.9248894309858,597.0448353370302,597.0948151940247,597.2148248950252,597.2648369179806,597.3847478670068,597.6848091200227,596.024830383074,None,597.7848551060306,None,599.0848028280307,None,599.1948667180259,599.4948103639763,599.6148399839876,599.664894098998,599.7847968839924,600.084835636022,600.2048382540233,600.2548533160007,600.3748723299941,600.4248010769952,600.544804515026,600.8447837330168,599.1848674720968,None,1,0.6596858279663138,601.4448054460227,None,601.4448054460227,None,,,,,,,,,,,,,,,,,,,,,,,,,,,,,,,,,,,,,,,,,,,,,,,,,,,,,,,,,,,,,,,,,,,,,,,2,001,2022_Nov_21_1609,Cognition2_FullCode1,2021.2.3,100.02265410431252,
/Users/shamslab/Desktop/Cognition2_FullExperimentFile/2_AudioBlock1.csv,12,1,2,1,2,2,1,11,16,28,58,70,75,87,117,129,159,171,176,13_audFile.wav,10,1,10,1,2,2,1,2,1,11,16,28,58,70,100,112,117,129,159,171,176,11_audFile.wav,10,1,1,2,,,,0,1,1,1,0,17,17,26,,,,,,,,,,,,,,,,,,,,,602.1148584880284,None,602.3048615839798,603.3048181189806,603.3148326150258,None,603.4248158889823,603.474876155029,603.594889177999,603.8949385239976,604.0148146569845,604.0648281360045,604.1848142090021,604.4848872370203,604.6048344160081,604.9048369710217,605.0248061569873,605.074831373,603.41483664111,None,605.1748413239839,None,606.4748532809899,None,606.5848883480066,606.6349845560035,606.7548750410206,607.0548614640138,607.1749750340241,607.4748878739774,607.5948471659794,607.6448537450051,607.7648581149988,608.0649706519907,608.1848345539765,608.2348371249973,606.5748371310765,None,2,0.5015391810447909,608.8348942360026,None,608.8348942360026,None,,,,,,,,,,,,,,,,,,,,,,,,,,,,,,,,,,,,,,,,,,,,,,,,,,,,,,,,,,,,,,,,,,,,,,,2,001,2022_Nov_21_1609,Cognition2_FullCode1,2021.2.3,100.02265410431252,
/Users/shamslab/Desktop/Cognition2_FullExperimentFile/2_AudioBlock1.csv,0,2,2,1,2,1,2,11,41,53,83,95,100,112,142,154,159,171,201,1_audFile.wav,10,3,0,2,2,1,2,1,2,11,41,53,83,95,100,112,142,154,159,171,201,1_audFile.wav,10,3,1,1,,,,0,1,1,1,0,18,18,10,,,,,,,,,,,,,,,,,,,,,609.3548456720309,None,609.5448535510222,610.5448409310193,610.5549205869902,612.414893963025,610.6649041139754,610.9648280930123,611.0848476539832,611.3849179670215,611.5048853019834,611.5548430149793,611.6749059599824,611.9749222599785,612.0948562939884,612.1448761189822,612.264860233001,None,610.6548544651014,None,612.5648479129886,None,613.8648633609992,None,613.9748953710077,614.2749255149974,614.3948780599749,614.6948822709965,614.814926313993,614.8649639909854,614.9848720530281,615.2849209550186,615.404885734024,615.4549246730166,615.5749558340176,615.8749185319757,613.964910629089,None,1,0.30360501096583903,616.2248634930002,None,616.2248634930002,None,,,,,,,,,,,,,,,,,,,,,,,,,,,,,,,,,,,,,,,,,,,,,,,,,,,,,,,,,,,,,,,,,,,,,,,2,001,2022_Nov_21_1609,Cognition2_FullCode1,2021.2.3,100.02265410431252,
/Users/shamslab/Desktop/Cognition2_FullExperimentFile/2_AudioBlock1.csv,11,2,1,1,2,2,1,11,41,53,58,70,75,87,117,129,159,171,176,12_audFile.wav,10,2,11,2,1,1,2,2,1,11,41,53,58,70,75,87,117,129,159,171,176,12_audFile.wav,10,2,1,1,,,,0,1,1,1,0,19,19,16,,,,,,,,,,,,,,,,,,,,,616.5448814390111,None,616.7349255000008,617.7349187799846,617.7449899439816,None,617.8549111079774,618.1549133689841,618.2748578650062,618.3248723819852,618.4448848359752,618.4948889230145,618.614988729998,618.9149271890055,619.0349768000306,619.3349558410118,619.4549351870082,619.5048644579947,617.8448971731123,None,619.6049049529829,None,620.9049035080243,None,621.0149834370241,621.314911007008,621.4349565440207,621.4848815110163,621.6048880739836,621.6549519000109,621.7749286670005,622.074910684023,622.1949317720137,622.4949193989742,622.6149267010042,622.6648933510296,621.0049214120954,None,1,0.36747601098613814,623.2649689100217,None,623.2649689100217,None,,,,,,,,,,,,,,,,,,,,,,,,,,,,,,,,,,,,,,,,,,,,,,,,,,,,,,,,,,,,,,,,,,,,,,,2,001,2022_Nov_21_1609,Cognition2_FullCode1,2021.2.3,100.02265410431252,
/Users/shamslab/Desktop/Cognition2_FullExperimentFile/2_AudioBlock1.csv,4,1,2,2,1,2,2,11,16,28,58,70,100,112,117,129,159,171,201,5_audFile.wav,10,1,4,1,2,2,1,2,2,11,16,28,58,70,100,112,117,129,159,171,201,5_audFile.wav,10,1,1,1,,,,0,1,1,1,0,20,20,17,,,,,,,,,,,,,,,,,,,,,623.6448998069973,None,623.8349419169826,624.8349804379977,624.8448995170183,626.7049195949803,624.9549352059839,625.0049530980177,625.1248899489874,625.4250004090136,625.544911533012,625.8449085159809,625.964940690028,626.0149344020174,626.1349197700038,626.434926211019,626.5549797820277,None,624.944924781099,None,626.8549239190179,None,628.1549974009977,None,628.2649111120263,628.3149581790203,628.4349872349994,628.7349538470153,628.8549920200021,629.15494889603,629.274968378013,629.3249568609754,629.4449026869843,629.744915258023,629.8649126840173,630.1649119289941,628.254944826127,None,1,1.0934882859583013,630.514962635003,None,630.514962635003,None,,,,,,,,,,,,,,,,,,,,,,,,,,,,,,,,,,,,,,,,,,,,,,,,,,,,,,,,,,,,,,,,,,,,,,,2,001,2022_Nov_21_1609,Cognition2_FullCode1,2021.2.3,100.02265410431252,
/Users/shamslab/Desktop/Cognition2_FullExperimentFile/2_AudioBlock1.csv,12,1,2,1,2,2,1,11,16,28,58,70,75,87,117,129,159,171,176,13_audFile.wav,10,1,12,1,2,1,2,2,1,11,16,28,58,70,75,87,117,129,159,171,176,13_audFile.wav,10,1,1,1,,,,0,1,1,1,0,21,21,6,,,,,,,,,,,,,,,,,,,,,631.6249590869993,None,631.8149466100149,632.8149766839924,632.8249818559852,None,632.9349855090259,632.9849685259978,633.1050325480173,633.4049690989777,633.5249230680056,633.5749759169994,633.6950097050285,633.994991197018,634.1150317579741,634.4149577880162,634.5349719569786,634.5849703029962,632.9249505830812,None,634.6849053379847,None,635.9850316399825,None,636.0950422780006,636.1449238730129,636.2649480859982,636.5649441250134,636.6850531439995,636.7350109540275,636.854982356017,637.1550158520113,637.2750526220188,637.5749711050303,637.6949786029872,637.7449786660145,636.0849700631225,None,1,0.6315000400063582,638.344931803993,None,638.344931803993,None,,,,,,,,,,,,,,,,,,,,,,,,,,,,,,,,,,,,,,,,,,,,,,,,,,,,,,,,,,,,,,,,,,,,,,,2,001,2022_Nov_21_1609,Cognition2_FullCode1,2021.2.3,100.02265410431252,
/Users/shamslab/Desktop/Cognition2_FullExperimentFile/2_AudioBlock1.csv,15,1,2,1,2,1,2,11,16,28,58,70,75,87,117,129,134,146,176,16_audFile.wav,10,1,5,1,2,1,2,2,2,11,16,28,58,70,75,87,117,129,159,171,201,6_audFile.wav,10,1,1,2,,,,0,1,1,1,0,22,22,14,,,,,,,,,,,,,,,,,,,,,638.9949828980025,None,639.1850279149949,640.1849967879825,640.1950704740011,None,640.3049736319808,640.3550954849925,640.4749354179949,640.7749772359966,640.8949880260043,640.9450355580193,641.0650217839866,641.3649697650108,641.4849998930003,641.5349793549976,641.6550422270084,641.9549857460079,640.2950111650862,None,642.0550045639975,None,643.3550154250115,None,643.465008825995,643.5149821619852,643.6349832480191,643.9350061059813,644.0550465299748,644.1050096239778,644.2250141740078,644.524984024989,644.6450074149761,644.9450073200278,645.0650140270009,645.3649975520093,643.455002564122,None,1,1.1574222620110959,645.7150090510258,None,645.7150090510258,None,,,,,,,,,,,,,,,,,,,,,,,,,,,,,,,,,,,,,,,,,,,,,,,,,,,,,,,,,,,,,,,,,,,,,,,2,001,2022_Nov_21_1609,Cognition2_FullCode1,2021.2.3,100.02265410431252,
/Users/shamslab/Desktop/Cognition2_FullExperimentFile/2_AudioBlock1.csv,1,2,1,2,2,1,2,11,41,53,58,70,100,112,142,154,159,171,201,2_audFile.wav,10,2,9,2,1,2,1,2,1,11,41,53,58,70,100,112,117,129,159,171,176,10_audFile.wav,10,2,1,2,,,,0,1,1,1,0,23,23,22,,,,,,,,,,,,,,,,,,,,,646.8849795639981,None,647.0750217669993,648.075003994978,648.0850914350012,649.945016379992,648.1950188060291,648.4950116639957,648.6150248129852,648.6650569579797,648.7850471499842,649.0850183810107,649.2050189439906,649.5050116900238,649.6249890699983,649.6750356309931,649.7950135500287,None,648.1850541281165,None,650.0950090219849,None,651.3950822220067,None,651.5051077220123,651.8050608219928,651.9250029540271,651.9750183179858,652.0950458329753,652.3950579679804,652.515021661995,652.56501006498,652.6850590719841,652.9850084999925,653.1050287950202,653.1550238130149,651.4950027901214,None,2,0.7573999309679493,653.7550446940004,None,653.7550446940004,None,,,,,,,,,,,,,,,,,,,,,,,,,,,,,,,,,,,,,,,,,,,,,,,,,,,,,,,,,,,,,,,,,,,,,,,2,001,2022_Nov_21_1609,Cognition2_FullCode1,2021.2.3,100.02265410431252,
/Users/shamslab/Desktop/Cognition2_FullExperimentFile/2_AudioBlock1.csv,3,2,1,2,1,2,2,11,41,53,58,70,100,112,117,129,159,171,201,4_audFile.wav,10,2,3,2,1,2,1,2,2,11,41,53,58,70,100,112,117,129,159,171,201,4_audFile.wav,10,2,1,1,,,,0,1,1,1,0,24,24,15,,,,,,,,,,,,,,,,,,,,,654.5250379919889,None,654.7151297369855,655.715025767975,655.7250353930285,657.5850659110001,655.8350514710182,656.1350660070311,656.2550253510126,656.304993311991,656.4250154980109,656.7250463039964,656.8450463570189,656.8950438729953,657.0150717140059,657.3150255639921,657.4350718680071,None,655.8250450561172,None,657.7350202520029,None,659.0350367390201,None,659.1451089199982,659.445034407021,659.5650532920263,659.6150581560214,659.7350695980131,660.0351044969866,660.1551323509775,660.2050728559843,660.3250472280197,660.6250642630039,660.7450830399757,661.0450545200147,659.1350399550865,None,1,0.5573286570142955,661.3950974760228,None,661.3950974760228,None,,,,,,,,,,,,,,,,,,,,,,,,,,,,,,,,,,,,,,,,,,,,,,,,,,,,,,,,,,,,,,,,,,,,,,,2,001,2022_Nov_21_1609,Cognition2_FullCode1,2021.2.3,100.02265410431252,
/Users/shamslab/Desktop/Cognition2_FullExperimentFile/2_AudioBlock1.csv,14,2,1,1,2,1,2,11,41,53,58,70,75,87,117,129,134,146,176,15_audFile.wav,10,2,14,2,1,1,2,1,2,11,41,53,58,70,75,87,117,129,134,146,176,15_audFile.wav,10,2,1,1,,,,0,1,1,1,0,25,25,7,,,,,,,,,,,,,,,,,,,,,661.9650965280016,None,662.1550680350047,663.1550659349887,663.1650726600201,None,663.2750862889807,663.5751283920254,663.6950812870055,663.7451059920131,663.8650468250271,663.9151677499758,664.0351366070099,664.3350638310076,664.4551250269869,664.5050204870058,664.625056800025,664.9250214850181,663.2651350480737,None,665.0250705999788,None,666.3250228600227,None,666.4351175340125,666.7351021399954,666.8550772920134,666.905093800975,667.0250436239876,667.075175046979,667.1950631599757,667.4951323369751,667.6151738869958,667.6650761259953,667.7850142479874,668.085212038015,666.4251391571015,None,2,0.43536153697641566,668.6850662769866,None,668.6850662769866,None,,,,,,,,,,,,,,,,,,,,,,,,,,,,,,,,,,,,,,,,,,,,,,,,,,,,,,,,,,,,,,,,,,,,,,,2,001,2022_Nov_21_1609,Cognition2_FullCode1,2021.2.3,100.02265410431252,
/Users/shamslab/Desktop/Cognition2_FullExperimentFile/2_AudioBlock1.csv,10,1,2,2,1,2,1,11,16,28,58,70,100,112,117,129,159,171,176,11_audFile.wav,10,1,10,1,2,2,1,2,1,11,16,28,58,70,100,112,117,129,159,171,176,11_audFile.wav,10,1,1,1,,,,0,1,1,1,0,26,26,27,,,,,,,,,,,,,,,,,,,,,669.1351426769979,None,669.3251046270016,670.3250986349885,670.335086075007,None,670.4450798369944,670.4950789450086,670.6151376970229,670.9151396729867,671.0350740849972,671.3351209000102,671.4551445139805,671.5050942039816,671.625098487013,671.9251201460138,672.0450834049843,672.0951165599981,670.4350938260905,None,672.1951158170123,None,673.4951137719909,None,673.6051133259898,673.6551351940143,673.7750972019858,674.0751726889866,674.1951585760107,674.4951487730141,674.6151390729938,674.665152231988,674.7850891689886,675.0851226220257,675.2051240750006,675.2550830239779,673.5951215251116,None,1,0.5932721220306121,675.8552062630188,None,675.8552062630188,None,,,,,,,,,,,,,,,,,,,,,,,,,,,,,,,,,,,,,,,,,,,,,,,,,,,,,,,,,,,,,,,,,,,,,,,2,001,2022_Nov_21_1609,Cognition2_FullCode1,2021.2.3,100.02265410431252,
/Users/shamslab/Desktop/Cognition2_FullExperimentFile/2_AudioBlock1.csv,9,2,1,2,1,2,1,11,41,53,58,70,100,112,117,129,159,171,176,10_audFile.wav,10,2,13,2,1,2,1,1,2,11,41,53,58,70,100,112,117,129,134,146,176,14_audFile.wav,10,2,1,2,,,,0,1,1,1,0,27,27,4,,,,,,,,,,,,,,,,,,,,,676.46512665099,None,676.655138296017,677.655184807023,677.6651238210034,None,677.7751476379926,678.0751624060213,678.1951414879877,678.2451024770271,678.3651414479828,678.6651479909779,678.7851189610083,678.8351315070176,678.9551433839952,679.2551327319816,679.3751245749881,679.4251037749927,677.7651389751118,None,679.5251338370144,None,680.8251360499999,None,680.9351692420314,681.2351751499809,681.3551519060275,681.4051282560104,681.5251469630166,681.8251713649952,681.945137237024,681.9951826719916,682.1151720130001,682.1651344930287,682.2852045060135,682.585143460019,680.9251715561259,None,1,1.047372023051139,683.185120063019,None,683.185120063019,None,,,,,,,,,,,,,,,,,,,,,,,,,,,,,,,,,,,,,,,,,,,,,,,,,,,,,,,,,,,,,,,,,,,,,,,2,001,2022_Nov_21_1609,Cognition2_FullCode1,2021.2.3,100.02265410431252,
/Users/shamslab/Desktop/Cognition2_FullExperimentFile/2_AudioBlock1.csv,6,2,2,1,2,1,1,11,41,53,83,95,100,112,142,154,159,171,176,7_audFile.wav,10,3,0,2,2,1,2,1,2,11,41,53,83,95,100,112,142,154,159,171,201,1_audFile.wav,10,3,1,2,,,,0,1,1,1,0,28,28,29,,,,,,,,,,,,,,,,,,,,,684.2451876400155,None,684.4351513240254,685.4351717350073,685.4451615500147,None,685.5551471100189,685.8551409129868,685.9751801260281,686.275185438979,686.3951928709866,686.4451551489765,686.5651611490175,686.8651731709833,686.9851569909952,687.0351548839826,687.1551945550018,687.2051356550073,685.5451463190839,None,687.305141335004,None,688.605170950992,None,688.7151708289748,689.0153138950118,689.1352004380315,689.4351729109767,689.5551542940084,689.6051610040013,689.7252051680116,690.0251684500254,690.1452110719983,690.1952062119963,690.3152134930133,690.6151744690142,688.7052538340795,None,2,0.7552766299922951,690.9651615190087,None,690.9651615190087,None,,,,,,,,,,,,,,,,,,,,,,,,,,,,,,,,,,,,,,,,,,,,,,,,,,,,,,,,,,,,,,,,,,,,,,,2,001,2022_Nov_21_1609,Cognition2_FullCode1,2021.2.3,100.02265410431252,
/Users/shamslab/Desktop/Cognition2_FullExperimentFile/2_AudioBlock1.csv,8,2,2,1,1,2,1,11,41,53,83,95,100,112,117,129,159,171,176,9_audFile.wav,10,3,0,2,2,1,2,1,2,11,41,53,83,95,100,112,142,154,159,171,201,1_audFile.wav,10,3,1,2,,,,0,1,1,1,0,29,29,8,,,,,,,,,,,,,,,,,,,,,691.7352335840114,None,691.9252144020284,692.9251386629767,692.9352590899798,None,693.0451600400265,693.3452405509888,693.4651617779746,693.7651837390149,693.8851800279808,693.9351930120029,694.055205392011,694.1051734180073,694.2251725490205,694.5251708200085,694.6451534489752,694.695163602999,693.0351878100773,None,694.7953094930272,None,696.095291177975,None,696.2052039360278,696.5053313020035,696.6252852479811,696.9251928200247,697.0452507690061,697.0952487179893,697.2151753859944,697.5152291220147,697.6352263109875,697.6852075870265,697.8052228490124,698.1052284269826,696.1951855701045,None,1,0.2412135599879548,698.4552183860214,None,698.4552183860214,None,,,,,,,,,,,,,,,,,,,,,,,,,,,,,,,,,,,,,,,,,,,,,,,,,,,,,,,,,,,,,,,,,,,,,,,2,001,2022_Nov_21_1609,Cognition2_FullCode1,2021.2.3,100.02265410431252,
/Users/shamslab/Desktop/Cognition2_FullExperimentFile/2_AudioBlock1.csv,8,2,2,1,1,2,1,11,41,53,83,95,100,112,117,129,159,171,176,9_audFile.wav,10,3,8,2,2,1,1,2,1,11,41,53,83,95,100,112,117,129,159,171,176,9_audFile.wav,10,3,1,1,,,,0,1,1,1,0,30,30,1,,,,,,,,,,,,,,,,,,,,,698.7152335799765,None,698.9052499519894,699.9051916609751,699.925259732001,None,700.0352211620193,700.3351870650076,700.4552056849934,700.7552469270304,700.8753103190102,700.9253260649857,701.0453319710214,701.0952116979752,701.2151897079893,701.5153072900139,701.6352962109959,701.6852506040013,700.0252002570778,None,701.7853243499994,None,703.0852578469785,None,703.1953041449888,703.4952293339884,703.6152442279854,703.9152425479842,704.0352594580036,704.0852356880205,704.2052540840232,704.2551923179999,704.3752917150268,704.6753206850262,704.7952549129841,704.8453494249843,703.1853119051084,None,1,0.2832011930295266,705.4452580190264,None,705.4452580190264,None,,,,,,,,,,,,,,,,,,,,,,,,,,,,,,,,,,,,,,,,,,,,,,,,,,,,,,,,,,,,,,,,,,,,,,,2,001,2022_Nov_21_1609,Cognition2_FullCode1,2021.2.3,100.02265410431252,
/Users/shamslab/Desktop/Cognition2_FullExperimentFile/2_AudioBlock1.csv,10,1,2,2,1,2,1,11,16,28,58,70,100,112,117,129,159,171,176,11_audFile.wav,10,1,5,1,2,1,2,2,2,11,16,28,58,70,75,87,117,129,159,171,201,6_audFile.wav,10,1,1,2,,,,0,1,1,1,0,31,31,9,,,,,,,,,,,,,,,,,,,,,705.7553043399821,None,705.9352342479979,706.9352421539952,706.9552732129814,None,707.0653624000261,707.1152354939841,707.2352397270151,707.5352594249998,707.6552543360158,707.9552387479926,708.0753065759782,708.1252289959812,708.2452558029909,708.5452199240099,708.665251339029,708.7152772650006,707.055308202107,None,708.8152744080289,None,710.1152827020269,None,710.2252225989942,710.2752372330287,710.3952789520263,710.695265923976,710.8152763720136,710.8653553550248,710.9852686459781,711.285210528993,711.4052389930002,711.7052038239781,711.8252523749834,712.1252640939783,710.2152268160717,None,1,0.27705325896386057,712.4753842250211,None,712.4753842250211,None,,,,,,,,,,,,,,,,,,,,,,,,,,,,,,,,,,,,,,,,,,,,,,,,,,,,,,,,,,,,,,,,,,,,,,,2,001,2022_Nov_21_1609,Cognition2_FullCode1,2021.2.3,100.02265410431252,
/Users/shamslab/Desktop/Cognition2_FullExperimentFile/2_AudioBlock1.csv,,,,,,,,,,,,,,,,,,,,,,,,,,,,,,,,,,,,,,,,,,,,,,,,,,0,1,1,1,,,,,,,,,,,,,,,,,,,,,,,,,,,,,,,,,,,,,,,,,,,,,,,,,,,,,,,,,,,,,,,,,,,,,712.7752709509805,None,712.7752709509805,None,,,,,,,,,,,,,,,,,,,,,,,,,,,,,,,,,,,,,,,,,,,,,,,,,,,,,,,,,,,,,,,,,,,2,001,2022_Nov_21_1609,Cognition2_FullCode1,2021.2.3,100.02265410431252,
,,,,,,,,,,,,,,,,,,,,,,,,,,,,,,,,,,,,,,,,,,,,,,,,,,,,,,,,,,,,,,,,,,,,,,,,,,,,,,,,,,,,,,,,,,,,,,,,,,,,,,,,,,,,,,,,,,,,,,,,,,,,,,772.775478710013,None,c,13.33078634395497,797.7656458920101,None,,,,,,,,,,,,,,,,,,,,,,,,,,,,,,,,,,,,,,,,,,,,,,,,,,,,,,,,,,,,,2,001,2022_Nov_21_1609,Cognition2_FullCode1,2021.2.3,100.02265410431252,
,,,,,,,,,,,,,,,,,,,,,,,,,,,,,,,,,,,,,,,,,,,,,,,,,,,,,,,,,,,,,,,,,,,,,,,,,,,,,,,,,,,,,,,,,,,,,,,,,,,,,,,,,,,,,,,,,,,,,,,,,,,,,,,,,,,,space,357.1887550519896,811.9156732480042,None,,,,,,,,,,,,,,,,,,,,,,,,,,,,,,,,,,,,,,,,,,,,,,,,,,,,,,,,,2,001,2022_Nov_21_1609,Cognition2_FullCode1,2021.2.3,100.02265410431252,
,,,,,,,,,,,,,,,,,,,,,,,,,,,,,,,,,,,,,,,,,,,,,,,,,,,,,,,,,,,,,,,,,,,,,,,,,,,,,,,,,,,,,,,,,,,,,,,,,,,,,,,,,,,,,,,,,,,,,,,,,,,,,,,,,,,,,,,,811.5156653490267,None,1169.117011639988,None,space,30.487369293987285,1169.2970688950154,None,,,,,,,,,,,,,,,,,,,,,,,,,,,,,,,,,,,,,,,,,,,,,,,,,2,001,2022_Nov_21_1609,Cognition2_FullCode1,2021.2.3,100.02265410431252,
,,,,,,,,,,,,,,,,,,,,,,,,,,,,,,,,,,,,,,,,,,,,,,,/Users/shamslab/Desktop/Cognition2_FullExperimentFile/conditionFiles_SRT/2_bisensoryblock.csv,B,89,,,,,,,,,0,0,0,2,0,0,0,25,,,,,,,,,,,,,,,,,,,,,,,,,,,,,,,,,,,,,,,,,,,,,,,,,,,,,,,,,,,,,,,,,,,,,,,,,,,,,,,1200.3071915089968,None,space,11.825314272020478,1200.4071718549822,None,1212.2572737170267,None,1214.64722596301,1214.6572349719936,1214.6472907740972,None,space,1.009267361019738,1214.64722596301,None,None,1213.7572939550155,1214.6372866849997,1213.7572939550155,None,1215.7672226610011,None,1215.7672549121198,1215.867241354019,,,,,,,,,,,,,,,,,,,,,,,,2,001,2022_Nov_21_1609,Cognition2_FullCode1,2021.2.3,100.02265410431252,
,,,,,,,,,,,,,,,,,,,,,,,,,,,,,,,,,,,,,,,,,,,,,,,/Users/shamslab/Desktop/Cognition2_FullExperimentFile/conditionFiles_SRT/2_bisensoryblock.csv,B,335,,,,,,,,,0,0,0,2,0,1,1,20,,,,,,,,,,,,,,,,,,,,,,,,,,,,,,,,,,,,,,,,,,,,,,,,,,,,,,,,,,,,,,,,,,,,,,,,,,,,,,,,,,,,,1216.0672592549818,None,1220.9173091960256,1220.927328803984,1220.9172477931133,None,space,0.2911336629767902,1220.9173091960256,None,None,1217.5672673939844,1220.9072437040159,1217.5672673939844,None,1221.3172578929807,None,1221.3172611841,1221.417323385016,,,,,,,,,,,,,,,,,,,,,,,,2,001,2022_Nov_21_1609,Cognition2_FullCode1,2021.2.3,100.02265410431252,
,,,,,,,,,,,,,,,,,,,,,,,,,,,,,,,,,,,,,,,,,,,,,,,/Users/shamslab/Desktop/Cognition2_FullExperimentFile/conditionFiles_SRT/2_bisensoryblock.csv,B,273,,,,,,,,,0,0,0,2,0,2,2,15,,,,,,,,,,,,,,,,,,,,,,,,,,,,,,,,,,,,,,,,,,,,,,,,,,,,,,,,,,,,,,,,,,,,,,,,,,,,,,,,,,,,,1221.6173184239888,None,1225.847333859012,1225.8572956030257,1225.8472972820746,None,space,0.377157420036383,1225.847333859012,None,None,1223.1172908120207,1225.837293192977,1223.1172908120207,None,1226.3272950790124,None,1226.3272902701283,1226.4272837750032,,,,,,,,,,,,,,,,,,,,,,,,2,001,2022_Nov_21_1609,Cognition2_FullCode1,2021.2.3,100.02265410431252,
,,,,,,,,,,,,,,,,,,,,,,,,,,,,,,,,,,,,,,,,,,,,,,,/Users/shamslab/Desktop/Cognition2_FullExperimentFile/conditionFiles_SRT/2_bisensoryblock.csv,B,174,,,,,,,,,0,0,0,2,0,3,3,18,,,,,,,,,,,,,,,,,,,,,,,,,,,,,,,,,,,,,,,,,,,,,,,,,,,,,,,,,,,,,,,,,,,,,,,,,,,,,,,,,,,,,1226.6272639100207,None,1229.8673045730102,1229.877292049001,1229.8673335660715,None,space,0.2851664650370367,1229.8673045730102,None,None,1228.1272462130291,1229.857329476974,1228.1272462130291,None,1230.2574096270255,None,1230.2573089181096,1230.3572892789962,,,,,,,,,,,,,,,,,,,,,,,,2,001,2022_Nov_21_1609,Cognition2_FullCode1,2021.2.3,100.02265410431252,
,,,,,,,,,,,,,,,,,,,,,,,,,,,,,,,,,,,,,,,,,,,,,,,/Users/shamslab/Desktop/Cognition2_FullExperimentFile/conditionFiles_SRT/2_bisensoryblock.csv,B,225,,,,,,,,,0,0,0,2,0,4,4,16,,,,,,,,,,,,,,,,,,,,,,,,,,,,,,,,,,,,,,,,,,,,,,,,,,,,,,,,,,,,,,,,,,,,,,,,,,,,,,,,,,,,,1230.55732201098,None,1234.3073212599847,1234.317371651996,1234.3073473061086,None,space,0.4851564280106686,1234.3073212599847,None,None,1232.0572803370305,1234.297343217011,1232.0572803370305,None,1234.8973397969967,None,1234.8973621011246,1234.997311479994,,,,,,,,,,,,,,,,,,,,,,,,2,001,2022_Nov_21_1609,Cognition2_FullCode1,2021.2.3,100.02265410431252,
,,,,,,,,,,,,,,,,,,,,,,,,,,,,,,,,,,,,,,,,,,,,,,,/Users/shamslab/Desktop/Cognition2_FullExperimentFile/conditionFiles_SRT/2_bisensoryblock.csv,B,165,,,,,,,,,0,0,0,2,0,5,5,27,,,,,,,,,,,,,,,,,,,,,,,,,,,,,,,,,,,,,,,,,,,,,,,,,,,,,,,,,,,,,,,,,,,,,,,,,,,,,,,,,,,,,1235.1973291300237,None,1238.3473769910051,1238.3573694790248,1238.3473861651146,None,space,0.22902273701038212,1238.3473769910051,None,None,1236.697378375975,1238.337382076017,1236.697378375975,None,1238.6774303680286,None,1238.6773015870713,1238.7773830950027,,,,,,,,,,,,,,,,,,,,,,,,2,001,2022_Nov_21_1609,Cognition2_FullCode1,2021.2.3,100.02265410431252,
,,,,,,,,,,,,,,,,,,,,,,,,,,,,,,,,,,,,,,,,,,,,,,,/Users/shamslab/Desktop/Cognition2_FullExperimentFile/conditionFiles_SRT/2_bisensoryblock.csv,B,54,,,,,,,,,0,0,0,2,0,6,6,5,,,,,,,,,,,,,,,,,,,,,,,,,,,,,,,,,,,,,,,,,,,,,,,,,,,,,,,,,,,,,,,,,,,,,,,,,,,,,,,,,,,,,1238.9773921699962,None,1241.0174513150123,1241.0273445009952,1241.0174080940778,None,space,0.5909829090232961,1241.0174513150123,None,None,1240.4773570100078,1241.0074040049803,1240.4773570100078,None,1241.717397284985,None,1241.7173583650729,1241.8173637490254,,,,,,,,,,,,,,,,,,,,,,,,2,001,2022_Nov_21_1609,Cognition2_FullCode1,2021.2.3,100.02265410431252,
,,,,,,,,,,,,,,,,,,,,,,,,,,,,,,,,,,,,,,,,,,,,,,,/Users/shamslab/Desktop/Cognition2_FullExperimentFile/conditionFiles_SRT/2_bisensoryblock.csv,B,390,,,,,,,,,0,0,0,2,0,7,7,28,,,,,,,,,,,,,,,,,,,,,,,,,,,,,,,,,,,,,,,,,,,,,,,,,,,,,,,,,,,,,,,,,,,,,,,,,,,,,,,,,,,,,1242.0173724230262,None,1247.4173761479906,1247.4273449890316,1247.4173674170743,None,space,0.6070792250102386,1247.4173761479906,None,None,1243.5173900399823,1247.4073633279768,1243.5173900399823,None,1248.1274428390316,None,1248.127472063119,1248.2273741349927,,,,,,,,,,,,,,,,,,,,,,,,2,001,2022_Nov_21_1609,Cognition2_FullCode1,2021.2.3,100.02265410431252,
,,,,,,,,,,,,,,,,,,,,,,,,,,,,,,,,,,,,,,,,,,,,,,,/Users/shamslab/Desktop/Cognition2_FullExperimentFile/conditionFiles_SRT/2_bisensoryblock.csv,B,161,,,,,,,,,0,0,0,2,0,8,8,13,,,,,,,,,,,,,,,,,,,,,,,,,,,,,,,,,,,,,,,,,,,,,,,,,,,,,,,,,,,,,,,,,,,,,,,,,,,,,,,,,,,,,1248.4273535230313,None,1251.5373782839742,1251.5473609520122,1251.5373854601057,None,space,0.6070685900049284,1251.5373782839742,None,None,1249.9273970050272,1251.5273813710082,1249.9273970050272,None,1252.2473986810073,None,1252.2473866731161,1252.347361163993,,,,,,,,,,,,,,,,,,,,,,,,2,001,2022_Nov_21_1609,Cognition2_FullCode1,2021.2.3,100.02265410431252,
,,,,,,,,,,,,,,,,,,,,,,,,,,,,,,,,,,,,,,,,,,,,,,,/Users/shamslab/Desktop/Cognition2_FullExperimentFile/conditionFiles_SRT/2_bisensoryblock.csv,B,174,,,,,,,,,0,0,0,2,0,9,9,10,,,,,,,,,,,,,,,,,,,,,,,,,,,,,,,,,,,,,,,,,,,,,,,,,,,,,,,,,,,,,,,,,,,,,,,,,,,,,,,,,,,,,1252.5473714519758,None,1255.7873897050158,1255.7974098540144,1255.7874342030846,None,space,0.23712141602300107,1255.7873897050158,None,None,1254.0473656409886,1255.777430113987,1254.0473656409886,None,1256.1274256720208,None,1256.1274595130817,1256.2274219890242,,,,,,,,,,,,,,,,,,,,,,,,2,001,2022_Nov_21_1609,Cognition2_FullCode1,2021.2.3,100.02265410431252,
,,,,,,,,,,,,,,,,,,,,,,,,,,,,,,,,,,,,,,,,,,,,,,,/Users/shamslab/Desktop/Cognition2_FullExperimentFile/conditionFiles_SRT/2_bisensoryblock.csv,B,197,,,,,,,,,0,0,0,2,0,10,10,9,,,,,,,,,,,,,,,,,,,,,,,,,,,,,,,,,,,,,,,,,,,,,,,,,,,,,,,,,,,,,,,,,,,,,,,,,,,,,,,,,,,,,1256.4274381690193,None,1259.8975041040103,1259.9074240479968,1259.8973771770834,None,space,0.42297526297625154,1259.8975041040103,None,None,1257.927389501012,1259.887373087986,1257.927389501012,None,1260.4274408210185,None,1260.4274621931254,1260.5273759679985,,,,,,,,,,,,,,,,,,,,,,,,2,001,2022_Nov_21_1609,Cognition2_FullCode1,2021.2.3,100.02265410431252,
,,,,,,,,,,,,,,,,,,,,,,,,,,,,,,,,,,,,,,,,,,,,,,,/Users/shamslab/Desktop/Cognition2_FullExperimentFile/conditionFiles_SRT/2_bisensoryblock.csv,B,347,,,,,,,,,0,0,0,2,0,11,11,3,,,,,,,,,,,,,,,,,,,,,,,,,,,,,,,,,,,,,,,,,,,,,,,,,,,,,,,,,,,,,,,,,,,,,,,,,,,,,,,,,,,,,1260.7274532890297,None,1265.6975143069867,1265.707464251027,1265.6974038971239,None,space,0.22298054595012218,1265.6975143069867,None,None,1262.227425494988,1265.6873998080264,1262.227425494988,None,1266.0274460110231,None,1266.0274883590755,1266.1275444970233,,,,,,,,,,,,,,,,,,,,,,,,2,001,2022_Nov_21_1609,Cognition2_FullCode1,2021.2.3,100.02265410431252,
,,,,,,,,,,,,,,,,,,,,,,,,,,,,,,,,,,,,,,,,,,,,,,,/Users/shamslab/Desktop/Cognition2_FullExperimentFile/conditionFiles_SRT/2_bisensoryblock.csv,B,238,,,,,,,,,0,0,0,2,0,12,12,6,,,,,,,,,,,,,,,,,,,,,,,,,,,,,,,,,,,,,,,,,,,,,,,,,,,,,,,,,,,,,,,,,,,,,,,,,,,,,,,,,,,,,1266.3274353339802,None,1270.2074674509931,1270.2175340360263,1270.207442400104,None,space,0.22500234900508076,1270.2074674509931,None,None,1267.8274164460017,1270.1974383110064,1267.8274164460017,None,1270.5374973919825,None,1270.537444290123,1270.6374818850309,,,,,,,,,,,,,,,,,,,,,,,,2,001,2022_Nov_21_1609,Cognition2_FullCode1,2021.2.3,100.02265410431252,
,,,,,,,,,,,,,,,,,,,,,,,,,,,,,,,,,,,,,,,,,,,,,,,/Users/shamslab/Desktop/Cognition2_FullExperimentFile/conditionFiles_SRT/2_bisensoryblock.csv,B,111,,,,,,,,,0,0,0,2,0,13,13,7,,,,,,,,,,,,,,,,,,,,,,,,,,,,,,,,,,,,,,,,,,,,,,,,,,,,,,,,,,,,,,,,,,,,,,,,,,,,,,,,,,,,,1270.8375446390128,None,1273.4474548519938,1273.457481748017,1273.4474790861132,None,space,0.2569728870294057,1273.4474548519938,None,None,1272.3374351609964,1273.4374749970157,1272.3374351609964,None,1273.8074823570205,None,1273.8074963591062,1273.907438536,,,,,,,,,,,,,,,,,,,,,,,,2,001,2022_Nov_21_1609,Cognition2_FullCode1,2021.2.3,100.02265410431252,
,,,,,,,,,,,,,,,,,,,,,,,,,,,,,,,,,,,,,,,,,,,,,,,/Users/shamslab/Desktop/Cognition2_FullExperimentFile/conditionFiles_SRT/2_bisensoryblock.csv,B,196,,,,,,,,,0,0,0,2,0,14,14,21,,,,,,,,,,,,,,,,,,,,,,,,,,,,,,,,,,,,,,,,,,,,,,,,,,,,,,,,,,,,,,,,,,,,,,,,,,,,,,,,,,,,,1274.1074814699823,None,1277.5674691550084,1277.577502397995,1277.5674991470878,None,space,0.3609640029608272,1277.5674691550084,None,None,1275.6074831139995,1277.5574950579903,1275.6074831139995,None,1278.0374967139796,None,1278.0374982370995,1278.1375178730232,,,,,,,,,,,,,,,,,,,,,,,,2,001,2022_Nov_21_1609,Cognition2_FullCode1,2021.2.3,100.02265410431252,
,,,,,,,,,,,,,,,,,,,,,,,,,,,,,,,,,,,,,,,,,,,,,,,/Users/shamslab/Desktop/Cognition2_FullExperimentFile/conditionFiles_SRT/2_bisensoryblock.csv,B,126,,,,,,,,,0,0,0,2,0,15,15,26,,,,,,,,,,,,,,,,,,,,,,,,,,,,,,,,,,,,,,,,,,,,,,,,,,,,,,,,,,,,,,,,,,,,,,,,,,,,,,,,,,,,,1278.3374912930303,None,1281.0976667979849,1281.1074544049916,1281.0974765631254,None,space,0.230755919998046,1281.0976667979849,None,None,1279.8374969860306,1281.087472474028,1279.8374969860306,None,1281.4375296349754,None,1281.4374408071162,1281.5375231290236,,,,,,,,,,,,,,,,,,,,,,,,2,001,2022_Nov_21_1609,Cognition2_FullCode1,2021.2.3,100.02265410431252,
,,,,,,,,,,,,,,,,,,,,,,,,,,,,,,,,,,,,,,,,,,,,,,,/Users/shamslab/Desktop/Cognition2_FullExperimentFile/conditionFiles_SRT/2_bisensoryblock.csv,B,50,,,,,,,,,0,0,0,2,0,16,16,22,,,,,,,,,,,,,,,,,,,,,,,,,,,,,,,,,,,,,,,,,,,,,,,,,,,,,,,,,,,,,,,,,,,,,,,,,,,,,,,,,,,,,1281.7375797060085,None,1283.7375924959779,1283.7475192479906,1283.7375484831282,None,space,0.5108412810368463,1283.7375924959779,None,None,1283.2375149049913,1283.7275443940307,1283.2375149049913,None,1284.3575210080016,None,1284.357505902124,1284.4575031750137,,,,,,,,,,,,,,,,,,,,,,,,2,001,2022_Nov_21_1609,Cognition2_FullCode1,2021.2.3,100.02265410431252,
,,,,,,,,,,,,,,,,,,,,,,,,,,,,,,,,,,,,,,,,,,,,,,,/Users/shamslab/Desktop/Cognition2_FullExperimentFile/conditionFiles_SRT/2_bisensoryblock.csv,B,84,,,,,,,,,0,0,0,2,0,17,17,19,,,,,,,,,,,,,,,,,,,,,,,,,,,,,,,,,,,,,,,,,,,,,,,,,,,,,,,,,,,,,,,,,,,,,,,,,,,,,,,,,,,,,1284.6575523149804,None,1286.997591627005,1287.0075062430114,1286.9975100921001,None,space,0.45883787103230134,1286.997591627005,None,None,1286.15751095803,1286.9875060030026,1286.15751095803,None,1287.5575481760316,None,1287.5575158681022,1287.6576205019956,,,,,,,,,,,,,,,,,,,,,,,,2,001,2022_Nov_21_1609,Cognition2_FullCode1,2021.2.3,100.02265410431252,
,,,,,,,,,,,,,,,,,,,,,,,,,,,,,,,,,,,,,,,,,,,,,,,/Users/shamslab/Desktop/Cognition2_FullExperimentFile/conditionFiles_SRT/2_bisensoryblock.csv,B,241,,,,,,,,,0,0,0,2,0,18,18,4,,,,,,,,,,,,,,,,,,,,,,,,,,,,,,,,,,,,,,,,,,,,,,,,,,,,,,,,,,,,,,,,,,,,,,,,,,,,,,,,,,,,,1287.8575206379755,None,1291.7675456510042,1291.7775849020109,1291.7675992040895,None,space,0.44088915694737807,1291.7675456510042,None,None,1289.3575492040254,1291.757595114992,1289.3575492040254,None,1292.3175413919962,None,1292.3175382841146,1292.417590022029,,,,,,,,,,,,,,,,,,,,,,,,2,001,2022_Nov_21_1609,Cognition2_FullCode1,2021.2.3,100.02265410431252,
,,,,,,,,,,,,,,,,,,,,,,,,,,,,,,,,,,,,,,,,,,,,,,,/Users/shamslab/Desktop/Cognition2_FullExperimentFile/conditionFiles_SRT/2_bisensoryblock.csv,B,373,,,,,,,,,0,0,0,2,0,19,19,12,,,,,,,,,,,,,,,,,,,,,,,,,,,,,,,,,,,,,,,,,,,,,,,,,,,,,,,,,,,,,,,,,,,,,,,,,,,,,,,,,,,,,1292.617607355991,None,1297.8475514380261,1297.8576167799765,1297.8475535911275,None,space,0.3368781480239704,1297.8475514380261,None,None,1294.1175976860104,1297.83754950203,1294.1175976860104,None,1298.2875765530043,None,1298.2875700640725,1298.3875639709877,,,,,,,,,,,,,,,,,,,,,,,,2,001,2022_Nov_21_1609,Cognition2_FullCode1,2021.2.3,100.02265410431252,
,,,,,,,,,,,,,,,,,,,,,,,,,,,,,,,,,,,,,,,,,,,,,,,/Users/shamslab/Desktop/Cognition2_FullExperimentFile/conditionFiles_SRT/2_bisensoryblock.csv,B,205,,,,,,,,,0,0,0,2,0,20,20,14,,,,,,,,,,,,,,,,,,,,,,,,,,,,,,,,,,,,,,,,,,,,,,,,,,,,,,,,,,,,,,,,,,,,,,,,,,,,,,,,,,,,,1298.587594702025,None,1302.1375985509949,1302.14758003701,1302.1375850411132,None,space,0.24682860600296408,1302.1375985509949,None,None,1300.0875561709981,1302.1275809520157,1300.0875561709981,None,1302.4875504879747,None,1302.4876072451007,1302.5876390609774,,,,,,,,,,,,,,,,,,,,,,,,2,001,2022_Nov_21_1609,Cognition2_FullCode1,2021.2.3,100.02265410431252,
,,,,,,,,,,,,,,,,,,,,,,,,,,,,,,,,,,,,,,,,,,,,,,,/Users/shamslab/Desktop/Cognition2_FullExperimentFile/conditionFiles_SRT/2_bisensoryblock.csv,B,390,,,,,,,,,0,0,0,2,0,21,21,23,,,,,,,,,,,,,,,,,,,,,,,,,,,,,,,,,,,,,,,,,,,,,,,,,,,,,,,,,,,,,,,,,,,,,,,,,,,,,,,,,,,,,1302.7875677159755,None,1308.1876041120267,1308.1976223380188,1308.1876552610775,None,space,0.38882415601983666,1308.1876041120267,None,None,1304.2875793069834,1308.17765117198,1304.2875793069834,None,1308.6776391289895,None,1308.6775883701048,1308.7776016460266,,,,,,,,,,,,,,,,,,,,,,,,2,001,2022_Nov_21_1609,Cognition2_FullCode1,2021.2.3,100.02265410431252,
,,,,,,,,,,,,,,,,,,,,,,,,,,,,,,,,,,,,,,,,,,,,,,,/Users/shamslab/Desktop/Cognition2_FullExperimentFile/conditionFiles_SRT/2_bisensoryblock.csv,B,367,,,,,,,,,0,0,0,2,0,22,22,29,,,,,,,,,,,,,,,,,,,,,,,,,,,,,,,,,,,,,,,,,,,,,,,,,,,,,,,,,,,,,,,,,,,,,,,,,,,,,,,,,,,,,1308.9776507390197,None,1314.1477051189868,1314.1576325250207,1314.1477262140834,None,space,0.19669672701274976,1314.1477051189868,None,None,1310.4776077549905,1314.1377221249859,1310.4776077549905,None,1314.4476248300052,None,1314.4475906420848,1314.5476387870149,,,,,,,,,,,,,,,,,,,,,,,,2,001,2022_Nov_21_1609,Cognition2_FullCode1,2021.2.3,100.02265410431252,
,,,,,,,,,,,,,,,,,,,,,,,,,,,,,,,,,,,,,,,,,,,,,,,/Users/shamslab/Desktop/Cognition2_FullExperimentFile/conditionFiles_SRT/2_bisensoryblock.csv,B,101,,,,,,,,,0,0,0,2,0,23,23,8,,,,,,,,,,,,,,,,,,,,,,,,,,,,,,,,,,,,,,,,,,,,,,,,,,,,,,,,,,,,,,,,,,,,,,,,,,,,,,,,,,,,,1314.7476421750034,None,1317.2576967740315,1317.2676882889937,1317.2576794350753,None,space,0.3267586379661225,1317.2576967740315,None,None,1316.2476471299888,1317.2476753459778,1316.2476471299888,None,1317.6876269149943,None,1317.687617576099,1317.7876294280286,,,,,,,,,,,,,,,,,,,,,,,,2,001,2022_Nov_21_1609,Cognition2_FullCode1,2021.2.3,100.02265410431252,
,,,,,,,,,,,,,,,,,,,,,,,,,,,,,,,,,,,,,,,,,,,,,,,/Users/shamslab/Desktop/Cognition2_FullExperimentFile/conditionFiles_SRT/2_bisensoryblock.csv,B,360,,,,,,,,,0,0,0,2,0,24,24,2,,,,,,,,,,,,,,,,,,,,,,,,,,,,,,,,,,,,,,,,,,,,,,,,,,,,,,,,,,,,,,,,,,,,,,,,,,,,,,,,,,,,,1317.9876334280125,None,1323.0876696269843,1323.0976994640077,1323.0876667361008,None,space,0.2647612169967033,1323.0876696269843,None,None,1319.4877071360243,1323.0776626470033,1319.4877071360243,None,1323.4576712549897,None,1323.4577025070903,1323.5576804939774,,,,,,,,,,,,,,,,,,,,,,,,2,001,2022_Nov_21_1609,Cognition2_FullCode1,2021.2.3,100.02265410431252,
,,,,,,,,,,,,,,,,,,,,,,,,,,,,,,,,,,,,,,,,,,,,,,,/Users/shamslab/Desktop/Cognition2_FullExperimentFile/conditionFiles_SRT/2_bisensoryblock.csv,B,129,,,,,,,,,0,0,0,2,0,25,25,17,,,,,,,,,,,,,,,,,,,,,,,,,,,,,,,,,,,,,,,,,,,,,,,,,,,,,,,,,,,,,,,,,,,,,,,,,,,,,,,,,,,,,1323.757695266977,None,1326.547669571999,1326.5576965230284,1326.5476912991144,None,space,0.5167633010423742,1326.547669571999,None,None,1325.2576563520124,1326.5376872100169,1325.2576563520124,None,1327.167688802001,None,1327.1676814461243,1327.267656296026,,,,,,,,,,,,,,,,,,,,,,,,2,001,2022_Nov_21_1609,Cognition2_FullCode1,2021.2.3,100.02265410431252,
,,,,,,,,,,,,,,,,,,,,,,,,,,,,,,,,,,,,,,,,,,,,,,,/Users/shamslab/Desktop/Cognition2_FullExperimentFile/conditionFiles_SRT/2_bisensoryblock.csv,B,138,,,,,,,,,0,0,0,2,0,26,26,0,,,,,,,,,,,,,,,,,,,,,,,,,,,,,,,,,,,,,,,,,,,,,,,,,,,,,,,,,,,,,,,,,,,,,,,,,,,,,,,,,,,,,1327.4676917599863,None,1330.3476514689974,1330.3577176809777,1330.3476996091194,None,space,0.45287708996329457,1330.3476514689974,None,None,1328.967694504012,1330.337695520022,1328.967694504012,None,1330.9076874930179,None,1330.907690981112,1331.0077071220148,,,,,,,,,,,,,,,,,,,,,,,,2,001,2022_Nov_21_1609,Cognition2_FullCode1,2021.2.3,100.02265410431252,
,,,,,,,,,,,,,,,,,,,,,,,,,,,,,,,,,,,,,,,,,,,,,,,/Users/shamslab/Desktop/Cognition2_FullExperimentFile/conditionFiles_SRT/2_bisensoryblock.csv,B,141,,,,,,,,,0,0,0,2,0,27,27,1,,,,,,,,,,,,,,,,,,,,,,,,,,,,,,,,,,,,,,,,,,,,,,,,,,,,,,,,,,,,,,,,,,,,,,,,,,,,,,,,,,,,,1331.2076696429867,None,1334.117780975008,1334.1276720919996,1334.11768841109,None,space,0.19465999898966402,1334.117780975008,None,None,1332.707714595017,1334.1076843219926,1332.707714595017,None,1334.4176859509898,None,1334.4177068541176,1334.5177279780037,,,,,,,,,,,,,,,,,,,,,,,,2,001,2022_Nov_21_1609,Cognition2_FullCode1,2021.2.3,100.02265410431252,
,,,,,,,,,,,,,,,,,,,,,,,,,,,,,,,,,,,,,,,,,,,,,,,/Users/shamslab/Desktop/Cognition2_FullExperimentFile/conditionFiles_SRT/2_bisensoryblock.csv,B,383,,,,,,,,,0,0,0,2,0,28,28,11,,,,,,,,,,,,,,,,,,,,,,,,,,,,,,,,,,,,,,,,,,,,,,,,,,,,,,,,,,,,,,,,,,,,,,,,,,,,,,,,,,,,,1334.7176950320136,None,1340.047757146007,1340.057723936974,1340.0477095380775,None,space,0.17673464195104316,1340.047757146007,None,None,1336.217759186984,1340.03770544898,1336.217759186984,None,1340.3277301680064,None,1340.3277214681148,1340.4277468569926,,,,,,,,,,,,,,,,,,,,,,,,2,001,2022_Nov_21_1609,Cognition2_FullCode1,2021.2.3,100.02265410431252,
,,,,,,,,,,,,,,,,,,,,,,,,,,,,,,,,,,,,,,,,,,,,,,,/Users/shamslab/Desktop/Cognition2_FullExperimentFile/conditionFiles_SRT/2_bisensoryblock.csv,B,72,,,,,,,,,0,0,0,2,0,29,29,24,,,,,,,,,,,,,,,,,,,,,,,,,,,,,,,,,,,,,,,,,,,,,,,,,,,,,,,,,,,,,,,,,,,,,,,,,,,,,,,,,,,,,1340.6277537959977,None,1342.8477780580288,1342.8578469859785,1342.8477362041012,None,space,0.3766933919978328,1342.8477780580288,None,None,1342.1277285779943,1342.8377321150037,1342.1277285779943,None,1343.3277829720173,None,1343.327758238127,1343.4278063970269,,,,,,,,,,,,,,,,,,,,,,,,2,001,2022_Nov_21_1609,Cognition2_FullCode1,2021.2.3,100.02265410431252,
,,,,,,,,,,,,,,,,,,,,,,,,,,,,,,,,,,,,,,,,,,,,,,,/Users/shamslab/Desktop/Cognition2_FullExperimentFile/conditionFiles_SRT/2_bisensoryblock.csv,,,,,,,,,,,0,0,0,2,,,,,,,,,,,,,,,,,,,,,,,,,,,,,,,,,,,,,,,,,,,,,,,,,,,,,,,,,,,,,,,,,,,,,,,,,,,,,,,,,,,,,,,,,,,,,,,,,,,,,,,,,,,,,,,,,,,,,,,,,,,,,,,,,,,2,001,2022_Nov_21_1609,Cognition2_FullCode1,2021.2.3,100.02265410431252,
,,,,,,,,,,,,,,,,,,,,,,,,,,,,,,,,,,,,,,,,,,,,,,,/Users/shamslab/Desktop/Cognition2_FullExperimentFile/conditionFiles_SRT/2_audioblock.csv,A,283,,,,,,,,,0,1,1,0,0,0,0,12,,,,,,,,,,,,,,,,,,,,,,,,,,,,,,,,,,,,,,,,,,,,,,,,,,,,,,,,,,,,,,,,,,,,,,,,,,,,,,,1344.127742496028,None,space,4.444694282952696,1344.227752842009,None,1348.697754257999,None,1353.0277785540093,1353.0377874990227,1353.0277884310926,None,space,0.43666759302141145,1353.0277785540093,None,None,1350.1978421540116,1353.0177843419951,1350.1978421540116,None,1353.5677923529875,None,1353.567893307074,1353.6678083169973,,,,,,,,,,,,,,,,,,,,,,,,2,001,2022_Nov_21_1609,Cognition2_FullCode1,2021.2.3,100.02265410431252,
,,,,,,,,,,,,,,,,,,,,,,,,,,,,,,,,,,,,,,,,,,,,,,,/Users/shamslab/Desktop/Cognition2_FullExperimentFile/conditionFiles_SRT/2_audioblock.csv,A,167,,,,,,,,,0,1,1,0,0,1,1,15,,,,,,,,,,,,,,,,,,,,,,,,,,,,,,,,,,,,,,,,,,,,,,,,,,,,,,,,,,,,,,,,,,,,,,,,,,,,,,,,,,,,,1353.8677996179904,None,1357.0378553909832,1357.0477925359737,1357.0378911051084,None,space,0.18655501399189234,1357.0378553909832,None,None,1355.3677508030087,1357.027887016011,1355.3677508030087,None,1357.3277864879929,None,1357.327825620072,1357.4277711460018,,,,,,,,,,,,,,,,,,,,,,,,2,001,2022_Nov_21_1609,Cognition2_FullCode1,2021.2.3,100.02265410431252,
,,,,,,,,,,,,,,,,,,,,,,,,,,,,,,,,,,,,,,,,,,,,,,,/Users/shamslab/Desktop/Cognition2_FullExperimentFile/conditionFiles_SRT/2_audioblock.csv,A,51,,,,,,,,,0,1,1,0,0,2,2,21,,,,,,,,,,,,,,,,,,,,,,,,,,,,,,,,,,,,,,,,,,,,,,,,,,,,,,,,,,,,,,,,,,,,,,,,,,,,,,,,,,,,,1357.62778674101,None,1359.6379042409826,1359.647789432027,1359.6378053411026,None,space,0.30654969898751006,1359.6379042409826,None,None,1359.1278906710213,1359.6278012520052,1359.1278906710213,None,1360.0478138920153,None,1360.0478438711143,1360.1478288330254,,,,,,,,,,,,,,,,,,,,,,,,2,001,2022_Nov_21_1609,Cognition2_FullCode1,2021.2.3,100.02265410431252,
,,,,,,,,,,,,,,,,,,,,,,,,,,,,,,,,,,,,,,,,,,,,,,,/Users/shamslab/Desktop/Cognition2_FullExperimentFile/conditionFiles_SRT/2_audioblock.csv,A,252,,,,,,,,,0,1,1,0,0,3,3,0,,,,,,,,,,,,,,,,,,,,,,,,,,,,,,,,,,,,,,,,,,,,,,,,,,,,,,,,,,,,,,,,,,,,,,,,,,,,,,,,,,,,,1360.347807683982,None,1364.367821226013,1364.3778501240304,1364.3678640811122,None,space,0.1766104490379803,1364.367821226013,None,None,1361.847782507015,1364.3578599920147,1361.847782507015,None,1364.6478832649882,None,1364.6478561540716,1364.747851260996,,,,,,,,,,,,,,,,,,,,,,,,2,001,2022_Nov_21_1609,Cognition2_FullCode1,2021.2.3,100.02265410431252,
,,,,,,,,,,,,,,,,,,,,,,,,,,,,,,,,,,,,,,,,,,,,,,,/Users/shamslab/Desktop/Cognition2_FullExperimentFile/conditionFiles_SRT/2_audioblock.csv,A,342,,,,,,,,,0,1,1,0,0,4,4,13,,,,,,,,,,,,,,,,,,,,,,,,,,,,,,,,,,,,,,,,,,,,,,,,,,,,,,,,,,,,,,,,,,,,,,,,,,,,,,,,,,,,,1364.9478304259828,None,1369.867879263009,1369.8778546489775,1369.8678361991188,None,space,0.2605536540504545,1369.867879263009,None,None,1366.4478629700025,1369.8578321100213,1366.4478629700025,None,1370.237831491977,None,1370.2379023681278,1370.3378641899908,,,,,,,,,,,,,,,,,,,,,,,,2,001,2022_Nov_21_1609,Cognition2_FullCode1,2021.2.3,100.02265410431252,
,,,,,,,,,,,,,,,,,,,,,,,,,,,,,,,,,,,,,,,,,,,,,,,/Users/shamslab/Desktop/Cognition2_FullExperimentFile/conditionFiles_SRT/2_audioblock.csv,A,352,,,,,,,,,0,1,1,0,0,5,5,4,,,,,,,,,,,,,,,,,,,,,,,,,,,,,,,,,,,,,,,,,,,,,,,,,,,,,,,,,,,,,,,,,,,,,,,,,,,,,,,,,,,,,1370.5378419309855,None,1375.5578501800192,1375.5678820799803,1375.5579004691099,None,space,0.2905974630266428,1375.5578501800192,None,None,1372.0378732879763,1375.5478963800124,1372.0378732879763,None,1375.9578476820025,None,1375.9578627670999,1376.0578817069763,,,,,,,,,,,,,,,,,,,,,,,,2,001,2022_Nov_21_1609,Cognition2_FullCode1,2021.2.3,100.02265410431252,
,,,,,,,,,,,,,,,,,,,,,,,,,,,,,,,,,,,,,,,,,,,,,,,/Users/shamslab/Desktop/Cognition2_FullExperimentFile/conditionFiles_SRT/2_audioblock.csv,A,70,,,,,,,,,0,1,1,0,0,6,6,20,,,,,,,,,,,,,,,,,,,,,,,,,,,,,,,,,,,,,,,,,,,,,,,,,,,,,,,,,,,,,,,,,,,,,,,,,,,,,,,,,,,,,1376.2579639509786,None,1378.457881418988,1378.4678919460275,1378.4579058100935,None,space,0.30263005400775,1378.457881418988,None,None,1377.757897250005,1378.447901720996,1377.757897250005,None,1378.86788926,None,1378.8678524391144,1378.9678910090006,,,,,,,,,,,,,,,,,,,,,,,,2,001,2022_Nov_21_1609,Cognition2_FullCode1,2021.2.3,100.02265410431252,
,,,,,,,,,,,,,,,,,,,,,,,,,,,,,,,,,,,,,,,,,,,,,,,/Users/shamslab/Desktop/Cognition2_FullExperimentFile/conditionFiles_SRT/2_audioblock.csv,A,371,,,,,,,,,0,1,1,0,0,7,7,25,,,,,,,,,,,,,,,,,,,,,,,,,,,,,,,,,,,,,,,,,,,,,,,,,,,,,,,,,,,,,,,,,,,,,,,,,,,,,,,,,,,,,1379.1678730000276,None,None,None,None,None,None,,None,None,space,1380.6679018799914,None,1380.6679018799914,None,1382.2279445839813,None,1382.227907184104,1382.727924679988,1.444528931984678,,,,,,,,,,,,,,,,,,,,,,,2,001,2022_Nov_21_1609,Cognition2_FullCode1,2021.2.3,100.02265410431252,
,,,,,,,,,,,,,,,,,,,,,,,,,,,,,,,,,,,,,,,,,,,,,,,/Users/shamslab/Desktop/Cognition2_FullExperimentFile/conditionFiles_SRT/2_audioblock.csv,A,397,,,,,,,,,0,1,1,0,0,8,8,22,,,,,,,,,,,,,,,,,,,,,,,,,,,,,,,,,,,,,,,,,,,,,,,,,,,,,,,,,,,,,,,,,,,,,,,,,,,,,,,,,,,,,1384.227982618031,None,1389.6979235230247,1389.7079348919797,1389.6979325010907,None,space,0.606506994983647,1389.6979235230247,None,None,1385.7279840530246,1389.6879284119932,1385.7279840530246,None,1390.4179543370265,None,1390.4179483521148,1390.5179367469973,,,,,,,,,,,,,,,,,,,,,,,,2,001,2022_Nov_21_1609,Cognition2_FullCode1,2021.2.3,100.02265410431252,
