filePaths,rhythm,stim1,stim2,stim3,stim4,stim5,stim6,stim1Start,stim1End,stim2Start,stim2End,stim3Start,stim3End,stim4Start,stim4End,stim5Start,stim5End,stim6Start,stim6End,audFile,audStart,similCat,rhythm_i2,stim1_i2,stim2_i2,stim3_i2,stim4_i2,stim5_i2,stim6_i2,stim1Start_i2,stim1End_i2,stim2Start_i2,stim2End_i2,stim3Start_i2,stim3End_i2,stim4Start_i2,stim4End_i2,stim5Start_i2,stim5End_i2,stim6Start_i2,stim6End_i2,audFile_i2,audStart_i2,similCat_i2,setVol,corrMatchAnswer,condFilePath,sensoryCond,stimStart,overallRhythmOrder.thisRepN,overallRhythmOrder.thisTrialN,overallRhythmOrder.thisN,overallRhythmOrder.thisIndex,AudVisRhythmLoop.thisRepN,AudVisRhythmLoop.thisTrialN,AudVisRhythmLoop.thisN,AudVisRhythmLoop.thisIndex,pickingSRTCond.thisRepN,pickingSRTCond.thisTrialN,pickingSRTCond.thisN,pickingSRTCond.thisIndex,srtTrials.thisRepN,srtTrials.thisTrialN,srtTrials.thisN,srtTrials.thisIndex,text_3.started,text_3.stopped,goToNext.keys,goToNext.rt,goToNext.started,goToNext.stopped,variableInstructions.started,variableInstructions.stopped,goToBlockKey.keys,goToBlockKey.rt,goToBlockKey.started,goToBlockKey.stopped,text_2.started,text_2.stopped,preFix.started,preFix.stopped,holdFix.started,holdFix.stopped,cir1.started,cir1.stopped,cir2.started,cir2.stopped,cir3.started,cir3.stopped,cir4.started,cir4.stopped,cir5.started,cir5.stopped,cir6.started,cir6.stopped,audioTrialSound.started,audioTrialSound.stopped,text.started,text.stopped,holdFix_i2.started,holdFix_i2.stopped,cir1_i2.started,cir1_i2.stopped,cir2_i2.started,cir2_i2.stopped,cir3_i2.started,cir3_i2.stopped,cir4_i2.started,cir4_i2.stopped,cir5_i2.started,cir5_i2.stopped,cir6_i2.started,cir6_i2.stopped,audioTrialSound_i2.started,audioTrialSound_i2.stopped,rhythmChoice.keys,rhythmChoice.rt,rhythmChoice.started,rhythmChoice.stopped,promptTxt.started,promptTxt.stopped,breatheBro.started,breatheBro.stopped,image.started,image.stopped,keyToGo.keys,keyToGo.rt,keyToGo.started,keyToGo.stopped,spaceTxt.started,spaceTxt.stopped,mainInstrText.started,mainInstrText.stopped,MoveToMainTask.keys,MoveToMainTask.rt,MoveToMainTask.started,MoveToMainTask.stopped,whichBlkTxt.started,whichBlkTxt.stopped,LetsGoGirls.keys,LetsGoGirls.rt,LetsGoGirls.started,LetsGoGirls.stopped,fixCross.started,fixCross.stopped,gratingStim.started,gratingStim.stopped,beepStim.started,beepStim.stopped,yesHitIt.keys,yesHitIt.rt,yesHitIt.started,yesHitIt.stopped,catchEarly.keys,catchEarly.started,catchEarly.stopped,text_4.started,text_4.stopped,feedbackIfNeeded.started,feedbackIfNeeded.stopped,annoyingBeep.started,annoyingBeep.stopped,wordListTime,wordRecallInstr.started,wordRecallInstr.stopped,keytoWords.keys,keytoWords.rt,keytoWords.started,keytoWords.stopped,textForWords.text,textForWords.started,textForWords.stopped,wordText.started,wordText.stopped,wordTestTiming.keys,wordTestTiming.rt,wordTestTiming.started,wordTestTiming.stopped,participant,session,date,expName,psychopyVersion,frameRate,
,,,,,,,,,,,,,,,,,,,,,,,,,,,,,,,,,,,,,,,,,,,,,,,,,,,,,,,,,,,,,,,,,,10.840421639964916,None,space,55.435599596996326,11.030421468953136,None,,,,,,,,,,,,,,,,,,,,,,,,,,,,,,,,,,,,,,,,,,,,,,,,,,,,,,,,,,,,,,,,,,,,,,,,,,,,,,,,,,,,,,,,,,,,,,,,,,,,,,,,,,,,3,001,2022_Dec_01_1721,Cognition2_FullCode1,2021.2.3,99.93299391711844,
/Users/shamslab/Desktop/Cognition2_FullExperimentFile/3_VisualBlock1.csv,18,2,2,1,1,2,1,11,41,53,83,95,100,112,117,129,159,171,176,3_audFile.wav,10,7,16,2,2,1,2,1,1,11,41,53,83,95,100,112,142,154,159,171,176,3_audFile.wav,10,7,0,2,,,,0,0,0,0,0,0,0,7,,,,,,,,,,,,,,,66.60064494900871,None,space,6.581324039027095,66.70064941595774,None,73.33064984797966,None,73.52064351300942,None,74.52072687196778,None,74.63069688895484,74.9306799689657,75.05073170596734,75.35068944998784,75.47071749198949,75.52064292697469,75.64068577298895,75.69069144799141,75.81069081096211,76.11068923899438,76.23067800299032,76.28062872297596,74.62068866717746,None,76.38064748700708,None,77.69074005796574,None,77.80067008599872,78.10070075799013,78.22072376997676,78.52079204196343,78.64071565895574,78.6906612389721,78.81071453099139,79.11069848196348,79.23068358696764,79.2806940790033,79.40072314598365,79.45067716896301,77.79070703616017,None,1,0.7033022199757397,80.05070680595236,None,80.05070680595236,None,,,,,,,,,,,,,,,,,,,,,,,,,,,,,,,,,,,,,,,,,,,,,,,,,,,,,,,,,,3,001,2022_Dec_01_1721,Cognition2_FullCode1,2021.2.3,99.93299391711844,
/Users/shamslab/Desktop/Cognition2_FullExperimentFile/3_VisualBlock1.csv,28,1,2,1,1,2,2,11,16,28,58,70,75,87,92,104,134,146,176,3_audFile.wav,10,5,22,1,2,1,2,2,1,11,16,28,58,70,75,87,117,129,159,171,176,3_audFile.wav,10,5,0,2,,,,0,0,0,0,0,1,1,6,,,,,,,,,,,,,,,,,,,,,80.7806723289541,None,80.96070363599574,81.96067070000572,81.98069947998738,None,82.09069749398623,82.14068599097664,82.26073122996604,82.56074556999374,82.68067523400532,82.73095552896848,82.85076692595612,82.90075092500774,83.02066369797103,83.32069915899774,83.44070878997445,83.7407062809798,82.08074842120405,None,83.84066793799866,None,85.14074740296928,None,85.25076001696289,85.30076117499266,85.42083533696132,85.72071265295381,85.84067694796249,85.89077478297986,86.010784477985,86.31072055496043,86.43073349498445,86.73071938299108,86.85072056599893,86.90074490295956,85.24072258320521,None,2,0.4132958659902215,87.50074457598384,None,87.50074457598384,None,,,,,,,,,,,,,,,,,,,,,,,,,,,,,,,,,,,,,,,,,,,,,,,,,,,,,,,,,,3,001,2022_Dec_01_1721,Cognition2_FullCode1,2021.2.3,99.93299391711844,
/Users/shamslab/Desktop/Cognition2_FullExperimentFile/3_VisualBlock1.csv,21,2,1,1,2,2,1,11,41,53,58,70,75,87,117,129,159,171,176,3_audFile.wav,10,6,17,2,1,2,2,1,1,11,41,53,58,70,100,112,142,154,159,171,176,3_audFile.wav,10,6,0,2,,,,0,0,0,0,0,2,2,4,,,,,,,,,,,,,,,,,,,,,87.94086987996707,None,88.12074454000685,89.12074506399222,89.14077253395226,None,89.25074314197991,89.55071909597609,89.6707665619906,89.72073527297471,89.84076532896142,89.89073595398804,90.01076081895735,90.31073521595681,90.43072203197517,90.73070333496435,90.85071937198518,90.90087284700712,89.24078257120564,None,91.00076868495671,None,92.30077143397648,None,92.41074008395663,92.71071382495575,92.83083519397769,92.8807745379745,93.00076229596743,93.30076828500023,93.42081374599366,93.72075677500106,93.84074050799245,93.89077519497368,94.01077891199384,94.06072604696965,92.40071449318785,None,2,3.1572436449932866,94.66076151095331,None,94.66076151095331,None,,,,,,,,,,,,,,,,,,,,,,,,,,,,,,,,,,,,,,,,,,,,,,,,,,,,,,,,,,3,001,2022_Dec_01_1721,Cognition2_FullCode1,2021.2.3,99.93299391711844,
/Users/shamslab/Desktop/Cognition2_FullExperimentFile/3_VisualBlock1.csv,18,2,2,1,1,2,1,11,41,53,83,95,100,112,117,129,159,171,176,3_audFile.wav,10,7,18,2,2,1,1,2,1,11,41,53,83,95,100,112,117,129,159,171,176,3_audFile.wav,10,7,0,1,,,,0,0,0,0,0,3,3,31,,,,,,,,,,,,,,,,,,,,,97.83081182697788,None,98.02074806997553,99.02082524000434,99.03079113195417,None,99.14078769099433,99.44076009298442,99.56082624098053,99.86079287400935,99.98078347195406,100.03076540399343,100.15074356499827,100.20077360299183,100.32078374398407,100.62078270496568,100.74077914399095,100.79077895497903,99.13075769215939,None,100.89072825096082,None,102.19079025200335,None,102.3008256299654,102.60080193897011,102.72087497997563,103.02083641296485,103.14079142798437,103.19080192199908,103.31077854300383,103.36078682396328,103.48082095797872,103.78084056900116,103.90080640296219,103.95078549295431,102.29076796520386,None,1,0.5153346000006422,104.55074219999369,None,104.55074219999369,None,,,,,,,,,,,,,,,,,,,,,,,,,,,,,,,,,,,,,,,,,,,,,,,,,,,,,,,,,,3,001,2022_Dec_01_1721,Cognition2_FullCode1,2021.2.3,99.93299391711844,
/Users/shamslab/Desktop/Cognition2_FullExperimentFile/3_VisualBlock1.csv,27,1,1,2,2,1,2,11,16,28,33,45,75,87,117,129,134,146,176,3_audFile.wav,10,4,27,1,1,2,2,1,2,11,16,28,33,45,75,87,117,129,134,146,176,3_audFile.wav,10,4,0,1,,,,0,0,0,0,0,4,4,22,,,,,,,,,,,,,,,,,,,,,105.08083360997261,None,105.270764811954,106.27077056199778,106.28084048995515,None,106.39084899198497,106.44078723195707,106.56086881295778,106.61080856097396,106.73078368097777,107.0307765409816,107.1507962589967,107.45079321297817,107.57076632697135,107.620868959988,107.74079439800698,108.04083470400656,106.38076030318044,None,108.1409088599612,None,109.44083833199693,None,109.55079654796282,109.60084756097058,109.72078878700268,109.77078032196732,109.89084082399495,110.19078117900062,110.31081676098984,110.61087264097296,110.73079802200664,110.78081471601035,110.9008564419928,111.20087802095804,109.54076595220832,None,1,38.24920012598159,111.80082047200995,None,111.80082047200995,None,,,,,,,,,,,,,,,,,,,,,,,,,,,,,,,,,,,,,,,,,,,,,,,,,,,,,,,,,,3,001,2022_Dec_01_1721,Cognition2_FullCode1,2021.2.3,99.93299391711844,
/Users/shamslab/Desktop/Cognition2_FullExperimentFile/3_VisualBlock1.csv,26,1,2,1,2,1,2,11,16,28,58,70,75,87,117,129,134,146,176,3_audFile.wav,10,5,26,1,2,1,2,1,2,11,16,28,58,70,75,87,117,129,134,146,176,3_audFile.wav,10,5,0,1,,,,0,0,0,0,0,5,5,15,,,,,,,,,,,,,,,,,,,,,150.0609845079598,None,150.2509423099691,151.25093019695487,151.2610726619605,None,151.3711014899891,151.4209688619594,151.54096857598051,151.84099134098506,151.96099094901,152.01095352700213,152.13094500696752,152.4309593969956,152.5509518989711,152.60096561000682,152.72100302495528,153.02098658698378,151.36095796415466,None,153.120982695953,None,154.42099506797967,None,154.5309607409872,154.58105414896272,154.70099054597085,155.00097268499667,155.1210115950089,155.17098924599122,155.29100397700677,155.5909758239868,155.7109733359539,155.76104439498158,155.88110485498328,156.1809536909568,154.52094222116867,None,2,0.5010333620011806,156.78098432300612,None,156.78098432300612,None,,,,,,,,,,,,,,,,,,,,,,,,,,,,,,,,,,,,,,,,,,,,,,,,,,,,,,,,,,3,001,2022_Dec_01_1721,Cognition2_FullCode1,2021.2.3,99.93299391711844,
/Users/shamslab/Desktop/Cognition2_FullExperimentFile/3_VisualBlock1.csv,26,1,2,1,2,1,2,11,16,28,58,70,75,87,117,129,134,146,176,3_audFile.wav,10,5,22,1,2,1,2,2,1,11,16,28,58,70,75,87,117,129,159,171,176,3_audFile.wav,10,5,0,2,,,,0,0,0,0,0,6,6,24,,,,,,,,,,,,,,,,,,,,,157.30100738600595,None,157.49100022396306,158.49110549897887,158.50101667799754,None,158.61094417999266,158.66101168398745,158.78103739500511,159.08107250498142,159.20101555500878,159.25099829898681,159.37110185599886,159.67109930497827,159.7911110529676,159.84106152498862,159.96102069999324,160.26105066697346,158.6009973631648,None,160.361006616964,None,161.66101997700753,None,161.7710161189898,161.82106565800495,161.94105586298974,162.2410447319853,162.36107169796014,162.4109636489884,162.53101745195454,162.83102882897947,162.95101423899177,163.2510156389908,163.37096295895753,163.42103106697323,161.76094606216648,None,2,0.09303562302375212,164.02101945795584,None,164.02101945795584,None,,,,,,,,,,,,,,,,,,,,,,,,,,,,,,,,,,,,,,,,,,,,,,,,,,,,,,,,,,3,001,2022_Dec_01_1721,Cognition2_FullCode1,2021.2.3,99.93299391711844,
/Users/shamslab/Desktop/Cognition2_FullExperimentFile/3_VisualBlock1.csv,17,2,1,2,2,1,1,11,41,53,58,70,100,112,142,154,159,171,176,3_audFile.wav,10,6,17,2,1,2,2,1,1,11,41,53,58,70,100,112,142,154,159,171,176,3_audFile.wav,10,6,0,1,,,,0,0,0,0,0,7,7,5,,,,,,,,,,,,,,,,,,,,,164.13095985300606,None,164.32108704099664,165.3210684079677,165.33103710098658,None,165.44109052297426,165.74105767399305,165.8610714660026,165.9110255469568,166.03105915698688,166.33103711297736,166.45103650499368,166.75101491098758,166.870992963959,166.92105558299227,167.0410668849945,167.09100100200158,165.4310718982073,None,167.1911252560094,None,168.4910674659768,None,168.60104943497572,168.90105881600175,169.0210324699874,169.07114200200886,169.1910923619871,169.49104229098884,169.61102738097543,169.91104623000138,170.03108289296506,170.08106185600627,170.2011095659691,170.25113063695608,168.5910684602044,None,1,3.582959090010263,170.85110251995502,None,170.85110251995502,None,,,,,,,,,,,,,,,,,,,,,,,,,,,,,,,,,,,,,,,,,,,,,,,,,,,,,,,,,,3,001,2022_Dec_01_1721,Cognition2_FullCode1,2021.2.3,99.93299391711844,
/Users/shamslab/Desktop/Cognition2_FullExperimentFile/3_VisualBlock1.csv,21,2,1,1,2,2,1,11,41,53,58,70,75,87,117,129,159,171,176,3_audFile.wav,10,6,21,2,1,1,2,2,1,11,41,53,58,70,75,87,117,129,159,171,176,3_audFile.wav,10,6,0,1,,,,0,0,0,0,0,8,8,13,,,,,,,,,,,,,,,,,,,,,174.4511268819915,None,174.64107099798275,175.64116054098122,175.65107117500156,None,175.76109596400056,176.0611869589775,176.18107623397373,176.2311665189918,176.35105230397312,176.40110160800396,176.52107948396588,176.82109467498958,176.94108285498805,177.241093944991,177.3610940449871,177.4110539079993,175.75110128016095,None,177.5110647789552,None,178.81106710399035,None,178.92113672895357,179.22108531795675,179.3411126129795,179.39113129099132,179.51105701900087,179.5612169179949,179.68111897696508,179.98109862895217,180.1011231179582,180.40111353097018,180.5211239209748,180.5710432389751,178.9111069381528,None,1,0.46298389602452517,181.17108406696934,None,181.17108406696934,None,,,,,,,,,,,,,,,,,,,,,,,,,,,,,,,,,,,,,,,,,,,,,,,,,,,,,,,,,,3,001,2022_Dec_01_1721,Cognition2_FullCode1,2021.2.3,99.93299391711844,
/Users/shamslab/Desktop/Cognition2_FullExperimentFile/3_VisualBlock1.csv,22,1,2,1,2,2,1,11,16,28,58,70,75,87,117,129,159,171,176,3_audFile.wav,10,5,22,1,2,1,2,2,1,11,16,28,58,70,75,87,117,129,159,171,176,3_audFile.wav,10,5,0,1,,,,0,0,0,0,0,9,9,26,,,,,,,,,,,,,,,,,,,,,181.65106618299615,None,181.8411040509818,182.8411320479936,182.85115475900238,None,182.96115518000443,183.0111785629997,183.13111603696598,183.43127347296104,183.55112720798934,183.60108410095563,183.7211148829665,184.0211110569653,184.14113026997074,184.44116117595695,184.56110010296106,184.6110871990095,182.9511063671729,None,184.711232326983,None,186.01108871999895,None,186.12124192598276,186.17108058795566,186.29112164495746,186.5911211789935,186.71113384095952,186.7611122590024,186.88113039999735,187.18112342699897,187.30112459795782,187.60113044496393,187.72115601896076,187.77109463198576,186.1112277772103,None,2,0.35890393098816276,188.3711192389601,None,188.3711192389601,None,,,,,,,,,,,,,,,,,,,,,,,,,,,,,,,,,,,,,,,,,,,,,,,,,,,,,,,,,,3,001,2022_Dec_01_1721,Cognition2_FullCode1,2021.2.3,99.93299391711844,
/Users/shamslab/Desktop/Cognition2_FullExperimentFile/3_VisualBlock1.csv,23,2,1,2,1,1,2,11,41,53,58,70,100,112,117,129,134,146,176,3_audFile.wav,10,6,23,2,1,2,1,1,2,11,41,53,58,70,100,112,117,129,134,146,176,3_audFile.wav,10,6,0,1,,,,0,0,0,0,0,10,10,18,,,,,,,,,,,,,,,,,,,,,188.74114659696352,None,188.93112411600305,189.93109666695818,189.9411412779591,None,190.0511315249605,190.3511303740088,190.4711176090059,190.5211378139793,190.64112512895372,190.94127386098262,191.06117499998072,191.11114726500819,191.23113795096288,191.28113182098605,191.40112562995637,191.70115313498536,190.04112957418548,None,191.80112125596497,None,193.10117286699824,None,193.21114519896219,193.51116460899357,193.63113919296302,193.68124806997366,193.80129726498853,194.1011747639859,194.2211899079848,194.27115704596508,194.39112529496197,194.44119767297525,194.5611465940019,194.86112986400258,193.201137594186,None,1,0.33289905299898237,195.46116709295893,None,195.46116709295893,None,,,,,,,,,,,,,,,,,,,,,,,,,,,,,,,,,,,,,,,,,,,,,,,,,,,,,,,,,,3,001,2022_Dec_01_1721,Cognition2_FullCode1,2021.2.3,99.93299391711844,
/Users/shamslab/Desktop/Cognition2_FullExperimentFile/3_VisualBlock1.csv,16,2,2,1,2,1,1,11,41,53,83,95,100,112,142,154,159,171,176,3_audFile.wav,10,7,18,2,2,1,1,2,1,11,41,53,83,95,100,112,117,129,159,171,176,3_audFile.wav,10,7,0,2,,,,0,0,0,0,0,11,11,25,,,,,,,,,,,,,,,,,,,,,195.81113918300252,None,196.0011593469535,197.00118135800585,197.01113476295723,None,197.1211622490082,197.42118939897045,197.54118673800258,197.84118389897048,197.96117839898216,198.01113620295655,198.13112143799663,198.4311546429526,198.55115798296174,198.6011790629709,198.72113840997918,198.7711962959729,197.11118475220283,None,198.87113540899009,None,200.1712418459938,None,200.28119402501034,200.58119115495356,200.7011729279766,201.00116490700748,201.1211723460001,201.17129312298493,201.2911446520011,201.34115123399533,201.46117530198535,201.76124235696625,201.8811996729928,201.93114493699977,200.27120202320512,None,1,0.5268580869887955,202.53115081199212,None,202.53115081199212,None,,,,,,,,,,,,,,,,,,,,,,,,,,,,,,,,,,,,,,,,,,,,,,,,,,,,,,,,,,3,001,2022_Dec_01_1721,Cognition2_FullCode1,2021.2.3,99.93299391711844,
/Users/shamslab/Desktop/Cognition2_FullExperimentFile/3_VisualBlock1.csv,16,2,2,1,2,1,1,11,41,53,83,95,100,112,142,154,159,171,176,3_audFile.wav,10,7,16,2,2,1,2,1,1,11,41,53,83,95,100,112,142,154,159,171,176,3_audFile.wav,10,7,0,1,,,,0,0,0,0,0,12,12,17,,,,,,,,,,,,,,,,,,,,,203.07122491300106,None,203.2612017369829,204.26128208596492,204.27116394398035,None,204.381218680006,204.6811967769754,204.80120616400382,205.10121581697604,205.2211891199695,205.27126561600016,205.39115634700283,205.69119726400822,205.8112123819883,205.86122663295828,205.98118788097054,206.0311728399829,204.37120355218067,None,206.1311944790068,None,207.43119065999053,None,207.54121258400846,207.84123580995947,207.96118039998692,208.26130371895852,208.38119344599545,208.431179229985,208.55127873900346,208.85116303199902,208.97120537998853,209.0212130539585,209.14122300298186,209.1912007299834,207.53123511520099,None,1,0.09876825497485697,209.7912808060064,None,209.7912808060064,None,,,,,,,,,,,,,,,,,,,,,,,,,,,,,,,,,,,,,,,,,,,,,,,,,,,,,,,,,,3,001,2022_Dec_01_1721,Cognition2_FullCode1,2021.2.3,99.93299391711844,
/Users/shamslab/Desktop/Cognition2_FullExperimentFile/3_VisualBlock1.csv,17,2,1,2,2,1,1,11,41,53,58,70,100,112,142,154,159,171,176,3_audFile.wav,10,6,25,2,1,1,2,1,2,11,41,53,58,70,75,87,117,129,134,146,176,3_audFile.wav,10,6,0,2,,,,0,0,0,0,0,13,13,0,,,,,,,,,,,,,,,,,,,,,209.90122368198354,None,210.0911707659834,211.09117425099248,211.10125512100058,None,211.21128896495793,211.5111953529995,211.63120013900334,211.68125723296544,211.80127568298485,212.10122930799844,212.22123785095755,212.52133333100937,212.64123718900373,212.69119553396013,212.81119244196452,212.8612512049731,211.20119596017176,None,212.9612754979753,None,214.2612556690001,None,214.37119881395483,214.6712408909807,214.7911874599522,214.84123386797728,214.96121246396797,215.01128901197808,215.1312026079977,215.43118551099906,215.55123197799549,215.60124009195715,215.7212538329768,216.02124265296152,214.36124158918975,None,1,0.2927331509999931,216.62132076895796,None,216.62132076895796,None,,,,,,,,,,,,,,,,,,,,,,,,,,,,,,,,,,,,,,,,,,,,,,,,,,,,,,,,,,3,001,2022_Dec_01_1721,Cognition2_FullCode1,2021.2.3,99.93299391711844,
/Users/shamslab/Desktop/Cognition2_FullExperimentFile/3_VisualBlock1.csv,17,2,1,2,2,1,1,11,41,53,58,70,100,112,142,154,159,171,176,3_audFile.wav,10,6,25,2,1,1,2,1,2,11,41,53,58,70,75,87,117,129,134,146,176,3_audFile.wav,10,6,0,2,,,,0,0,0,0,0,14,14,23,,,,,,,,,,,,,,,,,,,,,216.93120412999997,None,217.12124900898198,218.1212463559932,218.13125057297293,None,218.24128234700765,218.5412854309543,218.66135729296366,218.71122074296,218.83125465700869,219.131195215974,219.25124682899332,219.55131980695296,219.67121765797492,219.72123806196032,219.84132462897105,219.89123138599098,218.23127164116013,None,219.99120498797856,None,221.29127420700388,None,221.4013537580031,221.70128340896918,221.82128651597304,221.87124312500237,221.9912502799998,222.04135120095452,222.161329569004,222.46124749898445,222.5813522999524,222.63126778200967,222.75128420098918,223.05124080000678,221.39126529318165,None,2,0.6867418439942412,223.65126708697062,None,223.65126708697062,None,,,,,,,,,,,,,,,,,,,,,,,,,,,,,,,,,,,,,,,,,,,,,,,,,,,,,,,,,,3,001,2022_Dec_01_1721,Cognition2_FullCode1,2021.2.3,99.93299391711844,
/Users/shamslab/Desktop/Cognition2_FullExperimentFile/3_VisualBlock1.csv,22,1,2,1,2,2,1,11,16,28,58,70,75,87,117,129,159,171,176,3_audFile.wav,10,5,24,1,2,2,1,1,2,11,16,28,58,70,100,112,117,129,134,146,176,3_audFile.wav,10,5,0,2,,,,0,0,0,0,0,15,15,20,,,,,,,,,,,,,,,,,,,,,224.35124765196815,None,224.54130212799646,225.54134490998695,225.56133161101025,None,225.6712909899652,225.72132808400784,225.84146487998078,226.14125189796323,226.26134296599776,226.31132271396928,226.43138778896537,226.73140870896168,226.85129508498358,227.15132864797488,227.27130942500662,227.32131026498973,225.66140121315257,None,227.42126236698823,None,228.73126643599244,None,228.84129134495743,228.89124115300365,229.0112817499903,229.31131302798167,229.4312949499581,229.73127882397966,229.85138658300275,229.90134319796925,230.0214129939559,230.07135404995643,230.19135556800757,230.4912935679895,228.83128797216924,None,2,0.6466776249581017,231.09132280299673,None,231.09132280299673,None,,,,,,,,,,,,,,,,,,,,,,,,,,,,,,,,,,,,,,,,,,,,,,,,,,,,,,,,,,3,001,2022_Dec_01_1721,Cognition2_FullCode1,2021.2.3,99.93299391711844,
/Users/shamslab/Desktop/Cognition2_FullExperimentFile/3_VisualBlock1.csv,27,1,1,2,2,1,2,11,16,28,33,45,75,87,117,129,134,146,176,3_audFile.wav,10,4,29,1,1,2,1,2,2,11,16,28,33,45,75,87,92,104,134,146,176,3_audFile.wav,10,4,0,2,,,,0,0,0,0,0,16,16,8,,,,,,,,,,,,,,,,,,,,,231.7513019350008,None,231.94138847698923,232.9413209069753,232.9513048689696,None,233.06133692798903,233.11152410600334,233.23136804898968,233.28129925695248,233.4015140059637,233.70136081200326,233.8213056079694,234.1213488630019,234.2413533880026,234.29135499399854,234.4112833319814,234.71129934297642,233.0513593431737,None,234.81127122195903,None,236.11136916698888,None,236.22133698797552,236.27125393797178,236.39130219595972,236.4413193879882,236.56132102798438,236.86134013498668,236.98133569798665,237.03135586500866,237.1512834559544,237.45135068596574,237.57129480398726,237.87124685297022,236.2112998601573,None,1,0.874696098966524,238.471319801989,None,238.471319801989,None,,,,,,,,,,,,,,,,,,,,,,,,,,,,,,,,,,,,,,,,,,,,,,,,,,,,,,,,,,3,001,2022_Dec_01_1721,Cognition2_FullCode1,2021.2.3,99.93299391711844,
/Users/shamslab/Desktop/Cognition2_FullExperimentFile/3_VisualBlock1.csv,25,2,1,1,2,1,2,11,41,53,58,70,75,87,117,129,134,146,176,3_audFile.wav,10,6,25,2,1,1,2,1,2,11,41,53,58,70,75,87,117,129,134,146,176,3_audFile.wav,10,6,0,1,,,,0,0,0,0,0,17,17,12,,,,,,,,,,,,,,,,,,,,,239.36135713697877,None,239.55136352597037,240.55139504000545,240.56135520600947,None,240.67127807595534,240.97132136498112,241.09129870298784,241.14142411295325,241.26133098400896,241.31136910396162,241.43137648398988,241.7313006509794,241.85128767299466,241.90138957096497,242.02132414199878,242.32134103198769,240.6613332551846,None,242.42141064396128,None,243.72135489998618,None,243.83135353896068,244.1313146809698,244.25136371096596,244.30144783499418,244.42133683897555,244.4714542189613,244.59129532100633,244.89141695998842,245.01135587500175,245.06133191200206,245.1813635409926,245.4813400209532,243.82133066619863,None,1,0.040689250046852976,246.08133781899232,None,246.08133781899232,None,,,,,,,,,,,,,,,,,,,,,,,,,,,,,,,,,,,,,,,,,,,,,,,,,,,,,,,,,,3,001,2022_Dec_01_1721,Cognition2_FullCode1,2021.2.3,99.93299391711844,
/Users/shamslab/Desktop/Cognition2_FullExperimentFile/3_VisualBlock1.csv,19,2,1,2,1,2,1,11,41,53,58,70,100,112,117,129,159,171,176,3_audFile.wav,10,6,19,2,1,2,1,2,1,11,41,53,58,70,100,112,117,129,159,171,176,3_audFile.wav,10,6,0,1,,,,0,0,0,0,0,18,18,28,,,,,,,,,,,,,,,,,,,,,246.14134168298915,None,246.33130845997948,247.3313316879794,247.34140596998623,None,247.45132856897544,247.7513437779853,247.87139322399162,247.92137997795362,248.0413480839925,248.34136066498468,248.4613784509711,248.51139363995753,248.63147398998262,248.93132897396572,249.05135741300182,249.1013620219892,247.44136332919007,None,249.20134437299566,None,250.5014000699739,None,250.61139839299722,250.91142394195776,251.03145756799495,251.08138241700362,251.20136746397475,251.50147607398685,251.62137684295885,251.67134624399478,251.79134704195894,252.09137415897567,252.21136992896209,252.26140785898315,250.6012921962014,None,2,0.6127323870314285,252.8613643219578,None,252.8613643219578,None,,,,,,,,,,,,,,,,,,,,,,,,,,,,,,,,,,,,,,,,,,,,,,,,,,,,,,,,,,3,001,2022_Dec_01_1721,Cognition2_FullCode1,2021.2.3,99.93299391711844,
/Users/shamslab/Desktop/Cognition2_FullExperimentFile/3_VisualBlock1.csv,20,1,2,2,1,2,1,11,16,28,58,70,100,112,117,129,159,171,176,3_audFile.wav,10,5,24,1,2,2,1,1,2,11,16,28,58,70,100,112,117,129,134,146,176,3_audFile.wav,10,5,0,2,,,,0,0,0,0,0,19,19,9,,,,,,,,,,,,,,,,,,,,,253.49141063599382,None,253.68138362199534,254.68144478596514,254.69143004895886,None,254.80140304198721,254.85143707797397,254.971371557971,255.27136230800534,255.39142567897215,255.6913781669573,255.81141950795427,255.86141363199567,255.98141857696464,256.2814030579757,256.40136631100904,256.45139925798867,254.79139618820628,None,256.5513827469549,None,257.85140445799334,None,257.9614052809775,258.0114033279824,258.1314420469571,258.43147672497435,258.5514096719562,258.85145075496985,258.9713875759626,259.02140645997133,259.14137052797014,259.1914122669841,259.3114032379817,259.6113881219644,257.95139850117846,None,1,1.0546138110221364,260.21145237999735,None,260.21145237999735,None,,,,,,,,,,,,,,,,,,,,,,,,,,,,,,,,,,,,,,,,,,,,,,,,,,,,,,,,,,3,001,2022_Dec_01_1721,Cognition2_FullCode1,2021.2.3,99.93299391711844,
/Users/shamslab/Desktop/Cognition2_FullExperimentFile/3_VisualBlock1.csv,25,2,1,1,2,1,2,11,41,53,58,70,75,87,117,129,134,146,176,3_audFile.wav,10,6,25,2,1,1,2,1,2,11,41,53,58,70,75,87,117,129,134,146,176,3_audFile.wav,10,6,0,1,,,,0,0,0,0,0,20,20,14,,,,,,,,,,,,,,,,,,,,,261.28144949499983,None,261.4714937270037,262.47136912395945,262.4814577400102,None,262.5913794399821,262.89144207397476,263.01140518597094,263.0614339899621,263.18145704997005,263.23147527099354,263.351422259002,263.65153904398903,263.7713827450061,263.82148396695266,263.9414439089596,264.2414800549741,262.58137011615906,None,264.34143631596817,None,265.64146761700977,None,265.751389884972,266.05140961596044,266.1715006749728,266.22144373500487,266.3414129859884,266.3915057089762,266.51141099998495,266.8114196069655,266.93141918000765,266.98144754295936,267.10144276800565,267.4014991639997,265.7414143991831,None,1,1.0005309390253387,268.0014575839741,None,268.0014575839741,None,,,,,,,,,,,,,,,,,,,,,,,,,,,,,,,,,,,,,,,,,,,,,,,,,,,,,,,,,,3,001,2022_Dec_01_1721,Cognition2_FullCode1,2021.2.3,99.93299391711844,
/Users/shamslab/Desktop/Cognition2_FullExperimentFile/3_VisualBlock1.csv,29,1,1,2,1,2,2,11,16,28,33,45,75,87,92,104,134,146,176,3_audFile.wav,10,4,27,1,1,2,2,1,2,11,16,28,33,45,75,87,117,129,134,146,176,3_audFile.wav,10,4,0,2,,,,0,0,0,0,0,21,21,27,,,,,,,,,,,,,,,,,,,,,269.0214589089737,None,269.2114153080038,270.2114749929751,270.2214772019652,None,270.3314834619523,270.381475762988,270.50149870396126,270.55142242397415,270.6714201020077,270.9715260939556,271.09142530401004,271.14144476299407,271.26143991795834,271.5614495849586,271.6814716659719,271.98146445601014,270.3214177842077,None,272.0814716379973,None,273.3814809930045,None,273.491445157968,273.54147063195705,273.66149078297894,273.7114646449918,273.8314376339549,274.13152692100266,274.25144276797073,274.5514941979782,274.67145035095746,274.7214400509838,274.841466192971,275.14146326697664,273.4814537561673,None,1,1.2685963650001213,275.7414698039647,None,275.7414698039647,None,,,,,,,,,,,,,,,,,,,,,,,,,,,,,,,,,,,,,,,,,,,,,,,,,,,,,,,,,,3,001,2022_Dec_01_1721,Cognition2_FullCode1,2021.2.3,99.93299391711844,
/Users/shamslab/Desktop/Cognition2_FullExperimentFile/3_VisualBlock1.csv,24,1,2,2,1,1,2,11,16,28,58,70,100,112,117,129,134,146,176,3_audFile.wav,10,5,24,1,2,2,1,1,2,11,16,28,58,70,100,112,117,129,134,146,176,3_audFile.wav,10,5,0,1,,,,0,0,0,0,0,22,22,16,,,,,,,,,,,,,,,,,,,,,277.02147138200235,None,277.21148171200184,278.2114409809583,278.2215264230035,None,278.33146367396694,278.3816005749977,278.50146884599235,278.80161204899196,278.9214856119943,279.22162059595576,279.34158689400647,279.39147691597464,279.51156896399334,279.56159608997405,279.68150723096915,279.98151837300975,278.32146286120985,None,280.0815457649878,None,281.381518922979,None,281.49153727595694,281.5415725099738,281.66151155898115,281.96153375995345,282.08154105296126,282.38148768496467,282.5015091919922,282.5514656479936,282.6714938739897,282.72149514296325,282.84151027799817,283.141519073979,281.4814457561646,None,2,0.3325488129630685,283.74154377297964,None,283.74154377297964,None,,,,,,,,,,,,,,,,,,,,,,,,,,,,,,,,,,,,,,,,,,,,,,,,,,,,,,,,,,3,001,2022_Dec_01_1721,Cognition2_FullCode1,2021.2.3,99.93299391711844,
/Users/shamslab/Desktop/Cognition2_FullExperimentFile/3_VisualBlock1.csv,23,2,1,2,1,1,2,11,41,53,58,70,100,112,117,129,134,146,176,3_audFile.wav,10,6,17,2,1,2,2,1,1,11,41,53,58,70,100,112,142,154,159,171,176,3_audFile.wav,10,6,0,2,,,,0,0,0,0,0,23,23,2,,,,,,,,,,,,,,,,,,,,,284.09150116395904,None,284.2815406289883,285.28151550499024,285.29149288201006,None,285.40154161996907,285.7015140069998,285.82150490698405,285.8715830639703,285.9915013400023,286.29156994697405,286.41148805298144,286.46158152696444,286.58155817800434,286.6315109040006,286.75149341195356,287.05152213800466,285.3915405761858,None,287.1515676319832,None,288.45149704196956,None,288.56156472000293,288.86158813000657,288.98154019296635,289.03147456696024,289.1515184819582,289.451577232976,289.57148350798525,289.8715059259557,289.9915024769725,290.04152713000076,290.1615508099785,290.2115044159582,288.55152260215834,None,2,0.42253785399952903,290.8115300019854,None,290.8115300019854,None,,,,,,,,,,,,,,,,,,,,,,,,,,,,,,,,,,,,,,,,,,,,,,,,,,,,,,,,,,3,001,2022_Dec_01_1721,Cognition2_FullCode1,2021.2.3,99.93299391711844,
/Users/shamslab/Desktop/Cognition2_FullExperimentFile/3_VisualBlock1.csv,29,1,1,2,1,2,2,11,16,28,33,45,75,87,92,104,134,146,176,3_audFile.wav,10,4,29,1,1,2,1,2,2,11,16,28,33,45,75,87,92,104,134,146,176,3_audFile.wav,10,4,0,1,,,,0,0,0,0,0,24,24,21,,,,,,,,,,,,,,,,,,,,,291.2515345189604,None,291.4415268529556,292.44163317995844,292.45151494897436,None,292.56156053900486,292.6115306969732,292.73171023098985,292.78155592799885,292.90153302199906,293.2015555019607,293.32161578995874,293.37155068898574,293.4914987909724,293.79150658100843,293.9115185349947,294.2115737249842,292.551528477174,None,294.31154684495414,None,295.6116004859796,None,295.72154312196653,295.77150822698604,295.8916511749849,295.9415375450044,296.06154467596207,296.3615536039579,296.4815468500019,296.5315093799727,296.6515321600018,296.95158271398395,297.07151314796647,297.3715330589912,295.71154415020135,None,2,1.0544627620256506,297.9715362939751,None,297.9715362939751,None,,,,,,,,,,,,,,,,,,,,,,,,,,,,,,,,,,,,,,,,,,,,,,,,,,,,,,,,,,3,001,2022_Dec_01_1721,Cognition2_FullCode1,2021.2.3,99.93299391711844,
/Users/shamslab/Desktop/Cognition2_FullExperimentFile/3_VisualBlock1.csv,28,1,2,1,1,2,2,11,16,28,58,70,75,87,92,104,134,146,176,3_audFile.wav,10,5,28,1,2,1,1,2,2,11,16,28,58,70,75,87,92,104,134,146,176,3_audFile.wav,10,5,0,1,,,,0,0,0,0,0,25,25,19,,,,,,,,,,,,,,,,,,,,,299.0416072559892,None,299.2315179950092,300.231579512998,300.241572688974,None,300.3515821599867,300.4016383829876,300.5216985239531,300.8215557030053,300.94157098798314,300.9915588029544,301.11159945995314,301.1617280789651,301.281566013,301.5815762449638,301.7015840029926,302.0015673949965,300.34158827516364,None,302.101593069965,None,303.40165059798164,None,303.5115995059605,303.56157955899835,303.6816236549639,303.98157887597336,304.1015904920059,304.1515789529658,304.271574118,304.3216148419888,304.44165649596835,304.7416307789972,304.86166786198737,305.1616763519705,303.5015599631646,None,1,1.6804342980030924,305.76159852795536,None,305.76159852795536,None,,,,,,,,,,,,,,,,,,,,,,,,,,,,,,,,,,,,,,,,,,,,,,,,,,,,,,,,,,3,001,2022_Dec_01_1721,Cognition2_FullCode1,2021.2.3,99.93299391711844,
/Users/shamslab/Desktop/Cognition2_FullExperimentFile/3_VisualBlock1.csv,25,2,1,1,2,1,2,11,41,53,58,70,75,87,117,129,134,146,176,3_audFile.wav,10,6,17,2,1,2,2,1,1,11,41,53,58,70,100,112,142,154,159,171,176,3_audFile.wav,10,6,0,2,,,,0,0,0,0,0,26,26,3,,,,,,,,,,,,,,,,,,,,,307.4616108330083,None,307.65167180099525,308.6515521229594,308.6616351659759,None,308.77158754400443,309.07163857197156,309.1915579380002,309.24166392796906,309.36159889400005,309.41161366296,309.53162965300726,309.8315923810005,309.9516454729601,310.00163106800755,310.12167349795345,310.4216304429574,308.76157603716126,None,310.52159506396856,None,311.82164577400545,None,311.93160566099687,312.2316087909858,312.35159446595935,312.40160747495247,312.5216376669705,312.8217799969716,312.94164958701003,313.24161751696374,313.3616675629746,313.4116171039641,313.53162503195927,313.5816149250022,311.92159384216063,None,2,0.028379650961142033,314.181625934958,None,314.181625934958,None,,,,,,,,,,,,,,,,,,,,,,,,,,,,,,,,,,,,,,,,,,,,,,,,,,,,,,,,,,3,001,2022_Dec_01_1721,Cognition2_FullCode1,2021.2.3,99.93299391711844,
/Users/shamslab/Desktop/Cognition2_FullExperimentFile/3_VisualBlock1.csv,20,1,2,2,1,2,1,11,16,28,58,70,100,112,117,129,159,171,176,3_audFile.wav,10,5,22,1,2,1,2,2,1,11,16,28,58,70,75,87,117,129,159,171,176,3_audFile.wav,10,5,0,2,,,,0,0,0,0,0,27,27,11,,,,,,,,,,,,,,,,,,,,,314.22167749598157,None,314.41159138898365,315.41164654295426,315.42168691399274,None,315.53166525496636,315.58160209300695,315.7016314129578,316.00169228197774,316.1216717949719,316.42178483196767,316.5416163909831,316.5915675389697,316.7116013109917,317.011703451979,317.131630340009,317.18163884297246,315.5216365761647,None,317.2816477189772,None,318.5816831589909,None,318.69161479495233,318.7416690730024,318.86178707896033,319.16163518995745,319.28164754400495,319.3316815730068,319.4516370149795,319.7516971929581,319.8716471680091,320.1716270899633,320.2916609100066,320.3416579339537,318.6816147961712,None,2,2.1403994289576076,320.9416544350097,None,320.9416544350097,None,,,,,,,,,,,,,,,,,,,,,,,,,,,,,,,,,,,,,,,,,,,,,,,,,,,,,,,,,,3,001,2022_Dec_01_1721,Cognition2_FullCode1,2021.2.3,99.93299391711844,
/Users/shamslab/Desktop/Cognition2_FullExperimentFile/3_VisualBlock1.csv,27,1,1,2,2,1,2,11,16,28,33,45,75,87,117,129,134,146,176,3_audFile.wav,10,4,27,1,1,2,2,1,2,11,16,28,33,45,75,87,117,129,134,146,176,3_audFile.wav,10,4,0,1,,,,0,0,0,0,0,28,28,29,,,,,,,,,,,,,,,,,,,,,323.101869229984,None,323.2916296499898,324.291684744996,324.30175474699354,None,324.4116603109869,324.4616577400011,324.5817899899557,324.6317373099737,324.7516581710079,325.05167121096747,325.1716661719838,325.47174770600395,325.5916729589808,325.6416573559982,325.76167167298263,326.0616708199959,324.40175036219296,None,326.16169088101014,None,327.4616925480077,None,327.57164116500644,327.62179218698293,327.7416949030012,327.7916498699924,327.91165394795826,328.2117430259823,328.3316859389888,328.6316171750077,328.75167589995544,328.8016747899819,328.9217572750058,329.22170143498806,327.5616600351699,None,1,0.4762851310078986,329.8217484509805,None,329.8217484509805,None,,,,,,,,,,,,,,,,,,,,,,,,,,,,,,,,,,,,,,,,,,,,,,,,,,,,,,,,,,3,001,2022_Dec_01_1721,Cognition2_FullCode1,2021.2.3,99.93299391711844,
/Users/shamslab/Desktop/Cognition2_FullExperimentFile/3_VisualBlock1.csv,20,1,2,2,1,2,1,11,16,28,58,70,100,112,117,129,159,171,176,3_audFile.wav,10,5,20,1,2,2,1,2,1,11,16,28,58,70,100,112,117,129,159,171,176,3_audFile.wav,10,5,0,1,,,,0,0,0,0,0,29,29,1,,,,,,,,,,,,,,,,,,,,,330.31167676096084,None,330.5017829599674,331.5016935719759,331.51168012199923,None,331.62170062900987,331.67175388499163,331.7916873669601,332.0916653010063,332.21164383896394,332.51168313395465,332.6316892679897,332.6817602739902,332.8017315939651,333.1018125959672,333.22170747898053,333.2716763649951,331.61168506218235,None,333.3716391909984,None,334.67167137999786,None,334.78174763696734,334.8316770750098,334.9516717759543,335.25174372800393,335.37169605400413,335.67172247200506,335.7916783730034,335.8417617629748,335.9617111789994,336.26169330696575,336.381742166006,336.4316930369823,334.7716873011726,None,1,0.28239697200478986,337.03163800999755,None,337.03163800999755,None,,,,,,,,,,,,,,,,,,,,,,,,,,,,,,,,,,,,,,,,,,,,,,,,,,,,,,,,,,3,001,2022_Dec_01_1721,Cognition2_FullCode1,2021.2.3,99.93299391711844,
/Users/shamslab/Desktop/Cognition2_FullExperimentFile/3_VisualBlock1.csv,24,1,2,2,1,1,2,11,16,28,58,70,100,112,117,129,134,146,176,3_audFile.wav,10,5,26,1,2,1,2,1,2,11,16,28,58,70,75,87,117,129,134,146,176,3_audFile.wav,10,5,0,2,,,,0,0,0,0,0,30,30,10,,,,,,,,,,,,,,,,,,,,,337.3317096729879,None,337.52174615999684,338.5216989349574,338.53172675700625,None,338.6417476559873,338.69172097800765,338.81170157395536,339.1116882429924,339.231689526001,339.53170503798174,339.6517180519877,339.7016930760001,339.8217199689825,339.8717328129569,339.9917119879974,340.29171795299044,338.6317669992044,None,340.39172060298733,None,341.69177503400715,None,341.80177877796814,341.8517551829573,341.97171033895575,342.27164836600423,342.391764741973,342.4417453769711,342.5617536549689,342.86175381497014,342.9817780259764,343.0318127059727,343.1517510350095,343.4516959269531,341.7917288302036,None,1,0.606315087992698,344.051722573,None,344.051722573,None,,,,,,,,,,,,,,,,,,,,,,,,,,,,,,,,,,,,,,,,,,,,,,,,,,,,,,,,,,3,001,2022_Dec_01_1721,Cognition2_FullCode1,2021.2.3,99.93299391711844,
/Users/shamslab/Desktop/Cognition2_FullExperimentFile/3_VisualBlock1.csv,19,2,1,2,1,2,1,11,41,53,58,70,100,112,117,129,159,171,176,3_audFile.wav,10,6,21,2,1,1,2,2,1,11,41,53,58,70,75,87,117,129,159,171,176,3_audFile.wav,10,6,0,2,,,,0,0,0,0,0,31,31,30,,,,,,,,,,,,,,,,,,,,,344.67172212095466,None,344.8617529759649,345.86173135298304,345.8718072559568,None,345.9817102319794,346.28179814398754,346.40178143099183,346.4518026940059,346.5717206900008,346.87177838396747,346.9917093460099,347.0418322960031,347.161761683994,347.46177374600666,347.58178743196186,347.63172677200055,345.97175983316845,None,347.7317369109951,None,349.03181074600434,None,349.1417568969773,349.4417663249769,349.5617934729671,349.6118297249777,349.7317762149614,349.78179170098156,349.90178321197163,350.2017906209803,350.3217984169605,350.6217544839601,350.7417852549697,350.7917417199933,349.1317769291985,None,1,0.3462765150470659,351.3917333029676,None,351.3917333029676,None,,,,,,,,,,,,,,,,,,,,,,,,,,,,,,,,,,,,,,,,,,,,,,,,,,,,,,,,,,3,001,2022_Dec_01_1721,Cognition2_FullCode1,2021.2.3,99.93299391711844,
/Users/shamslab/Desktop/Cognition2_FullExperimentFile/3_VisualBlock1.csv,,,,,,,,,,,,,,,,,,,,,,,,,,,,,,,,,,,,,,,,,,,,,,,,,,0,0,0,0,,,,,,,,,,,,,,,,,,,,,,,,,,,,,,,,,,,,,,,,,,,,,,,,,,,,,,,,,,,,,,,,,,,,,351.7617594510084,None,351.7617594510084,None,,,,,,,,,,,,,,,,,,,,,,,,,,,,,,,,,,,,,,,,,,,,,,,,,,,,,,3,001,2022_Dec_01_1721,Cognition2_FullCode1,2021.2.3,99.93299391711844,
/Users/shamslab/Desktop/Cognition2_FullExperimentFile/3_AudioBlock1.csv,10,1,2,2,1,2,1,11,16,28,58,70,100,112,117,129,159,171,176,11_audFile.wav,10,1,10,1,2,2,1,2,1,11,16,28,58,70,100,112,117,129,159,171,176,11_audFile.wav,10,1,1,1,,,,0,1,1,1,0,0,0,24,,,,,,,,,,,,,,,411.8720397829893,None,space,10.438020016998053,411.9719955739565,None,422.45205773197813,None,422.64200314495247,None,423.63205253198976,None,423.7420599599718,423.7920687919832,423.9120516719995,424.2121214320068,424.33210702298675,424.63209921400994,424.75205782597186,424.802011021995,424.92206031200476,425.2220258349553,425.34200775495265,425.39204632496694,423.7320212061808,None,425.4920802929555,None,426.7920917579904,None,426.90205737395445,426.9520787450019,427.07209620799404,427.3721782109933,427.49207615398336,427.79209646896925,427.912064049975,427.96207632200094,428.08202903997153,428.38202135200845,428.50208077096613,428.5520863789716,426.89203106816274,None,1,0.6819190320093185,429.1520865109633,None,429.1520865109633,None,,,,,,,,,,,,,,,,,,,,,,,,,,,,,,,,,,,,,,,,,,,,,,,,,,,,,,,,,,3,001,2022_Dec_01_1721,Cognition2_FullCode1,2021.2.3,99.93299391711844,
/Users/shamslab/Desktop/Cognition2_FullExperimentFile/3_AudioBlock1.csv,0,2,2,1,2,1,2,11,41,53,83,95,100,112,142,154,159,171,201,1_audFile.wav,10,3,0,2,2,1,2,1,2,11,41,53,83,95,100,112,142,154,159,171,201,1_audFile.wav,10,3,1,1,,,,0,1,1,1,0,1,1,9,,,,,,,,,,,,,,,,,,,,,429.8520981319598,None,430.0420759769622,431.04203649098054,431.0521521740011,432.91210775100626,431.16218123899307,431.4620837639668,431.58211888896767,431.88213372800965,432.00203505996615,432.0521722830017,432.1721182689653,432.47207445598906,432.5921306019882,432.64214668999193,432.76210738898953,None,431.15202243620877,None,433.0620429959963,None,434.36210941598983,None,434.4721216969774,434.7721340999706,434.89209695195314,435.1921721089748,435.3121857669903,435.3621228109696,435.4820996779599,435.782080459001,435.9021367469686,435.95208553096745,436.07210806099465,436.3721669180086,434.4621062721766,None,1,0.46394558204337955,436.72212197998306,None,436.72212197998306,None,,,,,,,,,,,,,,,,,,,,,,,,,,,,,,,,,,,,,,,,,,,,,,,,,,,,,,,,,,3,001,2022_Dec_01_1721,Cognition2_FullCode1,2021.2.3,99.93299391711844,
/Users/shamslab/Desktop/Cognition2_FullExperimentFile/3_AudioBlock1.csv,11,2,1,1,2,2,1,11,41,53,58,70,75,87,117,129,159,171,176,12_audFile.wav,10,2,11,2,1,1,2,2,1,11,41,53,58,70,75,87,117,129,159,171,176,12_audFile.wav,10,2,1,1,,,,0,1,1,1,0,2,2,23,,,,,,,,,,,,,,,,,,,,,437.2020789909875,None,437.39212184096687,438.39210713497596,438.6921649479773,None,438.80211468599737,439.1020849159686,439.222111976007,439.27207709895447,439.3920681499876,439.4421835569665,439.5621196759748,439.862116639968,439.98217794898665,440.28215110400924,440.4022227799869,440.45209402695764,438.79211946519206,None,440.55208209500415,None,441.8521090039867,None,441.9621323609608,442.2622394479695,442.3821708249743,442.43207198695745,442.55209474795265,442.60213274596026,442.72241848596605,443.0221134579624,443.1421210129629,443.44211475900374,443.562170988007,443.61211559397634,441.9521500612085,None,1,0.34998969704611227,444.21209640899906,None,444.21209640899906,None,,,,,,,,,,,,,,,,,,,,,,,,,,,,,,,,,,,,,,,,,,,,,,,,,,,,,,,,,,3,001,2022_Dec_01_1721,Cognition2_FullCode1,2021.2.3,99.93299391711844,
/Users/shamslab/Desktop/Cognition2_FullExperimentFile/3_AudioBlock1.csv,12,1,2,1,2,2,1,11,16,28,58,70,75,87,117,129,159,171,176,13_audFile.wav,10,1,15,1,2,1,2,1,2,11,16,28,58,70,75,87,117,129,134,146,176,16_audFile.wav,10,1,1,2,,,,0,1,1,1,0,3,3,10,,,,,,,,,,,,,,,,,,,,,444.5721959499642,None,444.7621367679676,445.76214666699525,445.7721394159598,None,445.8822298949817,445.93217951996485,446.0521233929903,446.35209304996533,446.4721586079686,446.5221572739538,446.6421248719562,446.94213341898285,447.0621810279554,447.3622222369886,447.482156456972,447.5322478619637,445.87212814519296,None,447.63213950797217,None,448.93213904299773,None,449.0421499579679,449.0922611049609,449.2121323219617,449.51213865500176,449.63214338599937,449.68224359699525,449.8021503269556,450.10215838596923,450.22228088596603,450.2721249559545,450.39222421700833,450.69213573797606,449.0321781282022,None,1,0.4138600149890408,451.2921461609658,None,451.2921461609658,None,,,,,,,,,,,,,,,,,,,,,,,,,,,,,,,,,,,,,,,,,,,,,,,,,,,,,,,,,,3,001,2022_Dec_01_1721,Cognition2_FullCode1,2021.2.3,99.93299391711844,
/Users/shamslab/Desktop/Cognition2_FullExperimentFile/3_AudioBlock1.csv,8,2,2,1,1,2,1,11,41,53,83,95,100,112,117,129,159,171,176,9_audFile.wav,10,3,8,2,2,1,1,2,1,11,41,53,83,95,100,112,117,129,159,171,176,9_audFile.wav,10,3,1,1,,,,0,1,1,1,0,4,4,0,,,,,,,,,,,,,,,,,,,,,451.72219106700504,None,451.912152631965,452.9121242740075,452.9221776149934,None,453.03211497096345,453.33217898599105,453.45229344198015,453.75215048296377,453.8721516059595,453.9223079949734,454.0421813359717,454.09213995496975,454.21215287497034,454.51213456399273,454.6321429369855,454.68216954299714,453.02214085817684,None,454.78221321100136,None,456.0822392019909,None,456.1921254720073,456.49217543698614,456.61216029297793,456.91214171698084,457.03217869100627,457.08217694197083,457.20221183396643,457.2521594509599,457.37224763899576,457.6721421839902,457.7921656589606,457.8421929029864,456.18215605518196,None,1,0.5518210410373285,458.4421947239898,None,458.4421947239898,None,,,,,,,,,,,,,,,,,,,,,,,,,,,,,,,,,,,,,,,,,,,,,,,,,,,,,,,,,,3,001,2022_Dec_01_1721,Cognition2_FullCode1,2021.2.3,99.93299391711844,
/Users/shamslab/Desktop/Cognition2_FullExperimentFile/3_AudioBlock1.csv,2,1,2,2,2,1,2,11,16,28,58,70,100,112,142,154,159,171,201,3_audFile.wav,10,1,2,1,2,2,2,1,2,11,16,28,58,70,100,112,142,154,159,171,201,3_audFile.wav,10,1,1,1,,,,0,1,1,1,0,5,5,30,,,,,,,,,,,,,,,,,,,,,459.01216299599037,None,459.202139135974,460.2021865120041,460.2121970859589,462.0721689629718,460.3222151210066,460.37229726999067,460.4921716739773,460.7921947549912,460.9121989639825,461.21224883996183,461.33220915996935,461.6321728809853,461.7522059449693,461.8023069339688,461.9221980779548,None,460.31213830720515,None,462.2221990179969,None,463.5222475779592,None,463.6323224049993,463.6822464650031,463.8022320989985,464.1022493930068,464.2221878049895,464.5222062189714,464.6422023489722,464.9422495839535,465.06220555095933,465.1121924709878,465.2322214979795,465.5321810040041,463.62217559316775,None,1,0.30367643403587863,465.8823310689768,None,465.8823310689768,None,,,,,,,,,,,,,,,,,,,,,,,,,,,,,,,,,,,,,,,,,,,,,,,,,,,,,,,,,,3,001,2022_Dec_01_1721,Cognition2_FullCode1,2021.2.3,99.93299391711844,
/Users/shamslab/Desktop/Cognition2_FullExperimentFile/3_AudioBlock1.csv,9,2,1,2,1,2,1,11,41,53,58,70,100,112,117,129,159,171,176,10_audFile.wav,10,2,7,2,1,2,2,1,1,11,41,53,58,70,100,112,142,154,159,171,176,8_audFile.wav,10,2,1,2,,,,0,1,1,1,0,6,6,6,,,,,,,,,,,,,,,,,,,,,466.20223268697737,None,466.3921872769715,467.3922093239962,467.4022265409585,None,467.51225625898223,467.8121761640068,467.93219809798757,467.9822368019959,468.1022491269978,468.4022673009895,468.5222590609919,468.57224853296066,468.6922391469707,468.9921912889695,469.11222909699427,469.1622907589772,467.5022616071568,None,469.26225177099695,None,470.56228155997815,None,470.6722766679595,470.97228918998735,471.09225725597935,471.1422613399918,471.26225160900503,471.5623071200098,471.6822737589828,471.98225936095696,472.1023043949972,472.1522197150043,472.27222123596584,472.322256451007,470.6622068021737,None,1,0.3117531209718436,472.9222552969586,None,472.9222552969586,None,,,,,,,,,,,,,,,,,,,,,,,,,,,,,,,,,,,,,,,,,,,,,,,,,,,,,,,,,,3,001,2022_Dec_01_1721,Cognition2_FullCode1,2021.2.3,99.93299391711844,
/Users/shamslab/Desktop/Cognition2_FullExperimentFile/3_AudioBlock1.csv,14,2,1,1,2,1,2,11,41,53,58,70,75,87,117,129,134,146,176,15_audFile.wav,10,2,7,2,1,2,2,1,1,11,41,53,58,70,100,112,142,154,159,171,176,8_audFile.wav,10,2,1,2,,,,0,1,1,1,0,7,7,29,,,,,,,,,,,,,,,,,,,,,473.25221487600356,None,473.44224002200644,474.44223391998094,474.4522568419925,None,474.5623244679882,474.86226382898167,474.9822420749697,475.0322598909843,475.1522753559984,475.20224113500444,475.32236012397334,475.62233941000886,475.74224682099884,475.7922506110044,475.91226990899304,476.2122365569812,474.5523775401583,None,476.312236956961,None,477.61228164099157,None,477.72234497597674,478.0222931649769,478.14235248597106,478.1922636369709,478.31224815396126,478.61228466697503,478.73224909597775,479.03225514595397,479.1522340059746,479.20236510800896,479.32228361297166,479.3722519860021,477.7122521601908,None,1,0.5817493759677745,479.9722591529717,None,479.9722591529717,None,,,,,,,,,,,,,,,,,,,,,,,,,,,,,,,,,,,,,,,,,,,,,,,,,,,,,,,,,,3,001,2022_Dec_01_1721,Cognition2_FullCode1,2021.2.3,99.93299391711844,
/Users/shamslab/Desktop/Cognition2_FullExperimentFile/3_AudioBlock1.csv,13,2,1,2,1,1,2,11,41,53,58,70,100,112,117,129,134,146,176,14_audFile.wav,10,2,7,2,1,2,2,1,1,11,41,53,58,70,100,112,142,154,159,171,176,8_audFile.wav,10,2,1,2,,,,0,1,1,1,0,8,8,12,,,,,,,,,,,,,,,,,,,,,480.5722832659958,None,480.7623483539792,481.7622722599772,481.7722718269797,None,481.88228356296895,482.1823357369867,482.3022950539598,482.3523573569837,482.47229419701034,482.77226396399783,482.89224641397595,482.942290994979,483.06229603500105,483.1122605459532,483.23230226896703,483.5322897869628,481.87233241915817,None,483.6322926119901,None,484.9322778459755,None,485.0422979849973,485.34232631197665,485.462403952959,485.51226369297365,485.63225982297445,485.93231939396355,486.0522873509908,486.35229906096356,486.4722814759589,486.5222979459795,486.6423778779572,486.69230023398995,485.032324294158,None,1,0.8857725069974549,487.2922792219906,None,487.2922792219906,None,,,,,,,,,,,,,,,,,,,,,,,,,,,,,,,,,,,,,,,,,,,,,,,,,,,,,,,,,,3,001,2022_Dec_01_1721,Cognition2_FullCode1,2021.2.3,99.93299391711844,
/Users/shamslab/Desktop/Cognition2_FullExperimentFile/3_AudioBlock1.csv,4,1,2,2,1,2,2,11,16,28,58,70,100,112,117,129,159,171,201,5_audFile.wav,10,1,10,1,2,2,1,2,1,11,16,28,58,70,100,112,117,129,159,171,176,11_audFile.wav,10,1,1,2,,,,0,1,1,1,0,9,9,1,,,,,,,,,,,,,,,,,,,,,488.19229563098634,None,488.38232794200303,489.3823212069692,489.68233911599964,491.542301820009,489.79231126996456,489.84228482999606,489.96228719397914,490.2623000500025,490.3822756129666,490.68229236395564,490.802312226966,490.8522993209772,490.9723150070058,491.2723143119947,491.3923515069764,None,489.78241146117796,None,491.6923105730093,None,492.99240994197316,None,493.1022909010062,493.15232210297836,493.2724522819626,493.5723366269958,493.6923281389754,493.99228862300515,494.11234736599727,494.1623042099527,494.2823009410058,494.5823664359632,494.7023064189707,494.7524759389926,493.0923040291585,None,2,0.22563630598597229,495.3523762190016,None,495.3523762190016,None,,,,,,,,,,,,,,,,,,,,,,,,,,,,,,,,,,,,,,,,,,,,,,,,,,,,,,,,,,3,001,2022_Dec_01_1721,Cognition2_FullCode1,2021.2.3,99.93299391711844,
/Users/shamslab/Desktop/Cognition2_FullExperimentFile/3_AudioBlock1.csv,15,1,2,1,2,1,2,11,16,28,58,70,75,87,117,129,134,146,176,16_audFile.wav,10,1,2,1,2,2,2,1,2,11,16,28,58,70,100,112,142,154,159,171,201,3_audFile.wav,10,1,1,2,,,,0,1,1,1,0,10,10,19,,,,,,,,,,,,,,,,,,,,,495.59246631496353,None,495.78233797097346,496.78230306797195,496.7923634299659,None,496.9023316419916,496.9524454839993,497.0723511700053,497.3724939620006,497.4923324629781,497.54228966496885,497.66243023396237,497.9624714689562,498.0823196999845,498.13233962398954,498.2523477249779,498.55238402000396,496.89231343515564,None,498.6524730550009,None,499.9523984709522,None,500.0623216229724,500.11239853000734,500.2323472209973,500.53247556096176,500.6523767169565,500.95235987298656,501.07231834199047,501.3723405909841,501.4923580730101,501.5423398509738,501.66232348798076,501.9623392869835,500.0523562001821,None,2,0.18567048700060695,502.3123578130035,None,502.3123578130035,None,,,,,,,,,,,,,,,,,,,,,,,,,,,,,,,,,,,,,,,,,,,,,,,,,,,,,,,,,,3,001,2022_Dec_01_1721,Cognition2_FullCode1,2021.2.3,99.93299391711844,
/Users/shamslab/Desktop/Cognition2_FullExperimentFile/3_AudioBlock1.csv,6,2,2,1,2,1,1,11,41,53,83,95,100,112,142,154,159,171,176,7_audFile.wav,10,3,0,2,2,1,2,1,2,11,41,53,83,95,100,112,142,154,159,171,201,1_audFile.wav,10,3,1,2,,,,0,1,1,1,0,11,11,22,,,,,,,,,,,,,,,,,,,,,502.5123949520057,None,502.70244270795956,503.7023447929532,503.7223676769645,None,503.83230900997296,504.1323374820058,504.2523076600046,504.55235916696256,504.6723444130039,504.72239624295617,504.84236380900256,505.1423623219598,505.2623764369637,505.31234222697094,505.43234076100634,505.48242050997214,503.8223442051734,None,505.58237258100417,None,506.8823962069582,None,506.9923836889793,507.2923548509716,507.41238955198787,507.71230877097696,507.8323753309669,507.882371707994,508.00244378799107,508.3023648049566,508.4224368999712,508.47236370499013,508.5923870810075,508.89237732900074,506.98230007419477,None,1,0.9356330809532665,509.2423919099965,None,509.2423919099965,None,,,,,,,,,,,,,,,,,,,,,,,,,,,,,,,,,,,,,,,,,,,,,,,,,,,,,,,,,,3,001,2022_Dec_01_1721,Cognition2_FullCode1,2021.2.3,99.93299391711844,
/Users/shamslab/Desktop/Cognition2_FullExperimentFile/3_AudioBlock1.csv,0,2,2,1,2,1,2,11,41,53,83,95,100,112,142,154,159,171,201,1_audFile.wav,10,3,8,2,2,1,1,2,1,11,41,53,83,95,100,112,117,129,159,171,176,9_audFile.wav,10,3,1,2,,,,0,1,1,1,0,12,12,8,,,,,,,,,,,,,,,,,,,,,510.1923646889627,None,510.3824129769928,511.38241725898115,511.392421527009,513.2523802689975,511.502443409001,511.80242071900284,511.92243202996906,512.2224196409807,512.3424145699828,512.3923901459784,512.512410869007,512.8123800039757,512.9323730570031,512.9824061389663,513.1024234369979,None,511.4923757161654,None,513.4024292749818,None,514.7024558879784,None,514.8123961169622,515.1124070549849,515.232496497978,515.5324120599544,515.6524551369948,515.702522017993,515.8224273679662,515.8724138339749,515.9924026099616,516.2923839249997,516.4124680800014,516.4624468080001,514.8023941151972,None,2,0.299650973000098,517.0624270429835,None,517.0624270429835,None,,,,,,,,,,,,,,,,,,,,,,,,,,,,,,,,,,,,,,,,,,,,,,,,,,,,,,,,,,3,001,2022_Dec_01_1721,Cognition2_FullCode1,2021.2.3,99.93299391711844,
/Users/shamslab/Desktop/Cognition2_FullExperimentFile/3_AudioBlock1.csv,3,2,1,2,1,2,2,11,41,53,58,70,100,112,117,129,159,171,201,4_audFile.wav,10,2,3,2,1,2,1,2,2,11,41,53,58,70,100,112,117,129,159,171,201,4_audFile.wav,10,2,1,1,,,,0,1,1,1,0,13,13,14,,,,,,,,,,,,,,,,,,,,,517.3824307890027,None,517.5624711879645,518.5623656679527,518.592484548979,520.452403325995,518.702458137006,519.002470685984,519.1224586959579,519.1724167369539,519.2924102880061,519.5924216779531,519.7124101339723,519.7624240219593,519.8824450019747,520.1824532430037,520.3025060739601,None,518.6924708471691,None,520.602504562994,None,521.9024679159629,None,522.012468137953,522.3124580839649,522.4324840059853,522.4824857569765,522.6024655819638,522.9025665919762,523.0224732829956,523.0724135959754,523.1924479759764,523.4924487769604,523.6124822679558,523.912418405991,522.0024029821565,None,1,0.6835678979987279,524.2624664049945,None,524.2624664049945,None,,,,,,,,,,,,,,,,,,,,,,,,,,,,,,,,,,,,,,,,,,,,,,,,,,,,,,,,,,3,001,2022_Dec_01_1721,Cognition2_FullCode1,2021.2.3,99.93299391711844,
/Users/shamslab/Desktop/Cognition2_FullExperimentFile/3_AudioBlock1.csv,12,1,2,1,2,2,1,11,16,28,58,70,75,87,117,129,159,171,176,13_audFile.wav,10,1,12,1,2,1,2,2,1,11,16,28,58,70,75,87,117,129,159,171,176,13_audFile.wav,10,1,1,1,,,,0,1,1,1,0,14,14,28,,,,,,,,,,,,,,,,,,,,,524.9624720659922,None,525.152546645957,526.1524400509661,526.1624674229533,None,526.2724397959537,526.3224574030028,526.4424610749702,526.7424684609869,526.8625332809752,526.9124725449947,527.0324690859998,527.3325433359714,527.4524212519755,527.7524912119843,527.8724421740044,527.922446593002,526.2624901961593,None,528.022463316971,None,529.3225464519928,None,529.4324500139919,529.482470945979,529.6024496689788,529.9025057999534,530.022469529009,530.0724689589697,530.1924516049912,530.4924540490028,530.6124914449756,530.9124476989964,531.0324920599815,531.0825603919802,529.4224528811814,None,1,0.44746425905032083,531.682607766008,None,531.682607766008,None,,,,,,,,,,,,,,,,,,,,,,,,,,,,,,,,,,,,,,,,,,,,,,,,,,,,,,,,,,3,001,2022_Dec_01_1721,Cognition2_FullCode1,2021.2.3,99.93299391711844,
/Users/shamslab/Desktop/Cognition2_FullExperimentFile/3_AudioBlock1.csv,5,1,2,1,2,2,2,11,16,28,58,70,75,87,117,129,159,171,201,6_audFile.wav,10,1,2,1,2,2,2,1,2,11,16,28,58,70,100,112,142,154,159,171,201,3_audFile.wav,10,1,1,2,,,,0,1,1,1,0,15,15,7,,,,,,,,,,,,,,,,,,,,,532.1424822299741,None,532.332453274983,533.3325075089815,533.3425111609977,535.2025171649875,533.4524823739775,533.5025016139844,533.6226309649646,533.9225042779581,534.0425443429849,534.0924878930091,534.2125436039641,534.5125610039686,534.6324512879946,534.9324738020077,535.0525443049846,None,533.4424589001632,None,535.3524592079921,None,536.6524778399616,None,536.7625207199599,536.8124750439893,536.9324658829719,537.2324839409557,537.3524694279768,537.6524821039638,537.7725736929569,538.0724736499833,538.1924986179802,538.2425234999973,538.3626005229889,538.6625824429793,536.7525122072024,None,1,0.3495725489920005,539.0125204939977,None,539.0125204939977,None,,,,,,,,,,,,,,,,,,,,,,,,,,,,,,,,,,,,,,,,,,,,,,,,,,,,,,,,,,3,001,2022_Dec_01_1721,Cognition2_FullCode1,2021.2.3,99.93299391711844,
/Users/shamslab/Desktop/Cognition2_FullExperimentFile/3_AudioBlock1.csv,3,2,1,2,1,2,2,11,41,53,58,70,100,112,117,129,159,171,201,4_audFile.wav,10,2,13,2,1,2,1,1,2,11,41,53,58,70,100,112,117,129,134,146,176,14_audFile.wav,10,2,1,2,,,,0,1,1,1,0,16,16,13,,,,,,,,,,,,,,,,,,,,,539.3725794839556,None,539.5626170620089,540.5625327329617,540.5725848120055,542.4324920029612,540.6825402429677,540.9825307419524,541.1025101279956,541.1524986479781,541.2725055229967,541.5725783630041,541.69259366201,541.7425600609859,541.8625751109794,542.1625213529915,542.2825066680089,None,540.6725414351735,None,542.5825276160031,None,543.8825321549666,None,543.9925203289604,544.2925067089964,544.4125153360073,544.4625972220092,544.5825598060037,544.8825259269797,545.0025470579858,545.0525028209668,545.1725342779537,545.2225229209871,545.3425394899677,545.6425423150067,543.9825494271994,None,2,0.28750699997181073,546.24252479797,None,546.24252479797,None,,,,,,,,,,,,,,,,,,,,,,,,,,,,,,,,,,,,,,,,,,,,,,,,,,,,,,,,,,3,001,2022_Dec_01_1721,Cognition2_FullCode1,2021.2.3,99.93299391711844,
/Users/shamslab/Desktop/Cognition2_FullExperimentFile/3_AudioBlock1.csv,10,1,2,2,1,2,1,11,16,28,58,70,100,112,117,129,159,171,176,11_audFile.wav,10,1,12,1,2,1,2,2,1,11,16,28,58,70,75,87,117,129,159,171,176,13_audFile.wav,10,1,1,2,,,,0,1,1,1,0,17,17,11,,,,,,,,,,,,,,,,,,,,,546.5425900850096,None,546.7325199900079,547.7325005980092,547.7425623359741,None,547.8525101189734,547.9026250299648,548.0225417699548,548.3225582540035,548.4425496939803,548.7425788939581,548.8625484399963,548.9125034649624,549.0325886289938,549.3325501159998,549.4525164809893,549.5025710460031,547.8425211831985,None,549.6025771609857,None,550.9025720380014,None,551.0125344530097,551.0625866479822,551.1825616729911,551.4826024769573,551.6025691549876,551.6525873839855,551.7725265269983,552.0725392149761,552.1925745490007,552.4925355059677,552.6126035089837,552.6625703339814,551.0026074051915,None,2,0.2995406200061552,553.2625616249861,None,553.2625616249861,None,,,,,,,,,,,,,,,,,,,,,,,,,,,,,,,,,,,,,,,,,,,,,,,,,,,,,,,,,,3,001,2022_Dec_01_1721,Cognition2_FullCode1,2021.2.3,99.93299391711844,
/Users/shamslab/Desktop/Cognition2_FullExperimentFile/3_AudioBlock1.csv,11,2,1,1,2,2,1,11,41,53,58,70,75,87,117,129,159,171,176,12_audFile.wav,10,2,14,2,1,1,2,1,2,11,41,53,58,70,75,87,117,129,134,146,176,15_audFile.wav,10,2,1,2,,,,0,1,1,1,0,18,18,26,,,,,,,,,,,,,,,,,,,,,553.5725719159818,None,553.7625552929821,554.7625734989997,554.7726257129689,None,554.8826284380048,555.1826040759915,555.3026438929955,555.3525674630073,555.472603385977,555.5226647339878,555.642606895999,555.9425651549827,556.0626429749536,556.3626801879727,556.482558447984,556.5325726479641,554.8725645301805,None,556.6325369029655,None,557.9326086009969,None,558.0425774239702,558.3426225139992,558.4626012149965,558.5125722209923,558.6325870379806,558.6826461309684,558.802632528008,559.1025899529923,559.2226279529859,559.272706941003,559.3926081020036,559.6925766330096,558.0325719891756,None,1,0.42949703498743474,560.292596018,None,560.292596018,None,,,,,,,,,,,,,,,,,,,,,,,,,,,,,,,,,,,,,,,,,,,,,,,,,,,,,,,,,,3,001,2022_Dec_01_1721,Cognition2_FullCode1,2021.2.3,99.93299391711844,
/Users/shamslab/Desktop/Cognition2_FullExperimentFile/3_AudioBlock1.csv,7,2,1,2,2,1,1,11,41,53,58,70,100,112,142,154,159,171,176,8_audFile.wav,10,2,7,2,1,2,2,1,1,11,41,53,58,70,100,112,142,154,159,171,176,8_audFile.wav,10,2,1,1,,,,0,1,1,1,0,19,19,15,,,,,,,,,,,,,,,,,,,,,560.7325845820014,None,560.9225922150072,561.9226267059566,561.932618183957,None,562.042603186972,562.3426169999875,562.4625972170033,562.5125831000041,562.6325774109573,562.9325828650035,563.0525537059875,563.3527120910003,563.4725813239929,563.5226123129833,563.6426530010067,563.6926283919602,562.0326539481815,None,563.7925968099735,None,565.0925709289731,None,565.2026018809993,565.502686863998,565.6226209549932,565.6726235419628,565.792616562976,566.0926703489968,566.2126199089689,566.5126232489711,566.6326005219598,566.6826614819583,566.8026745559764,566.8525841099909,565.1925994372053,None,2,0.3094947600038722,567.4525901319575,None,567.4525901319575,None,,,,,,,,,,,,,,,,,,,,,,,,,,,,,,,,,,,,,,,,,,,,,,,,,,,,,,,,,,3,001,2022_Dec_01_1721,Cognition2_FullCode1,2021.2.3,99.93299391711844,
/Users/shamslab/Desktop/Cognition2_FullExperimentFile/3_AudioBlock1.csv,1,2,1,2,2,1,2,11,41,53,58,70,100,112,142,154,159,171,201,2_audFile.wav,10,2,11,2,1,1,2,2,1,11,41,53,58,70,75,87,117,129,159,171,176,12_audFile.wav,10,2,1,2,,,,0,1,1,1,0,20,20,4,,,,,,,,,,,,,,,,,,,,,567.7725947509753,None,567.9626093090046,568.962757258967,568.9725721579744,570.8325915699825,569.0826318879845,569.382642793993,569.5026852919837,569.5526276039891,569.6726031279541,569.9727036249824,570.0926277739927,570.3926282330067,570.5126576799667,570.5626661009737,570.6827289749635,None,569.0726754702104,None,570.9826515179593,None,572.28265530098,None,572.3926298099686,572.6925947679556,572.8125982129714,572.8626967269811,572.9826401440077,573.0326414129813,573.1526749439654,573.4526362309698,573.5726247729617,573.8726762419683,573.9926383339916,574.0426483789925,572.3826087491528,None,2,0.2874064680072479,574.6426542179543,None,574.6426542179543,None,,,,,,,,,,,,,,,,,,,,,,,,,,,,,,,,,,,,,,,,,,,,,,,,,,,,,,,,,,3,001,2022_Dec_01_1721,Cognition2_FullCode1,2021.2.3,99.93299391711844,
/Users/shamslab/Desktop/Cognition2_FullExperimentFile/3_AudioBlock1.csv,7,2,1,2,2,1,1,11,41,53,58,70,100,112,142,154,159,171,176,8_audFile.wav,10,2,3,2,1,2,1,2,2,11,41,53,58,70,100,112,117,129,159,171,201,4_audFile.wav,10,2,1,2,,,,0,1,1,1,0,21,21,20,,,,,,,,,,,,,,,,,,,,,574.942688376992,None,575.1326256289613,576.1326408309978,576.1426748529775,None,576.2526318159653,576.5526338719646,576.6726206569583,576.7227608319954,576.8427152759978,577.1426564319991,577.2626794159878,577.5626667529577,577.6827363659977,577.7326366289635,577.8526394229848,577.902751232963,576.24264575821,None,578.0026805559755,None,579.3027016620035,None,579.412658101006,579.7126432249788,579.8326978969853,579.8826727379928,580.0026959590032,580.302762458974,580.4226749219815,580.472648666997,580.5926517199841,580.8926547259907,581.0126839259756,581.3126574250055,579.4026514851779,None,2,0.4433074250118807,581.6627386269975,None,581.6627386269975,None,,,,,,,,,,,,,,,,,,,,,,,,,,,,,,,,,,,,,,,,,,,,,,,,,,,,,,,,,,3,001,2022_Dec_01_1721,Cognition2_FullCode1,2021.2.3,99.93299391711844,
/Users/shamslab/Desktop/Cognition2_FullExperimentFile/3_AudioBlock1.csv,8,2,2,1,1,2,1,11,41,53,83,95,100,112,117,129,159,171,176,9_audFile.wav,10,3,6,2,2,1,2,1,1,11,41,53,83,95,100,112,142,154,159,171,176,7_audFile.wav,10,3,1,2,,,,0,1,1,1,0,22,22,5,,,,,,,,,,,,,,,,,,,,,582.1226973489975,None,582.3126893799636,583.3126229869667,583.3226988349925,None,583.4326642749947,583.7326226439909,583.8526691109873,584.1526390039944,584.272631475993,584.3227212099591,584.4426916569937,584.492692396976,584.6126235539559,584.9126723699737,585.0326864849776,585.0826864150004,583.4227184391988,None,585.1826750569744,None,586.4827392249717,None,586.5926231750054,586.8926890099538,587.0126613559551,587.3126886099926,587.4326624679961,587.4827412400045,587.6027533349697,587.9027287960052,588.0226967099588,588.0726809930056,588.1926849829615,588.2427383149625,586.5826620081847,None,2,0.3352546939859167,588.8427517829696,None,588.8427517829696,None,,,,,,,,,,,,,,,,,,,,,,,,,,,,,,,,,,,,,,,,,,,,,,,,,,,,,,,,,,3,001,2022_Dec_01_1721,Cognition2_FullCode1,2021.2.3,99.93299391711844,
/Users/shamslab/Desktop/Cognition2_FullExperimentFile/3_AudioBlock1.csv,2,1,2,2,2,1,2,11,16,28,58,70,100,112,142,154,159,171,201,3_audFile.wav,10,1,10,1,2,2,1,2,1,11,16,28,58,70,100,112,117,129,159,171,176,11_audFile.wav,10,1,1,2,,,,0,1,1,1,0,23,23,21,,,,,,,,,,,,,,,,,,,,,589.1927138679894,None,589.3827584880055,590.3827096819878,590.392686792009,592.2526907380088,590.5027455469826,590.5527298829984,590.6726321319584,590.972655111982,591.0927045879653,591.3927348959842,591.5127205369645,591.812695777975,591.9327010790003,591.9827541819541,592.1027624389972,None,590.4927556722017,None,592.4027394889854,None,593.7027755469899,None,593.8127629009541,593.8627994679846,593.9827412909945,594.2828073980054,594.402811087959,594.7027332459693,594.8227397209848,594.87270278699,594.9927389019867,595.2928004969726,595.4127358769765,595.4627352129901,593.802710968192,None,2,0.2912569540203549,596.062751733989,None,596.062751733989,None,,,,,,,,,,,,,,,,,,,,,,,,,,,,,,,,,,,,,,,,,,,,,,,,,,,,,,,,,,3,001,2022_Dec_01_1721,Cognition2_FullCode1,2021.2.3,99.93299391711844,
/Users/shamslab/Desktop/Cognition2_FullExperimentFile/3_AudioBlock1.csv,9,2,1,2,1,2,1,11,41,53,58,70,100,112,117,129,159,171,176,10_audFile.wav,10,2,9,2,1,2,1,2,1,11,41,53,58,70,100,112,117,129,159,171,176,10_audFile.wav,10,2,1,1,,,,0,1,1,1,0,24,24,3,,,,,,,,,,,,,,,,,,,,,596.3727266629576,None,596.5627313579898,597.5627706559608,597.5728338109911,None,597.6827723599854,597.9827503259876,598.1028239449952,598.1527101259562,598.2727689020103,598.5727572519681,598.6927401249995,598.7428909429582,598.8627758509829,599.1627972229617,599.2827751739533,599.3327571429545,597.6728032392042,None,599.4326874359977,None,600.7327918939991,None,600.8428285850096,601.1428264919668,601.2628362859832,601.3127882299596,601.4327985499986,601.7327102730051,601.8527926739771,601.9028553949902,602.0227898849989,602.3229173419531,602.4427494639531,602.4927326209727,600.8327966561832,None,2,0.3332917070365511,603.0927553349757,None,603.0927553349757,None,,,,,,,,,,,,,,,,,,,,,,,,,,,,,,,,,,,,,,,,,,,,,,,,,,,,,,,,,,3,001,2022_Dec_01_1721,Cognition2_FullCode1,2021.2.3,99.93299391711844,
/Users/shamslab/Desktop/Cognition2_FullExperimentFile/3_AudioBlock1.csv,4,1,2,2,1,2,2,11,16,28,58,70,100,112,117,129,159,171,201,5_audFile.wav,10,1,4,1,2,2,1,2,2,11,16,28,58,70,100,112,117,129,159,171,201,5_audFile.wav,10,1,1,1,,,,0,1,1,1,0,25,25,27,,,,,,,,,,,,,,,,,,,,,603.4429045619909,None,603.6327477939776,604.6327296579839,604.6427934140083,606.5027483539889,604.7527500679716,604.8027668310096,604.9228412949597,605.2228169199661,605.3427948489552,605.6427509079804,605.7627979730023,605.8128375129891,605.9327216249658,606.232746617985,606.3527651400073,None,604.7427601001749,None,606.6527547939913,None,607.9527779299533,None,608.0628045689664,608.1127462500008,608.232766378962,608.5329069099971,608.6527907279669,608.9528342990088,609.0727740419679,609.1227501779795,609.2428040719824,609.5428248699754,609.6627807790064,609.962783328956,608.0527789971733,None,2,0.9292516450514086,610.312757637992,None,610.312757637992,None,,,,,,,,,,,,,,,,,,,,,,,,,,,,,,,,,,,,,,,,,,,,,,,,,,,,,,,,,,3,001,2022_Dec_01_1721,Cognition2_FullCode1,2021.2.3,99.93299391711844,
/Users/shamslab/Desktop/Cognition2_FullExperimentFile/3_AudioBlock1.csv,14,2,1,1,2,1,2,11,41,53,58,70,75,87,117,129,134,146,176,15_audFile.wav,10,2,14,2,1,1,2,1,2,11,41,53,58,70,75,87,117,129,134,146,176,15_audFile.wav,10,2,1,1,,,,0,1,1,1,0,26,26,18,,,,,,,,,,,,,,,,,,,,,611.2627912189928,None,611.4427889909712,612.4427435499965,612.4628007079591,None,612.572798936977,612.8728201969643,612.9928210009821,613.0428852209589,613.1627909169765,613.2128318980103,613.3327815110097,613.6327976519824,613.7528081919882,613.8027860919829,613.9227915299707,614.2227913879906,612.5628027171537,None,614.3228813599562,None,615.6227805799572,None,615.7328101199819,616.0328111209674,616.1529053809936,616.2028375070076,616.3227993499604,616.372816765972,616.4928352069692,616.7928103859886,616.9128967899596,616.9628274120041,617.0828129159636,617.3828025870025,615.722816820204,None,2,0.3472381879691966,617.9828088170034,None,617.9828088170034,None,,,,,,,,,,,,,,,,,,,,,,,,,,,,,,,,,,,,,,,,,,,,,,,,,,,,,,,,,,3,001,2022_Dec_01_1721,Cognition2_FullCode1,2021.2.3,99.93299391711844,
/Users/shamslab/Desktop/Cognition2_FullExperimentFile/3_AudioBlock1.csv,6,2,2,1,2,1,1,11,41,53,83,95,100,112,142,154,159,171,176,7_audFile.wav,10,3,6,2,2,1,2,1,1,11,41,53,83,95,100,112,142,154,159,171,176,7_audFile.wav,10,3,1,1,,,,0,1,1,1,0,27,27,16,,,,,,,,,,,,,,,,,,,,,618.3428375489893,None,618.5328216169728,619.5328190879663,619.5428039709805,None,619.6528372509638,619.9528425189783,620.0728222389589,620.3728320549708,620.492827848997,620.5428227339871,620.6628085279954,620.9627768279752,621.0829451049794,621.1328576770029,621.2528305840096,621.3028160869726,619.642910829169,None,621.4028273079894,None,622.7030013279873,None,622.8128307570005,623.1128347349586,623.2328345139977,623.5328431579983,623.6528500230052,623.7028083989862,623.8228099989938,624.12278809899,624.2428363049985,624.292841093964,624.4128912150045,624.4628114159568,622.8028409531747,None,2,0.33918763999827206,625.062821680971,None,625.062821680971,None,,,,,,,,,,,,,,,,,,,,,,,,,,,,,,,,,,,,,,,,,,,,,,,,,,,,,,,,,,3,001,2022_Dec_01_1721,Cognition2_FullCode1,2021.2.3,99.93299391711844,
/Users/shamslab/Desktop/Cognition2_FullExperimentFile/3_AudioBlock1.csv,15,1,2,1,2,1,2,11,16,28,58,70,75,87,117,129,134,146,176,16_audFile.wav,10,1,15,1,2,1,2,1,2,11,16,28,58,70,75,87,117,129,134,146,176,16_audFile.wav,10,1,1,1,,,,0,1,1,1,0,28,28,25,,,,,,,,,,,,,,,,,,,,,625.4228624569951,None,625.6028574059601,626.602834758989,626.6228716369951,None,626.7328290119767,626.7829598069657,626.9028470659978,627.2028464979958,627.3228712029522,627.3728253269801,627.4928548730095,627.7928607040085,627.9128395059961,627.962887133006,628.0828790550004,628.3828803040087,626.7228520391567,None,628.4828878249973,None,629.7828844260075,None,629.892861862958,629.9428676149691,630.0628540939651,630.3628551649745,630.4828327819705,630.5329615069786,630.6529527169769,630.9528208579868,631.0728732509888,631.1228839429677,631.2428745919606,631.5428866039729,629.8828697172052,None,2,0.4190386139671318,632.1429535459611,None,632.1429535459611,None,,,,,,,,,,,,,,,,,,,,,,,,,,,,,,,,,,,,,,,,,,,,,,,,,,,,,,,,,,3,001,2022_Dec_01_1721,Cognition2_FullCode1,2021.2.3,99.93299391711844,
/Users/shamslab/Desktop/Cognition2_FullExperimentFile/3_AudioBlock1.csv,13,2,1,2,1,1,2,11,41,53,58,70,100,112,117,129,134,146,176,14_audFile.wav,10,2,13,2,1,2,1,1,2,11,41,53,58,70,100,112,117,129,134,146,176,14_audFile.wav,10,2,1,1,,,,0,1,1,1,0,29,29,31,,,,,,,,,,,,,,,,,,,,,632.5828653909848,None,632.7628694039886,633.7628602969926,633.782858883962,None,633.8929172619828,634.1929003259866,634.3128930699895,634.3628769569914,634.4829124649987,634.7828591219732,634.9028623669874,634.9528964859783,635.0729426110047,635.1228712109732,635.2429312070017,635.5428944309824,633.882857960189,None,635.6428618719801,None,636.9528680429794,None,637.0628798140096,637.3629926340072,637.4829432129627,637.5329683260061,637.6528776959749,637.9529143229593,638.0729057389544,638.1229149149731,638.2429210440023,638.2929130200064,638.4129203420016,638.712919825979,637.0529025541676,None,2,0.35321879998082295,639.3128541729529,None,639.3128541729529,None,,,,,,,,,,,,,,,,,,,,,,,,,,,,,,,,,,,,,,,,,,,,,,,,,,,,,,,,,,3,001,2022_Dec_01_1721,Cognition2_FullCode1,2021.2.3,99.93299391711844,
/Users/shamslab/Desktop/Cognition2_FullExperimentFile/3_AudioBlock1.csv,1,2,1,2,2,1,2,11,41,53,58,70,100,112,142,154,159,171,201,2_audFile.wav,10,2,1,2,1,2,2,1,2,11,41,53,58,70,100,112,142,154,159,171,201,2_audFile.wav,10,2,1,1,,,,0,1,1,1,0,30,30,2,,,,,,,,,,,,,,,,,,,,,639.6829287129804,None,639.8729030299583,640.872871620988,640.8829325839761,642.7428993199719,640.9928933549672,641.292917379993,641.4129393799813,641.463091328973,641.5830121929757,641.8829288299894,642.0030284349923,642.3029149299837,642.4229680289864,642.4729306990048,642.5928891520016,None,640.9830075592093,None,642.892872662982,None,644.1929364019888,None,644.3029451029724,644.6029046729673,644.7231097019976,644.7728993530036,644.8928962089703,645.1928848020034,645.3129031540011,645.6129059639643,645.732933569001,645.7829132799525,645.9029819800053,646.203006642987,644.2929156482045,None,1,0.47314166300930083,646.5529166709748,None,646.5529166709748,None,,,,,,,,,,,,,,,,,,,,,,,,,,,,,,,,,,,,,,,,,,,,,,,,,,,,,,,,,,3,001,2022_Dec_01_1721,Cognition2_FullCode1,2021.2.3,99.93299391711844,
/Users/shamslab/Desktop/Cognition2_FullExperimentFile/3_AudioBlock1.csv,5,1,2,1,2,2,2,11,16,28,58,70,75,87,117,129,159,171,201,6_audFile.wav,10,1,5,1,2,1,2,2,2,11,16,28,58,70,75,87,117,129,159,171,201,6_audFile.wav,10,1,1,1,,,,0,1,1,1,0,31,31,17,,,,,,,,,,,,,,,,,,,,,647.0530218289932,None,647.2329570009606,648.2329747299664,648.252971801965,650.112953608972,648.3629535909859,648.4129416630021,648.532928532979,648.8329624029575,648.9529712909716,649.002931119001,649.1228755679913,649.422921327001,649.5429082830087,649.8429346299963,649.9629164589569,None,648.3529301811999,None,650.2629184499965,None,651.5629381759791,None,651.6729579449748,651.7229380859644,651.8429416510044,652.1429535819916,652.2629747019964,652.3129600019893,652.432927346963,652.7329315099632,652.852953390975,653.1530501549714,653.2729702659999,653.5729606149835,651.6629815661639,None,1,0.2710571129573509,653.922961269971,None,653.922961269971,None,,,,,,,,,,,,,,,,,,,,,,,,,,,,,,,,,,,,,,,,,,,,,,,,,,,,,,,,,,3,001,2022_Dec_01_1721,Cognition2_FullCode1,2021.2.3,99.93299391711844,
/Users/shamslab/Desktop/Cognition2_FullExperimentFile/3_AudioBlock1.csv,,,,,,,,,,,,,,,,,,,,,,,,,,,,,,,,,,,,,,,,,,,,,,,,,,0,1,1,1,,,,,,,,,,,,,,,,,,,,,,,,,,,,,,,,,,,,,,,,,,,,,,,,,,,,,,,,,,,,,,,,,,,,,654.2130254099611,None,654.2130254099611,None,,,,,,,,,,,,,,,,,,,,,,,,,,,,,,,,,,,,,,,,,,,,,,,,,,,,,,3,001,2022_Dec_01_1721,Cognition2_FullCode1,2021.2.3,99.93299391711844,
,,,,,,,,,,,,,,,,,,,,,,,,,,,,,,,,,,,,,,,,,,,,,,,,,,,,,,,,,,,,,,,,,,,,,,,,,,,,,,,,,,,,,,,,,,,,,,,,,,,,,,,,,,,,,,,,,,,,,,,,,,,,,,space,4.960806054004934,714.7132068930077,None,,,,,,,,,,,,,,,,,,,,,,,,,,,,,,,,,,,,,,,,,,,,,,,,,,3,001,2022_Dec_01_1721,Cognition2_FullCode1,2021.2.3,99.93299391711844,
,,,,,,,,,,,,,,,,,,,,,,,,,,,,,,,,,,,,,,,,,,,,,,,,,,,,,,,,,,,,,,,,,,,,,,,,,,,,,,,,,,,,,,,,,,,,,,,,,,,,,,,,,,,,,,,,,,,,,,,,,,,,,,,,,,714.3131798419636,None,719.693193301966,None,space,5.768789295980241,719.8732320019626,None,,,,,,,,,,,,,,,,,,,,,,,,,,,,,,,,,,,,,,,,,,3,001,2022_Dec_01_1721,Cognition2_FullCode1,2021.2.3,99.93299391711844,
,,,,,,,,,,,,,,,,,,,,,,,,,,,,,,,,,,,,,,,,,,,,,,,/Users/shamslab/Desktop/Cognition2_FullExperimentFile/conditionFiles_SRT/3_visualblock.csv,V,368,,,,,,,,,0,0,0,1,0,0,0,1,,,,,,,,,,,,,,,,,,,,,,,,,,,,,,,,,,,,,,,,,,,,,,,,,,,,,,,,,,,,,,,,,,,,,,,,,726.1632106379839,None,space,3.458806317008566,726.2632024139748,None,729.7432935859542,None,734.9232798320008,734.9332556949812,734.9232719231571,None,space,0.32677538198186085,734.9232798320008,None,None,731.2432796199573,734.913271317957,731.2432796199573,None,735.3632776439772,None,735.3632498001738,735.4633003849885,,,,,,,,,,,,,,,,,3,001,2022_Dec_01_1721,Cognition2_FullCode1,2021.2.3,99.93299391711844,
,,,,,,,,,,,,,,,,,,,,,,,,,,,,,,,,,,,,,,,,,,,,,,,/Users/shamslab/Desktop/Cognition2_FullExperimentFile/conditionFiles_SRT/3_visualblock.csv,V,55,,,,,,,,,0,0,0,1,0,1,1,10,,,,,,,,,,,,,,,,,,,,,,,,,,,,,,,,,,,,,,,,,,,,,,,,,,,,,,,,,,,,,,,,,,,,,,,,,,,,,,,735.663291778008,None,737.7132764609996,737.723287936009,737.7133068972092,None,space,0.2807364449836314,737.7132764609996,None,None,737.1632930339547,737.7033062920091,737.1632930339547,None,738.1032905359752,None,738.1032639111567,738.2033182809828,,,,,,,,,,,,,,,,,3,001,2022_Dec_01_1721,Cognition2_FullCode1,2021.2.3,99.93299391711844,
,,,,,,,,,,,,,,,,,,,,,,,,,,,,,,,,,,,,,,,,,,,,,,,/Users/shamslab/Desktop/Cognition2_FullExperimentFile/conditionFiles_SRT/3_visualblock.csv,V,125,,,,,,,,,0,0,0,1,0,2,2,28,,,,,,,,,,,,,,,,,,,,,,,,,,,,,,,,,,,,,,,,,,,,,,,,,,,,,,,,,,,,,,,,,,,,,,,,,,,,,,,738.4033129619784,None,741.1533826559898,741.1633179669734,741.1534013901895,None,space,0.208636786963325,741.1533826559898,None,None,739.9033785020001,741.1434007849894,739.9033785020001,None,741.4633098699851,None,741.4632913161826,741.5633081200067,,,,,,,,,,,,,,,,,3,001,2022_Dec_01_1721,Cognition2_FullCode1,2021.2.3,99.93299391711844,
,,,,,,,,,,,,,,,,,,,,,,,,,,,,,,,,,,,,,,,,,,,,,,,/Users/shamslab/Desktop/Cognition2_FullExperimentFile/conditionFiles_SRT/3_visualblock.csv,V,151,,,,,,,,,0,0,0,1,0,3,3,9,,,,,,,,,,,,,,,,,,,,,,,,,,,,,,,,,,,,,,,,,,,,,,,,,,,,,,,,,,,,,,,,,,,,,,,,,,,,,,,741.7633153839852,None,744.7733056799625,744.7833291189745,744.7733198512054,None,space,0.22070674604037777,744.7733056799625,None,None,743.2633080039523,744.7633192460053,743.2633080039523,None,745.1033055239823,None,745.1034030201903,745.203305722971,,,,,,,,,,,,,,,,,3,001,2022_Dec_01_1721,Cognition2_FullCode1,2021.2.3,99.93299391711844,
,,,,,,,,,,,,,,,,,,,,,,,,,,,,,,,,,,,,,,,,,,,,,,,/Users/shamslab/Desktop/Cognition2_FullExperimentFile/conditionFiles_SRT/3_visualblock.csv,V,376,,,,,,,,,0,0,0,1,0,4,4,14,,,,,,,,,,,,,,,,,,,,,,,,,,,,,,,,,,,,,,,,,,,,,,,,,,,,,,,,,,,,,,,,,,,,,,,,,,,,,,,745.4033053989988,None,750.6634759739973,750.6733123299782,750.66332757817,None,space,0.22655178100103512,750.6634759739973,None,None,746.9033380809706,750.6533269729698,746.9033380809706,None,750.9933317030082,None,750.9934063181921,751.0933125629672,,,,,,,,,,,,,,,,,3,001,2022_Dec_01_1721,Cognition2_FullCode1,2021.2.3,99.93299391711844,
,,,,,,,,,,,,,,,,,,,,,,,,,,,,,,,,,,,,,,,,,,,,,,,/Users/shamslab/Desktop/Cognition2_FullExperimentFile/conditionFiles_SRT/3_visualblock.csv,V,314,,,,,,,,,0,0,0,1,0,5,5,16,,,,,,,,,,,,,,,,,,,,,,,,,,,,,,,,,,,,,,,,,,,,,,,,,,,,,,,,,,,,,,,,,,,,,,,,,,,,,,,751.2933401339687,None,755.9333549119765,755.9434117799974,755.9335017252073,None,space,0.2846570070250891,755.9333549119765,None,None,752.7933436379535,755.9235011200071,752.7933436379535,None,756.3234081319533,None,756.3233265871589,756.4233638209989,,,,,,,,,,,,,,,,,3,001,2022_Dec_01_1721,Cognition2_FullCode1,2021.2.3,99.93299391711844,
,,,,,,,,,,,,,,,,,,,,,,,,,,,,,,,,,,,,,,,,,,,,,,,/Users/shamslab/Desktop/Cognition2_FullExperimentFile/conditionFiles_SRT/3_visualblock.csv,V,67,,,,,,,,,0,0,0,1,0,6,6,18,,,,,,,,,,,,,,,,,,,,,,,,,,,,,,,,,,,,,,,,,,,,,,,,,,,,,,,,,,,,,,,,,,,,,,,,,,,,,,,756.6234100569854,None,758.79337273899,758.8033718309598,758.7934483242046,None,space,0.3046340229921043,758.79337273899,None,None,758.1233797069872,758.7834477190045,758.1233797069872,None,759.203394385986,None,759.2033649621939,759.3033634119784,,,,,,,,,,,,,,,,,3,001,2022_Dec_01_1721,Cognition2_FullCode1,2021.2.3,99.93299391711844,
,,,,,,,,,,,,,,,,,,,,,,,,,,,,,,,,,,,,,,,,,,,,,,,/Users/shamslab/Desktop/Cognition2_FullExperimentFile/conditionFiles_SRT/3_visualblock.csv,V,367,,,,,,,,,0,0,0,1,0,7,7,27,,,,,,,,,,,,,,,,,,,,,,,,,,,,,,,,,,,,,,,,,,,,,,,,,,,,,,,,,,,,,,,,,,,,,,,,,,,,,,,759.5034289920004,None,764.6734252679744,764.6833919689525,764.6734095242049,None,space,0.24058634496759623,764.6734252679744,None,None,761.0035421099747,764.6634089190047,761.0035421099747,None,765.0234304149635,None,765.0233452941815,765.1233984349528,,,,,,,,,,,,,,,,,3,001,2022_Dec_01_1721,Cognition2_FullCode1,2021.2.3,99.93299391711844,
,,,,,,,,,,,,,,,,,,,,,,,,,,,,,,,,,,,,,,,,,,,,,,,/Users/shamslab/Desktop/Cognition2_FullExperimentFile/conditionFiles_SRT/3_visualblock.csv,V,128,,,,,,,,,0,0,0,1,0,8,8,21,,,,,,,,,,,,,,,,,,,,,,,,,,,,,,,,,,,,,,,,,,,,,,,,,,,,,,,,,,,,,,,,,,,,,,,,,,,,,,,765.3234167749761,None,768.1034155539819,768.1133724829997,768.1034476902045,None,space,0.2986023350385949,768.1034155539819,None,None,766.8233946089749,768.0934470850043,766.8233946089749,None,768.5034508729586,None,768.503407734161,768.6033962169895,,,,,,,,,,,,,,,,,3,001,2022_Dec_01_1721,Cognition2_FullCode1,2021.2.3,99.93299391711844,
,,,,,,,,,,,,,,,,,,,,,,,,,,,,,,,,,,,,,,,,,,,,,,,/Users/shamslab/Desktop/Cognition2_FullExperimentFile/conditionFiles_SRT/3_visualblock.csv,V,369,,,,,,,,,0,0,0,1,0,9,9,7,,,,,,,,,,,,,,,,,,,,,,,,,,,,,,,,,,,,,,,,,,,,,,,,,,,,,,,,,,,,,,,,,,,,,,,,,,,,,,,768.8034137639916,None,773.9933784959721,774.0034345120075,773.9934360581741,None,space,0.24863027298124507,773.9933784959721,None,None,770.3034399760072,773.9834354529739,770.3034399760072,None,774.3434385879664,None,774.3433758061786,774.4434257230023,,,,,,,,,,,,,,,,,3,001,2022_Dec_01_1721,Cognition2_FullCode1,2021.2.3,99.93299391711844,
,,,,,,,,,,,,,,,,,,,,,,,,,,,,,,,,,,,,,,,,,,,,,,,/Users/shamslab/Desktop/Cognition2_FullExperimentFile/conditionFiles_SRT/3_visualblock.csv,V,260,,,,,,,,,0,0,0,1,0,10,10,24,,,,,,,,,,,,,,,,,,,,,,,,,,,,,,,,,,,,,,,,,,,,,,,,,,,,,,,,,,,,,,,,,,,,,,,,,,,,,,,774.6433988770004,None,778.7434531229665,778.7534509149846,778.7434405252046,None,space,0.21855358901666477,778.7434531229665,None,None,776.1434530429542,778.7334399200045,776.1434530429542,None,779.0634796670056,None,779.0634107581631,779.1634606340085,,,,,,,,,,,,,,,,,3,001,2022_Dec_01_1721,Cognition2_FullCode1,2021.2.3,99.93299391711844,
,,,,,,,,,,,,,,,,,,,,,,,,,,,,,,,,,,,,,,,,,,,,,,,/Users/shamslab/Desktop/Cognition2_FullExperimentFile/conditionFiles_SRT/3_visualblock.csv,V,290,,,,,,,,,0,0,0,1,0,11,11,26,,,,,,,,,,,,,,,,,,,,,,,,,,,,,,,,,,,,,,,,,,,,,,,,,,,,,,,,,,,,,,,,,,,,,,,,,,,,,,,779.36355800397,None,783.7634769839933,783.7734565389692,783.7634530981944,None,space,0.27053039497695863,783.7634769839933,None,None,780.8634623700054,783.7534524929943,780.8634623700054,None,784.143432885001,None,784.1435022031714,784.2435955929686,,,,,,,,,,,,,,,,,3,001,2022_Dec_01_1721,Cognition2_FullCode1,2021.2.3,99.93299391711844,
,,,,,,,,,,,,,,,,,,,,,,,,,,,,,,,,,,,,,,,,,,,,,,,/Users/shamslab/Desktop/Cognition2_FullExperimentFile/conditionFiles_SRT/3_visualblock.csv,V,213,,,,,,,,,0,0,0,1,0,12,12,11,,,,,,,,,,,,,,,,,,,,,,,,,,,,,,,,,,,,,,,,,,,,,,,,,,,,,,,,,,,,,,,,,,,,,,,,,,,,,,,784.4434716139804,None,788.0734705379582,788.0835019249935,788.0734772142081,None,space,0.4325887140003033,788.0734705379582,None,None,785.9434738179552,788.0634766090079,785.9434738179552,None,788.6134616039926,None,788.6135027071635,788.7134765689843,,,,,,,,,,,,,,,,,3,001,2022_Dec_01_1721,Cognition2_FullCode1,2021.2.3,99.93299391711844,
,,,,,,,,,,,,,,,,,,,,,,,,,,,,,,,,,,,,,,,,,,,,,,,/Users/shamslab/Desktop/Cognition2_FullExperimentFile/conditionFiles_SRT/3_visualblock.csv,V,105,,,,,,,,,0,0,0,1,0,13,13,12,,,,,,,,,,,,,,,,,,,,,,,,,,,,,,,,,,,,,,,,,,,,,,,,,,,,,,,,,,,,,,,,,,,,,,,,,,,,,,,788.9134780029999,None,791.4635581119801,791.4734773259843,791.4635553181928,None,space,0.20249016099842265,791.4635581119801,None,None,790.4134479399654,791.4535547129926,790.4134479399654,None,791.7734792819829,None,791.7734845231811,791.8734705210081,,,,,,,,,,,,,,,,,3,001,2022_Dec_01_1721,Cognition2_FullCode1,2021.2.3,99.93299391711844,
,,,,,,,,,,,,,,,,,,,,,,,,,,,,,,,,,,,,,,,,,,,,,,,/Users/shamslab/Desktop/Cognition2_FullExperimentFile/conditionFiles_SRT/3_visualblock.csv,V,275,,,,,,,,,0,0,0,1,0,14,14,22,,,,,,,,,,,,,,,,,,,,,,,,,,,,,,,,,,,,,,,,,,,,,,,,,,,,,,,,,,,,,,,,,,,,,,,,,,,,,,,792.0735002979636,None,796.323571698973,796.3334986179834,796.3235638711543,None,space,0.22253117302898318,796.323571698973,None,None,793.5734809899586,796.3135632659541,793.5734809899586,None,796.6534891519696,None,796.653518830199,796.7535557459923,,,,,,,,,,,,,,,,,3,001,2022_Dec_01_1721,Cognition2_FullCode1,2021.2.3,99.93299391711844,
,,,,,,,,,,,,,,,,,,,,,,,,,,,,,,,,,,,,,,,,,,,,,,,/Users/shamslab/Desktop/Cognition2_FullExperimentFile/conditionFiles_SRT/3_visualblock.csv,V,176,,,,,,,,,0,0,0,1,0,15,15,3,,,,,,,,,,,,,,,,,,,,,,,,,,,,,,,,,,,,,,,,,,,,,,,,,,,,,,,,,,,,,,,,,,,,,,,,,,,,,,,796.9535029419931,None,800.21350144397,800.2235874179751,800.2136023391562,None,space,0.2765224819886498,800.21350144397,None,None,798.4535056489985,800.203601733956,798.4535056489985,None,800.593518745969,None,800.5935471892066,800.6935892750043,,,,,,,,,,,,,,,,,3,001,2022_Dec_01_1721,Cognition2_FullCode1,2021.2.3,99.93299391711844,
,,,,,,,,,,,,,,,,,,,,,,,,,,,,,,,,,,,,,,,,,,,,,,,/Users/shamslab/Desktop/Cognition2_FullExperimentFile/conditionFiles_SRT/3_visualblock.csv,V,226,,,,,,,,,0,0,0,1,0,16,16,17,,,,,,,,,,,,,,,,,,,,,,,,,,,,,,,,,,,,,,,,,,,,,,,,,,,,,,,,,,,,,,,,,,,,,,,,,,,,,,,800.893563146994,None,804.6535469969967,804.6635530559579,804.6535371621779,None,space,0.23650665598688647,804.6535469969967,None,None,802.3935499349609,804.6435365569778,802.3935499349609,None,804.9935605379869,None,804.9935633001791,805.0935681659612,,,,,,,,,,,,,,,,,3,001,2022_Dec_01_1721,Cognition2_FullCode1,2021.2.3,99.93299391711844,
,,,,,,,,,,,,,,,,,,,,,,,,,,,,,,,,,,,,,,,,,,,,,,,/Users/shamslab/Desktop/Cognition2_FullExperimentFile/conditionFiles_SRT/3_visualblock.csv,V,323,,,,,,,,,0,0,0,1,0,17,17,4,,,,,,,,,,,,,,,,,,,,,,,,,,,,,,,,,,,,,,,,,,,,,,,,,,,,,,,,,,,,,,,,,,,,,,,,,,,,,,,805.293572516006,None,810.023637042963,810.0335554059711,810.0235524521617,None,space,0.4983786049997434,810.023637042963,None,None,806.7935582220089,810.0135518469615,806.7935582220089,None,810.6235797369736,None,810.623562770203,810.7235778080067,,,,,,,,,,,,,,,,,3,001,2022_Dec_01_1721,Cognition2_FullCode1,2021.2.3,99.93299391711844,
,,,,,,,,,,,,,,,,,,,,,,,,,,,,,,,,,,,,,,,,,,,,,,,/Users/shamslab/Desktop/Cognition2_FullExperimentFile/conditionFiles_SRT/3_visualblock.csv,V,171,,,,,,,,,0,0,0,1,0,18,18,20,,,,,,,,,,,,,,,,,,,,,,,,,,,,,,,,,,,,,,,,,,,,,,,,,,,,,,,,,,,,,,,,,,,,,,,,,,,,,,,810.9236037959927,None,814.133576919965,814.1435862910002,814.1336066981952,None,space,0.19644578400766477,814.133576919965,None,None,812.4235981240054,814.123606092995,812.4235981240054,None,814.4336148629664,None,814.4335413521679,814.5336932970094,,,,,,,,,,,,,,,,,3,001,2022_Dec_01_1721,Cognition2_FullCode1,2021.2.3,99.93299391711844,
,,,,,,,,,,,,,,,,,,,,,,,,,,,,,,,,,,,,,,,,,,,,,,,/Users/shamslab/Desktop/Cognition2_FullExperimentFile/conditionFiles_SRT/3_visualblock.csv,V,95,,,,,,,,,0,0,0,1,0,19,19,19,,,,,,,,,,,,,,,,,,,,,,,,,,,,,,,,,,,,,,,,,,,,,,,,,,,,,,,,,,,,,,,,,,,,,,,,,,,,,,,814.7336002349621,None,817.1835787739838,817.1935895360075,817.1836018211965,None,space,0.2584382080240175,817.1835787739838,None,None,816.2336075849598,817.1736012159963,816.2336075849598,None,817.5435700200032,None,817.5435911271546,817.64362221997,,,,,,,,,,,,,,,,,3,001,2022_Dec_01_1721,Cognition2_FullCode1,2021.2.3,99.93299391711844,
,,,,,,,,,,,,,,,,,,,,,,,,,,,,,,,,,,,,,,,,,,,,,,,/Users/shamslab/Desktop/Cognition2_FullExperimentFile/conditionFiles_SRT/3_visualblock.csv,V,349,,,,,,,,,0,0,0,1,0,20,20,5,,,,,,,,,,,,,,,,,,,,,,,,,,,,,,,,,,,,,,,,,,,,,,,,,,,,,,,,,,,,,,,,,,,,,,,,,,,,,,,817.8435942059732,None,822.8336591869593,822.8436028419528,822.833629472187,None,space,0.1843526599695906,822.8336591869593,None,None,819.3436185139581,822.8236288669868,819.3436185139581,None,823.123628197005,None,823.1236472791701,823.2236645129742,,,,,,,,,,,,,,,,,3,001,2022_Dec_01_1721,Cognition2_FullCode1,2021.2.3,99.93299391711844,
,,,,,,,,,,,,,,,,,,,,,,,,,,,,,,,,,,,,,,,,,,,,,,,/Users/shamslab/Desktop/Cognition2_FullExperimentFile/conditionFiles_SRT/3_visualblock.csv,V,99,,,,,,,,,0,0,0,1,0,21,21,2,,,,,,,,,,,,,,,,,,,,,,,,,,,,,,,,,,,,,,,,,,,,,,,,,,,,,,,,,,,,,,,,,,,,,,,,,,,,,,,823.4235846640076,None,825.9137821229524,825.9235943569802,825.9137079431733,None,space,0.2562732250080444,825.9137821229524,None,None,824.9236049510073,825.9037073379732,824.9236049510073,None,826.2736062129843,None,826.2736350661784,826.3737489909981,,,,,,,,,,,,,,,,,3,001,2022_Dec_01_1721,Cognition2_FullCode1,2021.2.3,99.93299391711844,
,,,,,,,,,,,,,,,,,,,,,,,,,,,,,,,,,,,,,,,,,,,,,,,/Users/shamslab/Desktop/Cognition2_FullExperimentFile/conditionFiles_SRT/3_visualblock.csv,V,324,,,,,,,,,0,0,0,1,0,22,22,6,,,,,,,,,,,,,,,,,,,,,,,,,,,,,,,,,,,,,,,,,,,,,,,,,,,,,,,,,,,,,,,,,,,,,,,,,,,,,,,826.573619668954,None,831.3136421949603,831.3236565759871,831.3136612431903,None,space,0.20036933600204065,831.3136421949603,None,None,828.0736135829939,831.3036606379901,828.0736135829939,None,831.6237010170007,None,831.6236383601848,831.7237027479568,,,,,,,,,,,,,,,,,3,001,2022_Dec_01_1721,Cognition2_FullCode1,2021.2.3,99.93299391711844,
,,,,,,,,,,,,,,,,,,,,,,,,,,,,,,,,,,,,,,,,,,,,,,,/Users/shamslab/Desktop/Cognition2_FullExperimentFile/conditionFiles_SRT/3_visualblock.csv,V,189,,,,,,,,,0,0,0,1,0,23,23,25,,,,,,,,,,,,,,,,,,,,,,,,,,,,,,,,,,,,,,,,,,,,,,,,,,,,,,,,,,,,,,,,,,,,,,,,,,,,,,,831.9236652049585,None,835.3136624989565,835.3237093010102,835.3136510012031,None,space,0.2563569409539923,835.3136624989565,None,None,833.423669338983,835.3036503960029,833.423669338983,None,835.6735963569954,None,835.6736566101957,835.7736977149616,,,,,,,,,,,,,,,,,3,001,2022_Dec_01_1721,Cognition2_FullCode1,2021.2.3,99.93299391711844,
,,,,,,,,,,,,,,,,,,,,,,,,,,,,,,,,,,,,,,,,,,,,,,,/Users/shamslab/Desktop/Cognition2_FullExperimentFile/conditionFiles_SRT/3_visualblock.csv,V,319,,,,,,,,,0,0,0,1,0,24,24,15,,,,,,,,,,,,,,,,,,,,,,,,,,,,,,,,,,,,,,,,,,,,,,,,,,,,,,,,,,,,,,,,,,,,,,,,,,,,,,,835.9736756259808,None,840.6637102990062,840.6736711849808,840.6636631621571,None,space,0.2262948889983818,840.6637102990062,None,None,837.4737639389932,840.653662556957,837.4737639389932,None,840.993641575973,None,840.9936938821978,841.093693503004,,,,,,,,,,,,,,,,,3,001,2022_Dec_01_1721,Cognition2_FullCode1,2021.2.3,99.93299391711844,
,,,,,,,,,,,,,,,,,,,,,,,,,,,,,,,,,,,,,,,,,,,,,,,/Users/shamslab/Desktop/Cognition2_FullExperimentFile/conditionFiles_SRT/3_visualblock.csv,V,208,,,,,,,,,0,0,0,1,0,25,25,23,,,,,,,,,,,,,,,,,,,,,,,,,,,,,,,,,,,,,,,,,,,,,,,,,,,,,,,,,,,,,,,,,,,,,,,,,,,,,,,841.2936618829845,None,844.8737098219572,844.8837215469684,844.8737401921593,None,space,0.23236058000475168,844.8737098219572,None,None,842.7936941439984,844.8637395869591,842.7936941439984,None,845.2136819110019,None,845.2137155871663,845.3136983749573,,,,,,,,,,,,,,,,,3,001,2022_Dec_01_1721,Cognition2_FullCode1,2021.2.3,99.93299391711844,
,,,,,,,,,,,,,,,,,,,,,,,,,,,,,,,,,,,,,,,,,,,,,,,/Users/shamslab/Desktop/Cognition2_FullExperimentFile/conditionFiles_SRT/3_visualblock.csv,V,388,,,,,,,,,0,0,0,1,0,26,26,29,,,,,,,,,,,,,,,,,,,,,,,,,,,,,,,,,,,,,,,,,,,,,,,,,,,,,,,,,,,,,,,,,,,,,,,,,,,,,,,845.5137070649653,None,850.8936981909792,850.9037525460008,850.8937526372086,None,space,0.2683504389715381,850.8936981909792,None,None,847.0137005029828,850.8837520320085,847.0137005029828,None,851.2637583049946,None,851.2637278181559,851.3637894329731,,,,,,,,,,,,,,,,,3,001,2022_Dec_01_1721,Cognition2_FullCode1,2021.2.3,99.93299391711844,
,,,,,,,,,,,,,,,,,,,,,,,,,,,,,,,,,,,,,,,,,,,,,,,/Users/shamslab/Desktop/Cognition2_FullExperimentFile/conditionFiles_SRT/3_visualblock.csv,V,61,,,,,,,,,0,0,0,1,0,27,27,8,,,,,,,,,,,,,,,,,,,,,,,,,,,,,,,,,,,,,,,,,,,,,,,,,,,,,,,,,,,,,,,,,,,,,,,,,,,,,,,851.5637527109939,None,853.6737381920102,853.6837490729522,853.673907890165,None,space,0.3602695960435085,853.6737381920102,None,None,853.0637586059747,853.6639072849648,853.0637586059747,None,854.1437635999755,None,854.1437449092103,854.2437333109556,,,,,,,,,,,,,,,,,3,001,2022_Dec_01_1721,Cognition2_FullCode1,2021.2.3,99.93299391711844,
,,,,,,,,,,,,,,,,,,,,,,,,,,,,,,,,,,,,,,,,,,,,,,,/Users/shamslab/Desktop/Cognition2_FullExperimentFile/conditionFiles_SRT/3_visualblock.csv,V,117,,,,,,,,,0,0,0,1,0,28,28,0,,,,,,,,,,,,,,,,,,,,,,,,,,,,,,,,,,,,,,,,,,,,,,,,,,,,,,,,,,,,,,,,,,,,,,,,,,,,,,,854.4437668009778,None,857.1139085089671,857.1237450650078,857.1137537472008,None,space,0.28809403895866126,857.1139085089671,None,None,855.9438002649695,857.1037531420006,855.9438002649695,None,857.5037586449762,None,857.5037768841779,857.6037758819875,,,,,,,,,,,,,,,,,3,001,2022_Dec_01_1721,Cognition2_FullCode1,2021.2.3,99.93299391711844,
,,,,,,,,,,,,,,,,,,,,,,,,,,,,,,,,,,,,,,,,,,,,,,,/Users/shamslab/Desktop/Cognition2_FullExperimentFile/conditionFiles_SRT/3_visualblock.csv,V,58,,,,,,,,,0,0,0,1,0,29,29,13,,,,,,,,,,,,,,,,,,,,,,,,,,,,,,,,,,,,,,,,,,,,,,,,,,,,,,,,,,,,,,,,,,,,,,,,,,,,,,,857.8037869649706,None,859.8838076589745,859.8937546689995,859.8837882991705,None,space,0.24624900502385572,859.8838076589745,None,None,859.3038065209985,859.8737876939704,859.3038065209985,None,860.2337454629596,None,860.233755079162,860.3337445199722,,,,,,,,,,,,,,,,,3,001,2022_Dec_01_1721,Cognition2_FullCode1,2021.2.3,99.93299391711844,
,,,,,,,,,,,,,,,,,,,,,,,,,,,,,,,,,,,,,,,,,,,,,,,/Users/shamslab/Desktop/Cognition2_FullExperimentFile/conditionFiles_SRT/3_visualblock.csv,,,,,,,,,,,0,0,0,1,,,,,,,,,,,,,,,,,,,,,,,,,,,,,,,,,,,,,,,,,,,,,,,,,,,,,,,,,,,,,,,,,,,,,,,,,,,,,,,,,,,,,,,,,,,,,,,,,,,,,,,,,,,,,,,,,,,,,,3,001,2022_Dec_01_1721,Cognition2_FullCode1,2021.2.3,99.93299391711844,
,,,,,,,,,,,,,,,,,,,,,,,,,,,,,,,,,,,,,,,,,,,,,,,/Users/shamslab/Desktop/Cognition2_FullExperimentFile/conditionFiles_SRT/3_bisensoryblock.csv,B,267,,,,,,,,,0,1,1,2,0,0,0,24,,,,,,,,,,,,,,,,,,,,,,,,,,,,,,,,,,,,,,,,,,,,,,,,,,,,,,,,,,,,,,,,,,,,,,,,,861.0337831639918,None,space,5.972248971986119,861.1337831199635,None,867.133807901002,None,871.3038406439591,871.3137848280021,871.3038632751617,None,space,0.19416686001932248,871.3038406439591,None,None,868.6337828199612,871.2938626699615,868.6337828199612,None,871.603823235957,None,871.6038068012043,871.7038176669739,,,,,,,,,,,,,,,,,3,001,2022_Dec_01_1721,Cognition2_FullCode1,2021.2.3,99.93299391711844,
,,,,,,,,,,,,,,,,,,,,,,,,,,,,,,,,,,,,,,,,,,,,,,,/Users/shamslab/Desktop/Cognition2_FullExperimentFile/conditionFiles_SRT/3_bisensoryblock.csv,B,156,,,,,,,,,0,1,1,2,0,1,1,27,,,,,,,,,,,,,,,,,,,,,,,,,,,,,,,,,,,,,,,,,,,,,,,,,,,,,,,,,,,,,,,,,,,,,,,,,,,,,,,871.9038077339646,None,874.9638225740055,874.9738183599547,874.9638651681656,None,space,0.22219761699670926,874.9638225740055,None,None,873.403833304008,874.9538645629655,873.403833304008,None,875.2937994090025,None,875.2938324991904,875.3938049259596,,,,,,,,,,,,,,,,,3,001,2022_Dec_01_1721,Cognition2_FullCode1,2021.2.3,99.93299391711844,
,,,,,,,,,,,,,,,,,,,,,,,,,,,,,,,,,,,,,,,,,,,,,,,/Users/shamslab/Desktop/Cognition2_FullExperimentFile/conditionFiles_SRT/3_bisensoryblock.csv,B,384,,,,,,,,,0,1,1,2,0,2,2,28,,,,,,,,,,,,,,,,,,,,,,,,,,,,,,,,,,,,,,,,,,,,,,,,,,,,,,,,,,,,,,,,,,,,,,,,,,,,,,,875.5938477439922,None,880.9338163809734,880.9438923379639,880.9338410811673,None,space,0.22823139396496117,880.9338163809734,None,None,877.093823121977,880.9238404759672,877.093823121977,None,881.2638857729617,None,881.2638469722064,881.3638407879625,,,,,,,,,,,,,,,,,3,001,2022_Dec_01_1721,Cognition2_FullCode1,2021.2.3,99.93299391711844,
,,,,,,,,,,,,,,,,,,,,,,,,,,,,,,,,,,,,,,,,,,,,,,,/Users/shamslab/Desktop/Cognition2_FullExperimentFile/conditionFiles_SRT/3_bisensoryblock.csv,B,127,,,,,,,,,0,1,1,2,0,3,3,18,,,,,,,,,,,,,,,,,,,,,,,,,,,,,,,,,,,,,,,,,,,,,,,,,,,,,,,,,,,,,,,,,,,,,,,,,,,,,,,881.5639064059942,None,884.333914820978,884.3438310499769,884.3338423192093,None,space,0.2841678929980844,884.333914820978,None,None,883.0638538009953,884.3238417140092,883.0638538009953,None,884.723883204977,None,884.7238466361945,884.8239070010022,,,,,,,,,,,,,,,,,3,001,2022_Dec_01_1721,Cognition2_FullCode1,2021.2.3,99.93299391711844,
,,,,,,,,,,,,,,,,,,,,,,,,,,,,,,,,,,,,,,,,,,,,,,,/Users/shamslab/Desktop/Cognition2_FullExperimentFile/conditionFiles_SRT/3_bisensoryblock.csv,B,338,,,,,,,,,0,1,1,2,0,4,4,8,,,,,,,,,,,,,,,,,,,,,,,,,,,,,,,,,,,,,,,,,,,,,,,,,,,,,,,,,,,,,,,,,,,,,,,,,,,,,,,885.0238879909739,None,889.9039234700031,889.9138720599585,889.90390234121,None,space,0.21808025700738654,889.9039234700031,None,None,886.5239466019557,889.8939017360099,886.5239466019557,None,890.2238733909908,None,890.2239915001613,890.3238940289593,,,,,,,,,,,,,,,,,3,001,2022_Dec_01_1721,Cognition2_FullCode1,2021.2.3,99.93299391711844,
,,,,,,,,,,,,,,,,,,,,,,,,,,,,,,,,,,,,,,,,,,,,,,,/Users/shamslab/Desktop/Cognition2_FullExperimentFile/conditionFiles_SRT/3_bisensoryblock.csv,B,298,,,,,,,,,0,1,1,2,0,5,5,2,,,,,,,,,,,,,,,,,,,,,,,,,,,,,,,,,,,,,,,,,,,,,,,,,,,,,,,,,,,,,,,,,,,,,,,,,,,,,,,890.5239087239606,None,895.0039037469542,895.0139305999619,895.003906362172,None,space,0.17413786699762568,895.0039037469542,None,None,892.0239278489607,894.9939057569718,892.0239278489607,None,895.2839248389937,None,895.2838643181661,895.3839287610026,,,,,,,,,,,,,,,,,3,001,2022_Dec_01_1721,Cognition2_FullCode1,2021.2.3,99.93299391711844,
,,,,,,,,,,,,,,,,,,,,,,,,,,,,,,,,,,,,,,,,,,,,,,,/Users/shamslab/Desktop/Cognition2_FullExperimentFile/conditionFiles_SRT/3_bisensoryblock.csv,B,151,,,,,,,,,0,1,1,2,0,6,6,15,,,,,,,,,,,,,,,,,,,,,,,,,,,,,,,,,,,,,,,,,,,,,,,,,,,,,,,,,,,,,,,,,,,,,,,,,,,,,,,895.5839866079623,None,898.5939081810066,898.6039300299599,898.5939469242061,None,space,0.20010989101137966,898.5939081810066,None,None,897.0839119309676,898.5839463190059,897.0839119309676,None,898.9139346409938,None,898.9139046281983,899.0139172109775,,,,,,,,,,,,,,,,,3,001,2022_Dec_01_1721,Cognition2_FullCode1,2021.2.3,99.93299391711844,
,,,,,,,,,,,,,,,,,,,,,,,,,,,,,,,,,,,,,,,,,,,,,,,/Users/shamslab/Desktop/Cognition2_FullExperimentFile/conditionFiles_SRT/3_bisensoryblock.csv,B,121,,,,,,,,,0,1,1,2,0,7,7,9,,,,,,,,,,,,,,,,,,,,,,,,,,,,,,,,,,,,,,,,,,,,,,,,,,,,,,,,,,,,,,,,,,,,,,,,,,,,,,,899.213914508,None,901.9239196309936,901.9339752479573,901.9239362852007,None,space,0.19010776694631204,901.9239196309936,None,None,900.7139365859912,901.9139356800006,900.7139365859912,None,902.2239578479785,None,902.2239524631935,902.3239355109981,,,,,,,,,,,,,,,,,3,001,2022_Dec_01_1721,Cognition2_FullCode1,2021.2.3,99.93299391711844,
,,,,,,,,,,,,,,,,,,,,,,,,,,,,,,,,,,,,,,,,,,,,,,,/Users/shamslab/Desktop/Cognition2_FullExperimentFile/conditionFiles_SRT/3_bisensoryblock.csv,B,81,,,,,,,,,0,1,1,2,0,8,8,22,,,,,,,,,,,,,,,,,,,,,,,,,,,,,,,,,,,,,,,,,,,,,,,,,,,,,,,,,,,,,,,,,,,,,,,,,,,,,,,902.5239302289556,None,904.8339690339635,904.8439290869865,904.8339493711886,None,space,0.20803315803641453,904.8339690339635,None,None,904.0239368969924,904.8239487659885,904.0239368969924,None,905.1439297139877,None,905.1440383952053,905.2439389060019,,,,,,,,,,,,,,,,,3,001,2022_Dec_01_1721,Cognition2_FullCode1,2021.2.3,99.93299391711844,
,,,,,,,,,,,,,,,,,,,,,,,,,,,,,,,,,,,,,,,,,,,,,,,/Users/shamslab/Desktop/Cognition2_FullExperimentFile/conditionFiles_SRT/3_bisensoryblock.csv,B,283,,,,,,,,,0,1,1,2,0,9,9,17,,,,,,,,,,,,,,,,,,,,,,,,,,,,,,,,,,,,,,,,,,,,,,,,,,,,,,,,,,,,,,,,,,,,,,,,,,,,,,,905.4439741179813,None,909.7739622289664,909.7840249429573,909.7740417982044,None,space,0.24405557505087927,909.7739622289664,None,None,906.9439454149688,909.7640411930042,906.9439454149688,None,910.1239464890095,None,910.1239434802031,910.2239379599923,,,,,,,,,,,,,,,,,3,001,2022_Dec_01_1721,Cognition2_FullCode1,2021.2.3,99.93299391711844,
,,,,,,,,,,,,,,,,,,,,,,,,,,,,,,,,,,,,,,,,,,,,,,,/Users/shamslab/Desktop/Cognition2_FullExperimentFile/conditionFiles_SRT/3_bisensoryblock.csv,B,345,,,,,,,,,0,1,1,2,0,10,10,0,,,,,,,,,,,,,,,,,,,,,,,,,,,,,,,,,,,,,,,,,,,,,,,,,,,,,,,,,,,,,,,,,,,,,,,,,,,,,,,910.4239373939927,None,915.3740343329846,915.3839558519539,915.3739821501716,None,space,0.17198369198013097,915.3740343329846,None,None,911.9240259319777,915.3639815449715,911.9240259319777,None,915.6539174009813,None,915.6540299361862,915.7539121760055,,,,,,,,,,,,,,,,,3,001,2022_Dec_01_1721,Cognition2_FullCode1,2021.2.3,99.93299391711844,
,,,,,,,,,,,,,,,,,,,,,,,,,,,,,,,,,,,,,,,,,,,,,,,/Users/shamslab/Desktop/Cognition2_FullExperimentFile/conditionFiles_SRT/3_bisensoryblock.csv,B,274,,,,,,,,,0,1,1,2,0,11,11,23,,,,,,,,,,,,,,,,,,,,,,,,,,,,,,,,,,,,,,,,,,,,,,,,,,,,,,,,,,,,,,,,,,,,,,,,,,,,,,,915.9539253769908,None,920.1940289319609,920.2040222759824,920.1940257111622,None,space,0.1919832809944637,920.1940289319609,None,None,917.4539619329735,920.1840251059621,917.4539619329735,None,920.4940694549587,None,920.4939797901956,920.5940266599646,,,,,,,,,,,,,,,,,3,001,2022_Dec_01_1721,Cognition2_FullCode1,2021.2.3,99.93299391711844,
,,,,,,,,,,,,,,,,,,,,,,,,,,,,,,,,,,,,,,,,,,,,,,,/Users/shamslab/Desktop/Cognition2_FullExperimentFile/conditionFiles_SRT/3_bisensoryblock.csv,B,212,,,,,,,,,0,1,1,2,0,12,12,3,,,,,,,,,,,,,,,,,,,,,,,,,,,,,,,,,,,,,,,,,,,,,,,,,,,,,,,,,,,,,,,,,,,,,,,,,,,,,,,920.7940280629555,None,924.4140383320046,924.4240227050032,924.4140007771842,None,space,0.19601496699033305,924.4140383320046,None,None,922.2940065769944,924.4040001719841,922.2940065769944,None,924.714007233968,None,924.7140244901587,924.8140328819863,,,,,,,,,,,,,,,,,3,001,2022_Dec_01_1721,Cognition2_FullCode1,2021.2.3,99.93299391711844,
