filePaths,rhythm,stim1,stim2,stim3,stim4,stim5,stim6,stim1Start,stim1End,stim2Start,stim2End,stim3Start,stim3End,stim4Start,stim4End,stim5Start,stim5End,stim6Start,stim6End,audFile,audStart,similCat,rhythm_i2,stim1_i2,stim2_i2,stim3_i2,stim4_i2,stim5_i2,stim6_i2,stim1Start_i2,stim1End_i2,stim2Start_i2,stim2End_i2,stim3Start_i2,stim3End_i2,stim4Start_i2,stim4End_i2,stim5Start_i2,stim5End_i2,stim6Start_i2,stim6End_i2,audFile_i2,audStart_i2,similCat_i2,setVol,corrMatchAnswer,condFilePath,sensoryCond,stimStart,overallRhythmOrder.thisRepN,overallRhythmOrder.thisTrialN,overallRhythmOrder.thisN,overallRhythmOrder.thisIndex,AudVisRhythmLoop.thisRepN,AudVisRhythmLoop.thisTrialN,AudVisRhythmLoop.thisN,AudVisRhythmLoop.thisIndex,pickingSRTCond.thisRepN,pickingSRTCond.thisTrialN,pickingSRTCond.thisN,pickingSRTCond.thisIndex,srtTrials.thisRepN,srtTrials.thisTrialN,srtTrials.thisN,srtTrials.thisIndex,text_3.started,goToNext.started,goToNext.keys,goToNext.rt,variableInstructions.started,goToBlockKey.started,goToBlockKey.keys,goToBlockKey.rt,text_2.started,preFix.started,preFix.stopped,holdFix.started,audioTrialSound.started,cir1.started,cir1.stopped,cir2.started,cir2.stopped,cir3.started,cir3.stopped,cir4.started,cir4.stopped,cir5.started,cir5.stopped,holdFix.stopped,cir6.started,cir6.stopped,text.started,text.stopped,holdFix_i2.started,audioTrialSound_i2.started,cir1_i2.started,cir1_i2.stopped,cir2_i2.started,cir2_i2.stopped,cir3_i2.started,cir3_i2.stopped,cir4_i2.started,cir4_i2.stopped,cir5_i2.started,cir5_i2.stopped,cir6_i2.started,cir6_i2.stopped,holdFix_i2.stopped,rhythmChoice.started,promptTxt.started,rhythmChoice.keys,rhythmChoice.rt,text_5.started,text_5.stopped,text_2.stopped,breatheBro.started,image.started,spaceTxt.started,keyToGo.started,keyToGo.keys,keyToGo.rt,mainInstrText.started,MoveToMainTask.started,MoveToMainTask.keys,MoveToMainTask.rt,whichBlkTxt.started,LetsGoGirls.started,LetsGoGirls.keys,LetsGoGirls.rt,fixCross.started,catchEarly.started,text_4.started,catchEarly.stopped,gratingStim.started,beepStim.started,yesHitIt.started,gratingStim.stopped,yesHitIt.keys,yesHitIt.rt,catchEarly.keys,feedbackIfNeeded.started,annoyingBeep.started,annoyingBeep.stopped,feedbackIfNeeded.stopped,fixCross.stopped,wordListTime,wordRecallInstr.started,keytoWords.started,keytoWords.keys,keytoWords.rt,textForWords.started,wordText.started,wordTestTiming.started,textForWords.text,wordTestTiming.keys,wordTestTiming.rt,byebyeText.started,pressToEnd.started,pressToEnd.keys,pressToEnd.rt,participant,session,date,expName,psychopyVersion,frameRate,
,,,,,,,,,,,,,,,,,,,,,,,,,,,,,,,,,,,,,,,,,,,,,,,,,,,,,,,,,,,,,,,,,,11.26384746300755,11.4539032199973,space,36.09046808599669,,,,,,,,,,,,,,,,,,,,,,,,,,,,,,,,,,,,,,,,,,,,,,,,,,,,,,,,,,,,,,,,,,,,,,,,,,,,,,,,,,,,,,,,,,,,4,001,2023-02-02_10h21.18.638,Cognition2_FullCode1,2022.2.5,99.96623840939809,
/Users/shamslab/Desktop/Cognition2_FullExperimentFile/4_VisualBlock1.csv,19,2,1,2,1,2,1,11,41,56,61,76,106,121,126,141,171,186,191,3_audFile.wav,10,6,19,2,1,2,1,2,1,11,41,56,61,76,106,121,126,141,171,186,191,3_audFile.wav,10,6,0,1,,,,0,0,0,0,0,0,0,3,,,,,,,,,,,,,47.67435001600825,47.77422263700282,space,4.4573098799883155,52.275472060005995,52.4456082819961,53.445823482004926,53.47586368500197,53.575935690700135,53.58593779600051,53.88622710600612,54.03594514800352,54.08610354599659,54.23611551900103,54.53620635900006,54.6862031060009,54.73616987900459,54.88622323599702,55.18636948699714,55.33646939400933,55.33646939400933,55.386357518000295,55.386357518000295,56.69681803800631,56.69681803800631,56.79680482570984,56.80673457100056,57.10686129500391,57.25693772399973,57.30703659800929,57.457041219007806,57.7571687699965,57.907056484997156,57.95717560900084,58.107147789007286,58.40732774900971,58.55729775900545,58.60730306600453,59.05745060800109,59.05745060800109,59.05745060800109,1,2.845837231987389,61.92824646900408,,,,,,,,,,,,,,,,,,,,,,,,,,,,,,,,,,,,,,,,,,,,,,,,4,001,2023-02-02_10h21.18.638,Cognition2_FullCode1,2022.2.5,99.96623840939809,
/Users/shamslab/Desktop/Cognition2_FullExperimentFile/4_VisualBlock1.csv,25,2,1,1,2,1,2,11,41,56,61,76,81,96,126,141,146,161,191,3_audFile.wav,10,6,25,2,1,1,2,1,2,11,41,56,61,76,81,96,126,141,146,161,191,3_audFile.wav,10,6,0,1,,,,0,0,0,0,0,1,1,30,,,,,,,,,,,,,,,,,63.42875828400429,63.6087035620003,64.60899434200837,64.62924885400571,64.72911192369793,64.73911433600006,65.0391672859987,65.189210224009,65.23919150100846,65.3893585140031,65.43929583400313,65.58935685100732,65.8894852950034,66.03959072800353,66.08937864100153,66.48955868200574,66.23955496800772,66.53956769499928,66.53956769499928,67.84991198500211,67.84991198500211,67.94998465971003,67.96005966200028,68.26010874799977,68.41020111700345,68.46012426599918,68.61013478299719,68.66017160500633,68.81020229200658,69.11029007499747,69.26037006999832,69.31032056100958,69.46045677299844,69.76043243000458,70.21058340399759,70.21058340399759,70.21058340399759,1,1.189640144992154,71.42097701999592,,,,,,,,,,,,,,,,,,,,,,,,,,,,,,,,,,,,,,,,,,,,,,,,4,001,2023-02-02_10h21.18.638,Cognition2_FullCode1,2022.2.5,99.96623840939809,
/Users/shamslab/Desktop/Cognition2_FullExperimentFile/4_VisualBlock1.csv,28,1,2,1,1,2,2,11,16,31,61,76,81,96,101,116,146,161,191,3_audFile.wav,10,5,22,1,2,1,2,2,1,11,16,31,61,76,81,96,126,141,171,186,191,3_audFile.wav,10,5,0,2,,,,0,0,0,0,0,2,2,27,,,,,,,,,,,,,,,,,72.92132708600548,73.10152484600258,74.10180758399656,74.12174761600909,74.22173147369904,74.23190321899892,74.28167691199633,74.43187224400754,74.73188813900924,74.88197704299819,74.93193738500122,75.08199510299892,75.13199702200654,75.2820552589983,75.58220984099898,75.98232904500037,75.73212590000185,76.0322362450097,76.0322362450097,77.33299511500809,77.33299511500809,77.43270634170767,77.44261698900664,77.49272630900668,77.64264748900314,77.94299462399795,78.09287516200857,78.1429039890063,78.29294117901009,78.59309141199628,78.74312739800371,79.0430987310101,79.19309970100585,79.243206981002,79.69331656700524,79.69331656700524,79.69331656700524,2,1.099200002005091,80.81362362700747,,,,,,,,,,,,,,,,,,,,,,,,,,,,,,,,,,,,,,,,,,,,,,,,4,001,2023-02-02_10h21.18.638,Cognition2_FullCode1,2022.2.5,99.96623840939809,
/Users/shamslab/Desktop/Cognition2_FullExperimentFile/4_VisualBlock1.csv,17,2,1,2,2,1,1,11,41,56,61,76,106,121,151,166,171,186,191,3_audFile.wav,10,6,23,2,1,2,1,1,2,11,41,56,61,76,106,121,126,141,146,161,191,3_audFile.wav,10,6,0,2,,,,0,0,0,0,0,3,3,5,,,,,,,,,,,,,,,,,82.31414999000845,82.50420423400647,83.5044444820087,83.51445497000532,83.61444388070231,83.6244993500004,83.92448369100748,84.07456092600478,84.12467032800487,84.27464031599811,84.57469403100549,84.72485595900798,85.02483894799661,85.17497303300479,85.22487055000965,85.37498835900624,85.37498835900624,85.42497472200193,85.42497472200193,86.72556409500248,86.72556409500248,86.82538751970424,86.8353299809969,87.13544580999587,87.28556914199726,87.3355564789963,87.48558008800319,87.7857358350011,87.93565734000003,87.98574033699697,88.13575580000179,88.18570124600956,88.3357681750058,88.63588627500576,89.08606919200975,89.08606919200975,89.08606919200975,2,1.825255642994307,90.93656275499961,,,,,,,,,,,,,,,,,,,,,,,,,,,,,,,,,,,,,,,,,,,,,,,,4,001,2023-02-02_10h21.18.638,Cognition2_FullCode1,2022.2.5,99.96623840939809,
/Users/shamslab/Desktop/Cognition2_FullExperimentFile/4_VisualBlock1.csv,26,1,2,1,2,1,2,11,16,31,61,76,81,96,126,141,146,161,191,3_audFile.wav,10,5,22,1,2,1,2,2,1,11,16,31,61,76,81,96,126,141,171,186,191,3_audFile.wav,10,5,0,2,,,,0,0,0,0,0,4,4,21,,,,,,,,,,,,,,,,,92.43691875399963,92.61696681800822,93.61729392501002,93.6375160900061,93.73737890070333,93.74743912900158,93.79736117900757,93.9475516359962,94.24747800700425,94.39751278300537,94.44763693399727,94.59760214299604,94.89767531400139,95.04774715400708,95.09778265000205,95.49793100899842,95.24772516499797,95.54781453000032,95.54781453000032,96.84838113500155,96.84838113500155,96.94822787670273,96.95820153600653,97.00835694299894,97.1583110329957,97.45839572700788,97.60837358600111,97.6585056949989,97.80852240700915,98.10862653900404,98.2587331780087,98.55872741399799,98.70871077800984,98.75882345200807,99.20891875799862,99.20891875799862,99.20891875799862,2,0.6225879029952921,99.85915815200133,,,,,,,,,,,,,,,,,,,,,,,,,,,,,,,,,,,,,,,,,,,,,,,,4,001,2023-02-02_10h21.18.638,Cognition2_FullCode1,2022.2.5,99.96623840939809,
/Users/shamslab/Desktop/Cognition2_FullExperimentFile/4_VisualBlock1.csv,18,2,2,1,1,2,1,11,41,56,86,101,106,121,126,141,171,186,191,3_audFile.wav,10,7,18,2,2,1,1,2,1,11,41,56,86,101,106,121,126,141,171,186,191,3_audFile.wav,10,7,0,1,,,,0,0,0,0,0,5,5,20,,,,,,,,,,,,,,,,,101.35959670500597,101.53973447599856,102.539877711999,102.55989760700322,102.65996893970441,102.6699498710077,102.9699538720015,103.12005859499914,103.4201187340077,103.57018027101003,103.62016266700812,103.77023075400211,103.82025118599995,103.97026198099775,104.27043097100977,104.42039981100243,104.42039981100243,104.47042537599918,104.47042537599918,105.77096106400131,105.77096106400131,105.87087185170822,105.88080383700435,106.18089399000746,106.33093671999814,106.63115698299953,106.78114597400418,106.83112055400852,106.98125956700824,107.0312240869971,107.18119219099754,107.48140829100157,107.63145958300447,107.68143469200004,108.1315492720023,108.1315492720023,108.1315492720023,1,0.6201935129938647,108.77151307900203,,,,,,,,,,,,,,,,,,,,,,,,,,,,,,,,,,,,,,,,,,,,,,,,4,001,2023-02-02_10h21.18.638,Cognition2_FullCode1,2022.2.5,99.96623840939809,
/Users/shamslab/Desktop/Cognition2_FullExperimentFile/4_VisualBlock1.csv,16,2,2,1,2,1,1,11,41,56,86,101,106,121,151,166,171,186,191,3_audFile.wav,10,7,18,2,2,1,1,2,1,11,41,56,86,101,106,121,126,141,171,186,191,3_audFile.wav,10,7,0,2,,,,0,0,0,0,0,6,6,22,,,,,,,,,,,,,,,,,110.27213027300604,110.46214147099818,111.46241119899787,111.47261279000668,111.57241109670576,111.58256705000531,111.88261349299864,112.03258408000693,112.33270666300086,112.48266402400623,112.53279471299902,112.68279619399982,112.98297269899922,113.13289448800788,113.18295796200982,113.3329201710003,113.3329201710003,113.38297290999617,113.38297290999617,114.68365890500718,114.68365890500718,114.78332239970769,114.79341273200407,115.09340428400901,115.24351955400198,115.54356741100491,115.69371890700131,115.74361959000817,115.89369959200849,115.94376556800853,116.09378397700493,116.39380382900708,116.54390308899747,116.59389945700241,117.04399613299756,117.04399613299756,117.04399613299756,2,0.7719416489999276,117.8342223840009,119.33463469799608,,,,,,,,,,,,,,,,,,,,,,,,,,,,,,,,,,,,,,,,,,,,,,,4,001,2023-02-02_10h21.18.638,Cognition2_FullCode1,2022.2.5,99.96623840939809,
/Users/shamslab/Desktop/Cognition2_FullExperimentFile/4_VisualBlock1.csv,18,2,2,1,1,2,1,11,41,56,86,101,106,121,126,141,171,186,191,3_audFile.wav,10,7,16,2,2,1,2,1,1,11,41,56,86,101,106,121,151,166,171,186,191,3_audFile.wav,10,7,0,2,,,,0,0,0,0,0,7,7,25,,,,,,,,,,,,,,,,,119.33463469799608,119.5247391390003,120.52500314801,120.53540514600172,120.63507214470155,120.64506906899624,120.9451809930033,121.09513842999877,121.39523872699647,121.54543542100873,121.59534262900706,121.74537685800169,121.79539610900974,121.94542954899953,122.24555266700918,122.39550734500517,122.39550734500517,122.4454933609959,122.4454933609959,123.75590571000066,123.75590571000066,123.85598410270904,123.86594917000912,124.16606725200836,124.31618715499644,124.61615675700887,124.7662449220079,124.81621935800649,124.9663562420028,125.26638033700874,125.41647812600422,125.46647690700775,125.61644067600719,125.66645061600138,126.11666020900884,126.11666020900884,126.11666020900884,2,1.3237279260065407,127.46700642899668,,120.53540514600172,,,,,,,,,,,,,,,,,,,,,,,,,,,,,,,,,,,,,,,,,,,,,,4,001,2023-02-02_10h21.18.638,Cognition2_FullCode1,2022.2.5,99.96623840939809,
/Users/shamslab/Desktop/Cognition2_FullExperimentFile/4_VisualBlock1.csv,29,1,1,2,1,2,2,11,16,31,36,51,81,96,101,116,146,161,191,3_audFile.wav,10,4,29,1,1,2,1,2,2,11,16,31,36,51,81,96,101,116,146,161,191,3_audFile.wav,10,4,0,1,,,,0,0,0,0,0,8,8,13,,,,,,,,,,,,,,,,,128.9673884369986,129.1474936779996,130.14780622400576,130.16787323800963,130.26790610570606,130.27781205900828,130.32789621700067,130.47785357000248,130.52792024600785,130.6778810399992,130.97788329300238,131.1280554850091,131.17814242800523,131.32810618499934,131.62815360999957,132.02824406900618,131.77825790300267,132.07837314000062,132.07837314000062,133.37887673900696,133.37887673900696,133.47863208771014,133.48863117900328,133.53870673199708,133.68867692800995,133.7387429579976,133.8889032379957,134.18897684299736,134.33891775200027,134.3890714230074,134.5389202189981,134.8391590030078,134.9890500150068,135.28934790300264,135.73943933499686,135.73943933499686,135.73943933499686,1,0.356415365007706,136.11955762399884,,,,,,,,,,,,,,,,,,,,,,,,,,,,,,,,,,,,,,,,,,,,,,,,4,001,2023-02-02_10h21.18.638,Cognition2_FullCode1,2022.2.5,99.96623840939809,
/Users/shamslab/Desktop/Cognition2_FullExperimentFile/4_VisualBlock1.csv,20,1,2,2,1,2,1,11,16,31,61,76,106,121,126,141,171,186,191,3_audFile.wav,10,5,22,1,2,1,2,2,1,11,16,31,61,76,81,96,126,141,171,186,191,3_audFile.wav,10,5,0,2,,,,0,0,0,0,0,9,9,1,,,,,,,,,,,,,,,,,137.61992282699794,137.7999790370086,138.80026032599562,138.8201970460068,138.9202944846984,138.93024136700842,138.98029093100922,139.13030031500966,139.4304233080038,139.58041085800505,139.88047536299564,140.03056820199708,140.08074921400112,140.2307514819986,140.53073965999647,140.68076347600436,140.68076347600436,140.7308190120093,140.7308190120093,142.03127835699706,142.03127835699706,142.13108895270125,142.1410800570011,142.19122242101002,142.3412739350024,142.6413324430032,142.79142493700783,142.8413338570099,142.99149428600504,143.2915403310035,143.44170245100395,143.74201617999643,143.8916593210015,143.94163732099696,144.39181397300854,144.39181397300854,144.39181397300854,2,0.8315760569967097,145.2421349799988,146.74249779099773,,,,,,,,,,,,,,,,,,,,,,,,,,,,,,,,,,,,,,,,,,,,,,,4,001,2023-02-02_10h21.18.638,Cognition2_FullCode1,2022.2.5,99.96623840939809,
/Users/shamslab/Desktop/Cognition2_FullExperimentFile/4_VisualBlock1.csv,21,2,1,1,2,2,1,11,41,56,61,76,81,96,126,141,171,186,191,3_audFile.wav,10,6,23,2,1,2,1,1,2,11,41,56,61,76,106,121,126,141,146,161,191,3_audFile.wav,10,6,0,2,,,,0,0,0,0,0,10,10,11,,,,,,,,,,,,,,,,,146.74249779099773,146.93249879599898,147.93284080299782,147.94313037399843,148.04294065970316,148.0528125540004,148.35287293299916,148.50296656400315,148.5530209330027,148.702949368002,148.7530518900021,148.9031274190056,149.20326451800065,149.35327105800388,149.65340702999674,149.80327555899567,149.80327555899567,149.8534737739974,149.8534737739974,,151.15381798399903,151.2538420027049,151.2638753170031,151.56389127700822,151.71396245100186,151.76390816800995,151.91406413700315,152.21412061101,152.36417980100669,152.41409963200567,152.56433275800373,152.6141019610077,152.76421544799814,153.06431080300536,153.51440803000878,153.51440803000878,153.51440803000878,1,2.293054840993136,155.83498953600065,,147.94313037399843,,,,,,,,,,,,,,,,,,,,,,,,,,,,,,,,,,,,,,,,,,,,,,4,001,2023-02-02_10h21.18.638,Cognition2_FullCode1,2022.2.5,99.96623840939809,
/Users/shamslab/Desktop/Cognition2_FullExperimentFile/4_VisualBlock1.csv,27,1,1,2,2,1,2,11,16,31,36,51,81,96,126,141,146,161,191,3_audFile.wav,10,4,29,1,1,2,1,2,2,11,16,31,36,51,81,96,101,116,146,161,191,3_audFile.wav,10,4,0,2,,,,0,0,0,0,0,11,11,26,,,,,,,,,,,,,,,,,157.33550468299654,157.5155162410083,158.51603365200572,158.53587812100886,158.6358255337036,158.64583192199643,158.695909579008,158.8458687359962,158.8959700359992,159.0460308949987,159.346093301996,159.49609144500573,159.79620501100726,159.94626149600663,159.9962182599993,160.3963979149994,160.14629939100996,160.44649142499838,160.44649142499838,161.74697050100076,161.74697050100076,161.84691511870915,161.8567946999974,161.90676953100774,162.05684711399954,162.1069466409972,162.25687221399858,162.55697590700584,162.7070994950045,162.75697639399732,162.90710395800124,163.20723325799918,163.35719896599767,163.65724416999728,164.1074096950033,164.1074096950033,164.1074096950033,2,5.11589501000708,169.24889538700518,,,,,,,,,,,,,,,,,,,,,,,,,,,,,,,,,,,,,,,,,,,,,,,,4,001,2023-02-02_10h21.18.638,Cognition2_FullCode1,2022.2.5,99.96623840939809,
/Users/shamslab/Desktop/Cognition2_FullExperimentFile/4_VisualBlock1.csv,21,2,1,1,2,2,1,11,41,56,61,76,81,96,126,141,171,186,191,3_audFile.wav,10,6,21,2,1,1,2,2,1,11,41,56,61,76,81,96,126,141,171,186,191,3_audFile.wav,10,6,0,1,,,,0,0,0,0,0,12,12,28,,,,,,,,,,,,,,,,,170.7492498680076,170.92936100400402,171.92972278500383,171.94986308600346,172.04977922570106,172.05979072500486,172.35972380700696,172.50991044400143,172.55979786800162,172.7099987350084,172.75991275699926,172.91006185600418,173.20996538799955,173.3600537279999,173.6602115679998,173.8103152810072,173.8103152810072,173.86018764300388,173.86018764300388,175.16085127199767,175.16085127199767,175.26056313970912,175.27057778800372,175.5706692350068,175.720698146004,175.77086446099565,175.9207963450026,175.97083197400207,176.12077418300032,176.42101813400222,176.57098960400617,176.8710271440068,177.02123821500572,177.07122377300402,177.5212444659992,177.5212444659992,177.5212444659992,2,0.8150673869968159,178.3614272959967,,,,,,,,,,,,,,,,,,,,,,,,,,,,,,,,,,,,,,,,,,,,,,,,4,001,2023-02-02_10h21.18.638,Cognition2_FullCode1,2022.2.5,99.96623840939809,
/Users/shamslab/Desktop/Cognition2_FullExperimentFile/4_VisualBlock1.csv,24,1,2,2,1,1,2,11,16,31,61,76,106,121,126,141,146,161,191,3_audFile.wav,10,5,24,1,2,2,1,1,2,11,16,31,61,76,106,121,126,141,146,161,191,3_audFile.wav,10,5,0,1,,,,0,0,0,0,0,13,13,23,,,,,,,,,,,,,,,,,179.86194666099618,180.04197349899914,181.04225174999738,181.0622951240075,181.1622504127081,181.17230601499614,181.2223331240093,181.37239444399893,181.67258194100577,181.82246584200766,182.12264769899775,182.27256253099767,182.32262669500778,182.47265076400072,182.52280068400432,182.92277735300013,182.67283833300462,182.97284179199778,182.97284179199778,184.2831739819958,184.2831739819958,184.38322421670455,184.39322356200137,184.44327847400564,184.59326562500792,184.8934173250018,185.04340752400458,185.44360465100908,185.59354846400674,185.6435485050024,185.79374841800018,185.84372161100328,185.9938988549984,186.29372723100823,186.74395574300434,186.74395574300434,186.74395574300434,1,0.38464377899072133,187.1540927830065,,,,,,,,,,,,,,,,,,,,,,,,,,,,,,,,,,,,,,,,,,,,,,,,4,001,2023-02-02_10h21.18.638,Cognition2_FullCode1,2022.2.5,99.96623840939809,
/Users/shamslab/Desktop/Cognition2_FullExperimentFile/4_VisualBlock1.csv,19,2,1,2,1,2,1,11,41,56,61,76,106,121,126,141,171,186,191,3_audFile.wav,10,6,25,2,1,1,2,1,2,11,41,56,61,76,81,96,126,141,146,161,191,3_audFile.wav,10,6,0,2,,,,0,0,0,0,0,14,14,24,,,,,,,,,,,,,,,,,188.6544916040002,188.83446817900403,189.83484348999627,189.8548035040003,189.95489894370985,189.96484027900442,190.2649087900063,190.41501733200857,190.46497409300355,190.61506120100967,190.91503850900335,191.06512460300291,191.11509343900252,191.26514787299675,191.56526935800503,191.71545454200532,191.71545454200532,191.7653244420071,191.7653244420071,193.0658822760015,193.0658822760015,193.1656822106961,193.175714721001,193.47581628900662,193.6258752069989,193.67603158000566,193.82589190000726,193.8759753110062,194.02597095099918,194.32612556200183,194.47620619900408,194.52610142000776,194.6761834360077,194.97619668600964,195.42644886100607,195.42644886100607,195.42644886100607,2,2.1738469819974853,197.62701645100606,,,,,,,,,,,,,,,,,,,,,,,,,,,,,,,,,,,,,,,,,,,,,,,,4,001,2023-02-02_10h21.18.638,Cognition2_FullCode1,2022.2.5,99.96623840939809,
/Users/shamslab/Desktop/Cognition2_FullExperimentFile/4_VisualBlock1.csv,29,1,1,2,1,2,2,11,16,31,36,51,81,96,101,116,146,161,191,3_audFile.wav,10,4,27,1,1,2,2,1,2,11,16,31,36,51,81,96,126,141,146,161,191,3_audFile.wav,10,4,0,2,,,,0,0,0,0,0,15,15,4,,,,,,,,,,,,,,,,,199.12743988400325,199.3075406410062,200.30772430500656,200.32785196400073,200.42792595570063,200.43795276799938,200.48778682699776,200.63791996700456,200.68804237600125,200.8379229889979,201.13801465299912,201.28804644499905,201.33811586000957,201.48810611299996,201.78830836999987,202.18835368599684,201.9383128900081,202.23827234799683,202.23827234799683,203.53886678500567,203.53886678500567,203.63869569170492,203.64866782500758,203.69876320600451,203.84878392900282,203.89881643399713,204.04887698600942,204.3489340130036,204.49902953300625,204.79914646499674,204.94901236900478,204.99909799500892,205.14928646900808,205.44933199499792,205.89951811599894,205.89951811599894,205.89951811599894,2,5.044771175991627,210.97085842200613,,,,,,,,,,,,,,,,,,,,,,,,,,,,,,,,,,,,,,,,,,,,,,,,4,001,2023-02-02_10h21.18.638,Cognition2_FullCode1,2022.2.5,99.96623840939809,
/Users/shamslab/Desktop/Cognition2_FullExperimentFile/4_VisualBlock1.csv,28,1,2,1,1,2,2,11,16,31,61,76,81,96,101,116,146,161,191,3_audFile.wav,10,5,28,1,2,1,1,2,2,11,16,31,61,76,81,96,101,116,146,161,191,3_audFile.wav,10,5,0,1,,,,0,0,0,0,0,16,16,31,,,,,,,,,,,,,,,,,212.47119524700975,212.65124217400444,213.65156628099794,213.67171316000167,213.7717041946962,213.78168431100494,213.83170511100616,213.98170406999998,214.28170926599705,214.43187000299804,214.4818730810075,214.63183568500972,214.68198230500275,214.8319068050041,215.13210124299803,215.53217800900165,215.2820585820009,215.5821627240075,215.5821627240075,216.88265045000298,216.88265045000298,216.98255217170663,216.99255387899757,217.0425876500085,217.192570721003,217.4926952550013,217.6426948790031,217.6928069590067,217.84276800299995,217.8927562660101,218.04285321300267,218.3429656590015,218.49303694000992,218.79302105100942,219.2432603250054,219.2432603250054,219.2432603250054,1,0.3010332499979995,219.5633692209958,221.06368759900215,,,,,,,,,,,,,,,,,,,,,,,,,,,,,,,,,,,,,,,,,,,,,,,4,001,2023-02-02_10h21.18.638,Cognition2_FullCode1,2022.2.5,99.96623840939809,
/Users/shamslab/Desktop/Cognition2_FullExperimentFile/4_VisualBlock1.csv,27,1,1,2,2,1,2,11,16,31,36,51,81,96,126,141,146,161,191,3_audFile.wav,10,4,29,1,1,2,1,2,2,11,16,31,36,51,81,96,101,116,146,161,191,3_audFile.wav,10,4,0,2,,,,0,0,0,0,0,17,17,2,,,,,,,,,,,,,,,,,221.06368759900215,221.25371255900245,222.2540271809994,222.27410957300162,222.37409812570695,222.38404529899708,222.43413576199964,222.5841234440013,222.6340970510064,222.7842236419965,223.08422340999823,223.23436266800854,223.53437543699692,223.6845275969972,223.73455568100326,224.13466399400204,223.88452017100644,224.18452797300415,224.18452797300415,225.49493692000397,225.49493692000397,225.59510458869772,225.60504291699908,225.6550631220016,225.80512264100253,225.85504939200473,226.00513703199977,226.3051811290061,226.45530924000195,226.50518051600375,226.65529095000238,226.95536164600344,227.10549519900815,227.40549867300433,227.85572980700817,227.85572980700817,227.85572980700817,2,0.152395176992286,228.0356203560077,,222.27410957300162,,,,,,,,,,,,,,,,,,,,,,,,,,,,,,,,,,,,,,,,,,,,,,4,001,2023-02-02_10h21.18.638,Cognition2_FullCode1,2022.2.5,99.96623840939809,
/Users/shamslab/Desktop/Cognition2_FullExperimentFile/4_VisualBlock1.csv,17,2,1,2,2,1,1,11,41,56,61,76,106,121,151,166,171,186,191,3_audFile.wav,10,6,17,2,1,2,2,1,1,11,41,56,61,76,106,121,151,166,171,186,191,3_audFile.wav,10,6,0,1,,,,0,0,0,0,0,18,18,15,,,,,,,,,,,,,,,,,229.53621936700074,229.71621316700475,230.71655979999923,230.73654425999848,230.83658872069645,230.8465301749966,231.14647750499716,231.29659576000995,231.34664101000817,231.4966020080028,231.79679708200274,231.94679867700324,232.24700015800772,232.39697872700344,232.44699456900707,232.59696749900468,232.59696749900468,232.64702342799865,232.64702342799865,233.94741628000338,233.94741628000338,234.04753231669747,234.05736007500673,234.35751057400194,234.5075128239987,234.5575921540003,234.70765597799618,235.00765577700804,235.15784604899818,235.45784488599747,235.60786634500255,235.65783096000087,235.80798899699585,235.85787401000562,236.30803813600505,236.30803813600505,236.30803813600505,1,0.9401373579894425,237.26838270000007,,,,,,,,,,,,,,,,,,,,,,,,,,,,,,,,,,,,,,,,,,,,,,,,4,001,2023-02-02_10h21.18.638,Cognition2_FullCode1,2022.2.5,99.96623840939809,
/Users/shamslab/Desktop/Cognition2_FullExperimentFile/4_VisualBlock1.csv,16,2,2,1,2,1,1,11,41,56,86,101,106,121,151,166,171,186,191,3_audFile.wav,10,7,16,2,2,1,2,1,1,11,41,56,86,101,106,121,151,166,171,186,191,3_audFile.wav,10,7,0,1,,,,0,0,0,0,0,19,19,8,,,,,,,,,,,,,,,,,238.76869526600058,238.95876609999686,239.959142385007,239.9690618970053,240.06913630670897,240.07909767400997,240.3791635929956,240.5292748040083,240.82945673800714,240.97946480399696,241.02939028800756,241.17951013499987,241.479702482,241.6295747490076,241.67961659599678,241.82966780899733,241.82966780899733,241.87960874600685,241.87960874600685,243.18013121800323,243.18013121800323,243.28006758770061,243.28996766499768,243.59024792700075,243.74012011601008,244.04025433500647,244.1903037209995,244.24033300799783,244.39034668300883,244.69053665400133,244.84042692699586,244.89057190500898,245.04057455199654,245.09052515099756,245.54071249700792,245.54071249700792,245.54071249700792,2,1.1798541549942456,246.74108915199758,,,,,,,,,,,,,,,,,,,,,,,,,,,,,,,,,,,,,,,,,,,,,,,,4,001,2023-02-02_10h21.18.638,Cognition2_FullCode1,2022.2.5,99.96623840939809,
/Users/shamslab/Desktop/Cognition2_FullExperimentFile/4_VisualBlock1.csv,23,2,1,2,1,1,2,11,41,56,61,76,106,121,126,141,146,161,191,3_audFile.wav,10,6,23,2,1,2,1,1,2,11,41,56,61,76,106,121,126,141,146,161,191,3_audFile.wav,10,6,0,1,,,,0,0,0,0,0,20,20,6,,,,,,,,,,,,,,,,,248.241514060006,248.4315361110057,249.43183409099584,249.44173012200918,249.5418824527078,249.55182839500776,249.8519094259973,250.00194811700203,250.05188259300485,250.20200386299985,250.50201977000688,250.65224725499866,250.70225334100542,250.8522063249984,250.90225076700153,251.30228645300667,251.05227217500214,251.35234586900333,251.35234586900333,252.6530692140077,252.6530692140077,252.75274799470935,252.7626954830048,253.0629242790019,253.21285398100736,253.26295297899924,253.412921354,253.71302387300238,253.86303554500046,253.9130713760096,254.06319532199996,254.11314342200058,254.26323481000145,254.5632820739993,255.01344156501,255.01344156501,255.01344156501,2,0.6744251609925414,255.7134726009972,,,,,,,,,,,,,,,,,,,,,,,,,,,,,,,,,,,,,,,,,,,,,,,,4,001,2023-02-02_10h21.18.638,Cognition2_FullCode1,2022.2.5,99.96623840939809,
/Users/shamslab/Desktop/Cognition2_FullExperimentFile/4_VisualBlock1.csv,21,2,1,1,2,2,1,11,41,56,61,76,81,96,126,141,171,186,191,3_audFile.wav,10,6,21,2,1,1,2,2,1,11,41,56,61,76,81,96,126,141,171,186,191,3_audFile.wav,10,6,0,1,,,,0,0,0,0,0,21,21,17,,,,,,,,,,,,,,,,,257.21409379200486,257.3941901500075,258.3943586020032,258.4144065940054,258.5143584226971,258.5244123470038,258.82444536100957,258.974495322007,259.02449369399983,259.1745768819965,259.2245666680101,259.3746253020072,259.6747165770066,259.8248294740042,260.12479694800277,260.274886883999,260.274886883999,260.3249821430072,260.3249821430072,261.62564349100285,261.62564349100285,261.7253757047074,261.73533456699806,262.03534745999787,262.18548611000006,262.2353993200086,262.38547769100114,262.4356898719998,262.58550095900137,262.8856886130088,263.0356383629987,263.3357487769972,263.4858513969957,263.53584393100755,263.9859976279986,263.9859976279986,263.9859976279986,1,1.0222800749907037,265.0362174089969,,,,,,,,,,,,,,,,,,,,,,,,,,,,,,,,,,,,,,,,,,,,,,,,4,001,2023-02-02_10h21.18.638,Cognition2_FullCode1,2022.2.5,99.96623840939809,
/Users/shamslab/Desktop/Cognition2_FullExperimentFile/4_VisualBlock1.csv,25,2,1,1,2,1,2,11,41,56,61,76,81,96,126,141,146,161,191,3_audFile.wav,10,6,17,2,1,2,2,1,1,11,41,56,61,76,106,121,151,166,171,186,191,3_audFile.wav,10,6,0,2,,,,0,0,0,0,0,22,22,7,,,,,,,,,,,,,,,,,266.53670923500613,266.71671164200234,267.7169471810048,267.7371373990027,267.83700549969944,267.8470761350036,268.1470257320034,268.29724800700205,268.34714769500715,268.4972220500058,268.5472465769999,268.69721366600425,268.99738211600925,269.14739409800677,269.19749338700785,269.5975791640085,269.3474498860014,269.64762573799817,269.64762573799817,270.94808639600524,270.94808639600524,271.04799585769797,271.0579251750023,271.3580347160023,271.5080685270077,271.55812762001005,271.70811440800026,272.00838989100885,272.1582287659985,272.45846135400643,272.60839971899986,272.65841667600034,272.80839136600844,272.8585890300019,273.3087006590067,273.3087006590067,273.3087006590067,2,0.8035261939949123,274.1388066329964,,,,,,,,,,,,,,,,,,,,,,,,,,,,,,,,,,,,,,,,,,,,,,,,4,001,2023-02-02_10h21.18.638,Cognition2_FullCode1,2022.2.5,99.96623840939809,
/Users/shamslab/Desktop/Cognition2_FullExperimentFile/4_VisualBlock1.csv,17,2,1,2,2,1,1,11,41,56,61,76,106,121,151,166,171,186,191,3_audFile.wav,10,6,17,2,1,2,2,1,1,11,41,56,61,76,106,121,151,166,171,186,191,3_audFile.wav,10,6,0,1,,,,0,0,0,0,0,23,23,16,,,,,,,,,,,,,,,,,275.639248432999,275.81940388600924,276.8195924430038,276.8398882430047,276.93961814369686,276.9496321350016,277.24963791199843,277.3998375329975,277.44971805700334,277.5997592030035,277.8999149660085,278.04992513400794,278.35006916899874,278.5001500759972,278.5500422740006,278.70017478799855,278.70017478799855,278.75009807800234,278.75009807800234,280.05064809099713,280.05064809099713,280.150496314709,280.1604438130016,280.4607486169989,280.6107002159988,280.66072463800083,280.81083938600204,281.1108844749979,281.26089712600515,281.56112264799594,281.7110015310027,281.76107082700764,281.9111211109994,281.9612404930085,282.4111797969963,282.4111797969963,282.4111797969963,1,0.8044781359931221,283.2413949420006,,,,,,,,,,,,,,,,,,,,,,,,,,,,,,,,,,,,,,,,,,,,,,,,4,001,2023-02-02_10h21.18.638,Cognition2_FullCode1,2022.2.5,99.96623840939809,
/Users/shamslab/Desktop/Cognition2_FullExperimentFile/4_VisualBlock1.csv,27,1,1,2,2,1,2,11,16,31,36,51,81,96,126,141,146,161,191,3_audFile.wav,10,4,27,1,1,2,2,1,2,11,16,31,36,51,81,96,126,141,146,161,191,3_audFile.wav,10,4,0,1,,,,0,0,0,0,0,24,24,19,,,,,,,,,,,,,,,,,284.7419014170009,284.922020566999,285.92216372200346,285.94226606700977,286.0422073426962,286.05216655600816,286.10223817199585,286.252220356997,286.302277477007,286.4524672109983,286.75257636100287,286.9025979459984,287.20259831199655,287.35265614200034,287.40263148200756,287.8028394830035,287.55278057399846,287.85277532500913,287.85277532500913,289.1533438500046,289.1533438500046,289.2531349217097,289.2631663810025,289.31315812299727,289.4632883890008,289.51315719900595,289.6632288510009,289.9632855230011,290.11348232100136,290.4134716090048,290.5635863320058,290.6135456600023,290.76363061199663,291.0637527600047,291.5138279009989,291.5138279009989,291.5138279009989,2,0.6703071090014419,292.20405272800417,,,,,,,,,,,,,,,,,,,,,,,,,,,,,,,,,,,,,,,,,,,,,,,,4,001,2023-02-02_10h21.18.638,Cognition2_FullCode1,2022.2.5,99.96623840939809,
/Users/shamslab/Desktop/Cognition2_FullExperimentFile/4_VisualBlock1.csv,22,1,2,1,2,2,1,11,16,31,61,76,81,96,126,141,171,186,191,3_audFile.wav,10,5,22,1,2,1,2,2,1,11,16,31,61,76,81,96,126,141,171,186,191,3_audFile.wav,10,5,0,1,,,,0,0,0,0,0,25,25,14,,,,,,,,,,,,,,,,,293.7044252330088,293.8946059739974,294.89475848400616,294.9048165999993,295.00478206270054,295.014799142009,295.06483172799926,295.2149223209999,295.5150166340027,295.66500398900826,295.7150645040092,295.86509102900163,296.16510664900125,296.3152897030086,296.61527049900906,296.76526801800355,296.76526801800355,296.8153235790087,296.8153235790087,298.12566752600833,298.12566752600833,298.2257481477063,298.2357859420008,298.28581700300856,298.4357577900082,298.73593170099775,298.88586932200997,298.93599975800316,299.0859459810017,299.3860623869987,299.53606038200087,299.8362297690037,299.98633843200514,300.03635004699754,300.4864527030004,300.4864527030004,300.4864527030004,1,0.6978964279987849,301.2065136080055,,,,,,,,,,,,,,,,,,,,,,,,,,,,,,,,,,,,,,,,,,,,,,,,4,001,2023-02-02_10h21.18.638,Cognition2_FullCode1,2022.2.5,99.96623840939809,
/Users/shamslab/Desktop/Cognition2_FullExperimentFile/4_VisualBlock1.csv,22,1,2,1,2,2,1,11,16,31,61,76,81,96,126,141,171,186,191,3_audFile.wav,10,5,20,1,2,2,1,2,1,11,16,31,61,76,106,121,126,141,171,186,191,3_audFile.wav,10,5,0,2,,,,0,0,0,0,0,26,26,29,,,,,,,,,,,,,,,,,302.7070743850054,302.88715613599925,303.8873282310087,303.907383415004,304.0072915677083,304.01737588200194,304.06760680700245,304.21742103699944,304.5175459180027,304.66757643000165,304.71758688800037,304.86758110100345,305.16776590900554,305.31787843699567,305.6179572700057,305.7679628949991,305.7679628949991,305.81789130700054,305.81789130700054,307.11840748800023,307.11840748800023,307.218221887706,307.2283276270027,307.27835109499574,307.42835736399866,307.7284459990042,307.8785913250031,308.17861841800914,308.32869084501,308.3787274500064,308.5286754530098,308.8287239170022,308.9787939950038,309.0288084430067,309.47894156300754,309.47894156300754,309.47894156300754,2,0.5445216299995081,310.04918225700385,,,,,,,,,,,,,,,,,,,,,,,,,,,,,,,,,,,,,,,,,,,,,,,,4,001,2023-02-02_10h21.18.638,Cognition2_FullCode1,2022.2.5,99.96623840939809,
/Users/shamslab/Desktop/Cognition2_FullExperimentFile/4_VisualBlock1.csv,20,1,2,2,1,2,1,11,16,31,61,76,106,121,126,141,171,186,191,3_audFile.wav,10,5,20,1,2,2,1,2,1,11,16,31,61,76,106,121,126,141,171,186,191,3_audFile.wav,10,5,0,1,,,,0,0,0,0,0,27,27,18,,,,,,,,,,,,,,,,,311.54962398600765,311.7296343650087,312.7298983960063,312.7499090659985,312.8498918897021,312.8598836260062,312.9100068319967,313.05992691300344,313.36009855300654,313.51009225600865,313.8101445689972,313.9602370240027,314.01028307199886,314.1602160589973,314.4603695440019,314.6103544390062,314.6103544390062,314.66046555399953,314.66046555399953,315.96101261700096,315.96101261700096,316.06085719570547,316.07087735099776,316.12098480299755,316.2709570360021,316.5709452450101,316.72102058700693,317.02110987500055,317.17121414100984,317.22117942600744,317.3712585220055,317.67133621800167,317.8214550160046,317.87129729700973,318.32156294099696,318.32156294099696,318.32156294099696,1,0.8380336949921912,319.1817161450017,,,,,,,,,,,,,,,,,,,,,,,,,,,,,,,,,,,,,,,,,,,,,,,,4,001,2023-02-02_10h21.18.638,Cognition2_FullCode1,2022.2.5,99.96623840939809,
/Users/shamslab/Desktop/Cognition2_FullExperimentFile/4_VisualBlock1.csv,16,2,2,1,2,1,1,11,41,56,86,101,106,121,151,166,171,186,191,3_audFile.wav,10,7,18,2,2,1,1,2,1,11,41,56,86,101,106,121,126,141,171,186,191,3_audFile.wav,10,7,0,2,,,,0,0,0,0,0,28,28,10,,,,,,,,,,,,,,,,,320.68220907700015,320.8621944070037,321.8624081040034,321.8824641300016,321.9824181556978,321.99249693100865,322.2926224910043,322.4427357050008,322.7427355710097,322.8928083119972,322.9427295640053,323.0929094150051,323.3928675890056,323.5430984840059,323.59290009600227,323.74322861600376,323.74322861600376,323.7933596340008,323.7933596340008,325.09353654300503,325.09353654300503,325.19337066669686,325.20338577000075,325.5035631560022,325.6535379840061,325.9535487710091,326.1036924210057,326.15383628499694,326.30372645200987,326.35384604400315,326.50385770300636,326.80391672199767,326.95398599799955,327.00402086200484,327.45410466499743,327.45410466499743,327.45410466499743,1,1.3151105160068255,328.79464571899734,,,,,,,,,,,,,,,,,,,,,,,,,,,,,,,,,,,,,,,,,,,,,,,,4,001,2023-02-02_10h21.18.638,Cognition2_FullCode1,2022.2.5,99.96623840939809,
/Users/shamslab/Desktop/Cognition2_FullExperimentFile/4_VisualBlock1.csv,26,1,2,1,2,1,2,11,16,31,61,76,81,96,126,141,146,161,191,3_audFile.wav,10,5,26,1,2,1,2,1,2,11,16,31,61,76,81,96,126,141,146,161,191,3_audFile.wav,10,5,0,1,,,,0,0,0,0,0,29,29,9,,,,,,,,,,,,,,,,,330.2948652939958,330.47492180700647,331.4752177379996,331.4952958710055,331.59532389870583,331.6053479980037,331.65542468799686,331.80561177300115,332.1054938120069,332.25550623399613,332.30537866899977,332.455438717996,332.755610608001,332.905588367008,332.95566447800957,333.35573309799656,333.1057985390071,333.40579571299895,333.40579571299895,334.70623038300255,334.70623038300255,334.80623849971016,334.8161845499999,334.86627299300744,335.0162912920059,335.3163776779984,335.46634604899737,335.51654388100724,335.6665373260039,335.9665797100024,336.11657711700536,336.16668549200404,336.31674112699693,336.61677821099875,337.06681121099973,337.06681121099973,337.06681121099973,1,1.421689423994394,338.50742108700797,340.00770911600557,,,,,,,,,,,,,,,,,,,,,,,,,,,,,,,,,,,,,,,,,,,,,,,4,001,2023-02-02_10h21.18.638,Cognition2_FullCode1,2022.2.5,99.96623840939809,
/Users/shamslab/Desktop/Cognition2_FullExperimentFile/4_VisualBlock1.csv,24,1,2,2,1,1,2,11,16,31,61,76,106,121,126,141,146,161,191,3_audFile.wav,10,5,22,1,2,1,2,2,1,11,16,31,61,76,81,96,126,141,171,186,191,3_audFile.wav,10,5,0,2,,,,0,0,0,0,0,30,30,0,,,,,,,,,,,,,,,,,340.00770911600557,340.1976993779972,341.19803932801005,341.20818025899644,341.30803941970953,341.318012128002,341.3680731200002,341.518146796996,341.8182184360048,341.96817301400006,342.2684013850085,342.41832940399763,342.4684846809978,342.61839202400006,342.6683971090097,343.06851980800275,342.8185534399963,343.11865635700815,343.11865635700815,344.4189215229999,344.4189215229999,344.5189121766962,344.528922589001,344.57889380599954,344.7290263760078,345.02909494900086,345.1791225140041,345.2291504940076,345.37923180700454,345.6792717000062,345.8293885040039,346.12943929299945,346.27956989599625,346.32941974900314,346.77976143000706,346.77976143000706,346.77976143000706,2,0.5002174699911848,347.2997879769973,,341.20818025899644,,,,,,,,,,,,,,,,,,,,,,,,,,,,,,,,,,,,,,,,,,,,,,4,001,2023-02-02_10h21.18.638,Cognition2_FullCode1,2022.2.5,99.96623840939809,
/Users/shamslab/Desktop/Cognition2_FullExperimentFile/4_VisualBlock1.csv,23,2,1,2,1,1,2,11,41,56,61,76,106,121,126,141,146,161,191,3_audFile.wav,10,6,17,2,1,2,2,1,1,11,41,56,61,76,106,121,151,166,171,186,191,3_audFile.wav,10,6,0,2,,,,0,0,0,0,0,31,31,12,,,,,,,,,,,,,,,,,348.80016548700223,348.9902285660064,349.9905142970092,350.00059585900453,350.1004553356979,350.1105290160049,350.41064369800733,350.5608395580057,350.610648204005,350.76078142700135,351.0608105260035,351.2108903269982,351.2608164539997,351.4109590059961,351.4608463050099,351.8611453409976,351.6109790269984,351.911057328005,351.911057328005,353.2117172279977,353.2117172279977,353.31139059470297,353.3215131570032,353.62148727400927,353.7719416379987,353.8215714740072,353.9716087170091,354.2716549129982,354.4218606229988,354.72177466099674,354.8719431520003,354.92187414399814,355.0719642720069,355.1219631670101,355.57217724999646,355.57217724999646,355.57217724999646,2,0.8204631510016043,356.41228207500535,,,,,,,,,,,,,,,,,,,,,,,,,,,,,,,,,,,,,,,,,,,,,,,,4,001,2023-02-02_10h21.18.638,Cognition2_FullCode1,2022.2.5,99.96623840939809,
/Users/shamslab/Desktop/Cognition2_FullExperimentFile/4_VisualBlock1.csv,,,,,,,,,,,,,,,,,,,,,,,,,,,,,,,,,,,,,,,,,,,,,,,,,,0,0,0,0,,,,,,,,,,,,,,,,,,,,,,,,,,,,,,,,,,,,,,,,,,,,,,,,,,,,,,,,,,,,,,,357.92269396199845,357.92269396199845,,,,,,,,,,,,,,,,,,,,,,,,,,,,,,,,,,,,,,,,,,,,4,001,2023-02-02_10h21.18.638,Cognition2_FullCode1,2022.2.5,99.96623840939809,
/Users/shamslab/Desktop/Cognition2_FullExperimentFile/4_AudioBlock1.csv,0,2,2,1,2,1,2,11,41,53,83,95,100,112,142,154,159,171,201,1_audFile.wav,10,3,0,2,2,1,2,1,2,11,41,53,83,95,100,112,142,154,159,171,201,1_audFile.wav,10,3,1,1,,,,0,1,1,1,0,0,0,31,,,,,,,,,,,,,417.99972122500185,418.10007878900797,space,7.643977378989803,425.79211884400866,425.9621066880063,426.9624660929985,426.99241398200684,427.0924674416965,427.1025024700066,427.40258358400024,427.5226760939986,427.8227313399984,427.9427146950038,427.9926979800075,428.11279637100233,428.41288173000794,428.53289434700855,428.582900902009,428.8530064160004,428.7029282099975,429.0030699330091,429.0030699330091,430.30365329900815,430.30365329900815,430.40349063670874,430.4134711930092,430.7134936729999,430.83353411999997,431.133678365004,431.2537446820061,431.30372051900486,431.423707326001,431.7238235499972,431.84385367100185,431.89381834199594,432.01385014900006,432.31394778500544,432.6641582510056,432.6641582510056,432.6641582510056,1,1.3513746729877312,434.0344701950089,435.53488494500925,,,,,,,,,,,,,,,,,,,,,,,,,,,,,,,,,,,,,,,,,,,,,,,4,001,2023-02-02_10h21.18.638,Cognition2_FullCode1,2022.2.5,99.96623840939809,
/Users/shamslab/Desktop/Cognition2_FullExperimentFile/4_AudioBlock1.csv,3,2,1,2,1,2,2,11,41,53,58,70,100,112,117,129,159,171,201,4_audFile.wav,10,2,7,2,1,2,2,1,1,11,41,53,58,70,100,112,142,154,159,171,176,8_audFile.wav,10,2,1,2,,,,0,1,1,1,0,1,1,4,,,,,,,,,,,,,,,,,435.53488494500925,435.7349604810006,436.74516566100647,436.74516566100647,436.84538254469953,436.8553425010032,437.15538563100563,437.27548323900555,437.32548389300064,437.4455401710002,437.7455974409968,437.8655838499981,437.9156850470026,438.03583444000105,438.33575191001,438.6059073140059,438.4557677020057,438.75579056699644,438.75579056699644,440.0661090210051,440.0661090210051,440.16622136970545,440.1762445339991,440.47632999700727,440.5963861189957,440.6463682070025,440.7664217970014,441.06647946999874,441.1865228800016,441.4865244990069,441.606585720001,441.65667202099576,441.77666092700383,441.8267670790083,442.4268649410078,442.4268649410078,442.4268649410078,2,0.11656769199180417,442.56697123200865,,436.74516566100647,,,,,,,,,,,,,,,,,,,,,,,,,,,,,,,,,,,,,,,,,,,,,,4,001,2023-02-02_10h21.18.638,Cognition2_FullCode1,2022.2.5,99.96623840939809,
/Users/shamslab/Desktop/Cognition2_FullExperimentFile/4_AudioBlock1.csv,14,2,1,1,2,1,2,11,41,53,58,70,75,87,117,129,134,146,176,15_audFile.wav,10,2,13,2,1,2,1,1,2,11,41,53,58,70,100,112,117,129,134,146,176,14_audFile.wav,10,2,1,2,,,,0,1,1,1,0,2,2,23,,,,,,,,,,,,,,,,,444.06738939000934,444.2474819790077,445.24778756200976,445.2777282150055,445.37774516169884,445.387776648,445.6878467350034,445.8078649090021,445.85791974099993,445.97791916700953,446.027821872005,446.14790730099776,446.4480878220056,446.5680910660012,446.61802485199587,447.1381947690097,446.7381220320094,447.038283012007,447.1381947690097,448.4485630709969,448.4485630709969,448.5487574387007,448.55860628100345,448.8586828109983,448.9787685610063,449.02873683899816,449.1487994880008,449.4489015700092,449.56896431600035,449.61899168499804,449.7389791440073,449.7888903849962,449.9090080140013,450.20911940099904,450.80929498600017,450.80929498600017,450.80929498600017,1,0.2059882280009333,451.03926744600176,,,,,,,,,,,,,,,,,,,,,,,,,,,,,,,,,,,,,,,,,,,,,,,,4,001,2023-02-02_10h21.18.638,Cognition2_FullCode1,2022.2.5,99.96623840939809,
/Users/shamslab/Desktop/Cognition2_FullExperimentFile/4_AudioBlock1.csv,5,1,2,1,2,2,2,11,16,28,58,70,75,87,117,129,159,171,201,6_audFile.wav,10,1,12,1,2,1,2,2,1,11,16,28,58,70,75,87,117,129,159,171,176,13_audFile.wav,10,1,1,2,,,,0,1,1,1,0,3,3,21,,,,,,,,,,,,,,,,,452.53984860800847,452.7198626830068,453.72015266600647,453.7500797800021,453.85014197670534,453.8601577560039,453.9101585330063,454.0302286600054,454.33033905499906,454.4503131370002,454.50028112700966,454.6204612060101,454.920496154009,455.04051189399615,455.3405251360091,455.6106547350064,455.4606833739963,455.7607039690047,455.7607039690047,457.0710139750008,457.0710139750008,457.17104032470525,457.18109938800626,457.2311665020097,457.3512172250048,457.6512280290044,457.77130203500565,457.8213243360078,457.94139011300285,458.2414767940063,458.36153851299605,458.66147058299975,458.7815238769981,458.83156104599766,459.431781021005,459.431781021005,459.431781021005,2,0.4244021399936173,459.8818337380071,,,,,,,,,,,,,,,,,,,,,,,,,,,,,,,,,,,,,,,,,,,,,,,,4,001,2023-02-02_10h21.18.638,Cognition2_FullCode1,2022.2.5,99.96623840939809,
/Users/shamslab/Desktop/Cognition2_FullExperimentFile/4_AudioBlock1.csv,12,1,2,1,2,2,1,11,16,28,58,70,75,87,117,129,159,171,176,13_audFile.wav,10,1,12,1,2,1,2,2,1,11,16,28,58,70,75,87,117,129,159,171,176,13_audFile.wav,10,1,1,1,,,,0,1,1,1,0,4,4,27,,,,,,,,,,,,,,,,,461.3823242149956,461.56245230100467,462.56270442401,462.5826886330033,462.6827518877035,462.692665665003,462.7426688950072,462.862722580001,463.16275063600915,463.28288309500203,463.33292813300795,463.4528683940007,463.75286469100683,463.8729577720078,464.17309601600573,464.44309014499595,464.2931375449989,464.34311606700066,464.44309014499595,465.7437866859982,465.7437866859982,465.8435453857019,465.85363321400655,465.9036129400047,466.02368341499823,466.3237273130071,466.44370761200844,466.4937631530047,466.61379945000226,466.9138517399988,467.0339151549997,467.33411896100733,467.4540808800084,467.50414243100386,468.1043058649957,468.1043058649957,468.1043058649957,1,0.4552779210061999,468.584351840007,,,,,,,,,,,,,,,,,,,,,,,,,,,,,,,,,,,,,,,,,,,,,,,,4,001,2023-02-02_10h21.18.638,Cognition2_FullCode1,2022.2.5,99.96623840939809,
/Users/shamslab/Desktop/Cognition2_FullExperimentFile/4_AudioBlock1.csv,3,2,1,2,1,2,2,11,41,53,58,70,100,112,117,129,159,171,201,4_audFile.wav,10,2,3,2,1,2,1,2,2,11,41,53,58,70,100,112,117,129,159,171,201,4_audFile.wav,10,2,1,1,,,,0,1,1,1,0,5,5,28,,,,,,,,,,,,,,,,,470.08483113499824,470.2650012450031,471.2650766690058,471.285164868008,471.38521451270935,471.39512304800155,471.69522861800215,471.8152715449978,471.8652619850036,471.98530328999914,472.285409803997,472.4055148290063,472.4553931480041,472.57547454800806,472.8755641780008,473.14556402000017,472.9956781290093,473.2957577769994,473.2957577769994,474.59641658701,474.59641658701,474.6961124127047,474.7061083669978,475.00618519001,475.1262045600015,475.1762742179999,475.2963265700091,475.59634032900794,475.71643652299826,475.7665100680024,475.88646469899686,476.1865256269957,476.3065646180039,476.60666011199646,476.95675607900193,476.95675607900193,476.95675607900193,1,0.1710726299934322,477.1567719559971,478.6573603860015,,,,,,,,,,,,,,,,,,,,,,,,,,,,,,,,,,,,,,,,,,,,,,,4,001,2023-02-02_10h21.18.638,Cognition2_FullCode1,2022.2.5,99.96623840939809,
/Users/shamslab/Desktop/Cognition2_FullExperimentFile/4_AudioBlock1.csv,9,2,1,2,1,2,1,11,41,53,58,70,100,112,117,129,159,171,176,10_audFile.wav,10,2,9,2,1,2,1,2,1,11,41,53,58,70,100,112,117,129,159,171,176,10_audFile.wav,10,2,1,1,,,,0,1,1,1,0,6,6,26,,,,,,,,,,,,,,,,,478.6573603860015,478.847229402003,479.847538728005,479.86753677000524,479.96767570870725,479.9776612029964,480.27772090899816,480.3978265100013,480.44786578800995,480.56785373800085,480.867840107996,480.9879061910033,481.0380537650053,481.1579813360004,481.4580463510065,481.7281571170024,481.578193940004,481.62803076001,481.7281571170024,483.0286601650005,483.0286601650005,483.1284970416964,483.138552015007,483.438603128001,483.5586483100051,483.6087679970078,483.7287028179999,484.0287868890009,484.1487607010058,484.1988588899985,484.3188855059998,484.61888347999775,484.7389670100092,484.78894441800367,485.38919824099867,485.38919824099867,485.38919824099867,1,0.9784555439982796,486.38950617700175,,479.86753677000524,,,,,,,,,,,,,,,,,,,,,,,,,,,,,,,,,,,,,,,,,,,,,,4,001,2023-02-02_10h21.18.638,Cognition2_FullCode1,2022.2.5,99.96623840939809,
/Users/shamslab/Desktop/Cognition2_FullExperimentFile/4_AudioBlock1.csv,9,2,1,2,1,2,1,11,41,53,58,70,100,112,117,129,159,171,176,10_audFile.wav,10,2,13,2,1,2,1,1,2,11,41,53,58,70,100,112,117,129,134,146,176,14_audFile.wav,10,2,1,2,,,,0,1,1,1,0,7,7,9,,,,,,,,,,,,,,,,,487.88982890000625,488.07997460800107,489.08021587300755,489.09023028600495,489.1902183067068,489.20019987999694,489.50028140800714,489.6203631660028,489.67039156900137,489.7903433890024,490.09061241500604,490.2105476840079,490.2605379480083,490.38049145499826,490.68060092600354,490.9507795870013,490.8006905939983,490.8506479589996,490.9507795870013,492.2513337690034,492.2513337690034,492.3511926657011,492.36110904400994,492.661251847996,492.7811850380094,492.83130122799776,492.95135623299575,493.2512997879967,493.3714465360099,493.4214544360002,493.5414427659998,493.59151401500276,493.7116716080054,494.0117536470061,494.61188524300815,494.61188524300815,494.61188524300815,2,0.44418217199563514,495.08196759500424,,,,,,,,,,,,,,,,,,,,,,,,,,,,,,,,,,,,,,,,,,,,,,,,4,001,2023-02-02_10h21.18.638,Cognition2_FullCode1,2022.2.5,99.96623840939809,
/Users/shamslab/Desktop/Cognition2_FullExperimentFile/4_AudioBlock1.csv,15,1,2,1,2,1,2,11,16,28,58,70,75,87,117,129,134,146,176,16_audFile.wav,10,1,15,1,2,1,2,1,2,11,16,28,58,70,75,87,117,129,134,146,176,16_audFile.wav,10,1,1,1,,,,0,1,1,1,0,8,8,18,,,,,,,,,,,,,,,,,496.5824388570036,496.76245352299884,497.762674313999,497.7926849640062,497.8927629227037,497.90271114499774,497.9528983820055,498.07275796499744,498.37286728300387,498.49289050699736,498.54297451699676,498.66307055299694,498.963119085005,499.08308718699845,499.13310165400617,499.6531942550064,499.2531207370048,499.55315274599707,499.6531942550064,500.9539366399986,500.9539366399986,501.0535388867065,501.0636284630018,501.1135918110085,501.233702810001,501.53391497200937,501.65384627200547,501.70374934299616,501.82386802900874,502.1240134410036,502.2440421390056,502.2939699330018,502.4140216829983,502.7141856840026,503.3142568629992,503.3142568629992,503.3142568629992,1,0.821556356997462,504.15463286000886,505.65497806400526,,,,,,,,,,,,,,,,,,,,,,,,,,,,,,,,,,,,,,,,,,,,,,,4,001,2023-02-02_10h21.18.638,Cognition2_FullCode1,2022.2.5,99.96623840939809,
/Users/shamslab/Desktop/Cognition2_FullExperimentFile/4_AudioBlock1.csv,5,1,2,1,2,2,2,11,16,28,58,70,75,87,117,129,159,171,201,6_audFile.wav,10,1,5,1,2,1,2,2,2,11,16,28,58,70,75,87,117,129,159,171,201,6_audFile.wav,10,1,1,1,,,,0,1,1,1,0,9,9,7,,,,,,,,,,,,,,,,,505.65497806400526,505.84508357101004,506.8453192730085,506.8556475180085,506.95529274970613,506.96531090499775,507.0154273710068,507.135380851003,507.43542514400906,507.55545238799823,507.6055774090055,507.72564620000776,508.0256822480005,508.1456310220092,508.4457123480097,508.71576210300555,508.5657788130047,508.8658571499982,508.8658571499982,510.16635138700076,510.16635138700076,510.2662377387096,510.2763200089976,510.3263312830095,510.4463365630072,510.7464624889981,510.8665133080067,510.91641376700136,511.0365483540081,511.3365865939995,511.4567411169992,511.7567632209975,511.8767553009966,512.1767217290035,512.5369531089964,512.5369531089964,512.5369531089964,1,0.2307606889953604,512.7870103660098,514.2874616260087,506.8556475180085,,,,,,,,,,,,,,,,,,,,,,,,,,,,,,,,,,,,,,,,,,,,,,4,001,2023-02-02_10h21.18.638,Cognition2_FullCode1,2022.2.5,99.96623840939809,
/Users/shamslab/Desktop/Cognition2_FullExperimentFile/4_AudioBlock1.csv,6,2,2,1,2,1,1,11,41,53,83,95,100,112,142,154,159,171,176,7_audFile.wav,10,3,8,2,2,1,1,2,1,11,41,53,83,95,100,112,117,129,159,171,176,9_audFile.wav,10,3,1,2,,,,0,1,1,1,0,10,10,2,,,,,,,,,,,,,,,,,514.2874616260087,514.4775592670048,515.4776883529994,515.4978209429974,515.597897061707,515.6077912129986,515.9079165660078,516.0279394170066,516.3280782790098,516.448165409005,516.497988247007,516.6181426810072,516.9182416249969,517.0382376519992,517.088318442009,517.35834638901,517.2081629370077,517.2582950649958,517.35834638901,518.6685567179957,518.6685567179957,518.7686246826997,518.7787328590057,519.0787701770023,519.1988676500041,519.4989371970005,519.6190731000097,519.6689583359985,519.7890987639985,519.8390801990026,519.9589893759985,520.2591121010046,520.3792455399962,520.4292751650064,521.0293604059989,521.0293604059989,521.0293604059989,2,0.36312402499606833,521.4193925550062,,515.4978209429974,,,,,,,,,,,,,,,,,,,,,,,,,,,,,,,,,,,,,,,,,,,,,,4,001,2023-02-02_10h21.18.638,Cognition2_FullCode1,2022.2.5,99.96623840939809,
/Users/shamslab/Desktop/Cognition2_FullExperimentFile/4_AudioBlock1.csv,2,1,2,2,2,1,2,11,16,28,58,70,100,112,142,154,159,171,201,3_audFile.wav,10,1,15,1,2,1,2,1,2,11,16,28,58,70,75,87,117,129,134,146,176,16_audFile.wav,10,1,1,2,,,,0,1,1,1,0,11,11,1,,,,,,,,,,,,,,,,,522.919908789001,523.099904600007,524.1002043769986,524.1203085980087,524.2203406397093,524.2304025790072,524.2802455540077,524.4004400380072,524.7004382029991,524.8204309130087,525.1204590179987,525.2406756400014,525.5406960660039,525.6606920600025,525.7107237940072,525.9806757440092,525.8306620869989,526.130829946007,526.130829946007,527.4313560949959,527.4313560949959,527.531149163704,527.541199543004,527.5912679570029,527.7113213880075,528.011331369009,528.1313553130021,528.1813617130101,528.3014162280015,528.6014539690077,528.7214842270041,528.7716230119986,528.8916502320062,529.1916146590083,529.7919055560051,529.7919055560051,529.7919055560051,1,0.2798260029958328,530.0918608320062,,,,,,,,,,,,,,,,,,,,,,,,,,,,,,,,,,,,,,,,,,,,,,,,4,001,2023-02-02_10h21.18.638,Cognition2_FullCode1,2022.2.5,99.96623840939809,
/Users/shamslab/Desktop/Cognition2_FullExperimentFile/4_AudioBlock1.csv,4,1,2,2,1,2,2,11,16,28,58,70,100,112,117,129,159,171,201,5_audFile.wav,10,1,4,1,2,2,1,2,2,11,16,28,58,70,100,112,117,129,159,171,201,5_audFile.wav,10,1,1,1,,,,0,1,1,1,0,12,12,11,,,,,,,,,,,,,,,,,531.5924086360028,531.7823941149982,532.7827652730048,532.8027308250021,532.9028060687051,532.912694093,532.9627262029971,533.0827849810012,533.3827543310035,533.5029113860073,533.8030508040101,533.9230349510035,533.9730702800007,534.0930866459967,534.3931917129958,534.6632189259981,534.5131683570071,534.8132340059965,534.8132340059965,536.1138651549991,536.1138651549991,536.2136926347084,536.2236468519986,536.2737387130037,536.3937909939996,536.6938005760021,536.813814292007,537.1139884800068,537.2340257169999,537.2839852110046,537.4039823420026,537.7041044910002,537.8241327590076,538.1242297950084,538.4745046720054,538.4745046720054,538.4745046720054,1,0.22113365898258053,538.7144814140047,540.2148446549982,,,,,,,,,,,,,,,,,,,,,,,,,,,,,,,,,,,,,,,,,,,,,,,4,001,2023-02-02_10h21.18.638,Cognition2_FullCode1,2022.2.5,99.96623840939809,
/Users/shamslab/Desktop/Cognition2_FullExperimentFile/4_AudioBlock1.csv,0,2,2,1,2,1,2,11,41,53,83,95,100,112,142,154,159,171,201,1_audFile.wav,10,3,6,2,2,1,2,1,1,11,41,53,83,95,100,112,142,154,159,171,176,7_audFile.wav,10,3,1,2,,,,0,1,1,1,0,13,13,30,,,,,,,,,,,,,,,,,540.2148446549982,540.4149945300014,541.4252241810027,541.4252241810027,541.5251122197005,541.5352660299977,541.8352927740052,541.9554207010078,542.2553753300017,542.37539461501,542.4255077889975,542.5455541819974,542.8456489730015,542.965636050998,543.0156446799956,543.2857547390013,543.1356785289972,543.4357298340037,543.4357298340037,,544.7364006999996,544.8361941107069,544.846137718996,545.1462509370031,545.2662665910029,545.5663062710082,545.6863619600044,545.7363522320084,545.8563896920095,546.156488809007,546.2765856530023,546.3265290630079,546.4466483700089,546.4966454640089,547.0968083330081,547.0968083330081,547.0968083330081,2,0.2068324650026625,547.3268545809988,,541.4252241810027,,,,,,,,,,,,,,,,,,,,,,,,,,,,,,,,,,,,,,,,,,,,,,4,001,2023-02-02_10h21.18.638,Cognition2_FullCode1,2022.2.5,99.96623840939809,
/Users/shamslab/Desktop/Cognition2_FullExperimentFile/4_AudioBlock1.csv,8,2,2,1,1,2,1,11,41,53,83,95,100,112,117,129,159,171,176,9_audFile.wav,10,3,8,2,2,1,1,2,1,11,41,53,83,95,100,112,117,129,159,171,176,9_audFile.wav,10,3,1,1,,,,0,1,1,1,0,14,14,5,,,,,,,,,,,,,,,,,548.82730201901,549.0173120120016,550.0176024380053,550.0276945469959,550.1277496407056,550.1377085490094,550.4376600260002,550.5578295470041,550.8579596990021,550.9779374070058,551.0278335330077,551.1479046530003,551.1980821030011,551.3179677590088,551.6180686320004,551.8881235169974,551.738177125997,551.7880870570079,551.8881235169974,553.1888061659993,553.1888061659993,553.2886796867024,553.2984826419997,553.5985951879993,553.7186244879995,554.0186708050023,554.1387560419971,554.1887277210044,554.308773155004,554.3589538390079,554.4789354870009,554.7789537970093,554.8989702270046,554.9490033260081,555.5591864440066,555.5591864440066,555.5591864440066,2,1.5448719799896935,557.1296096860024,,,,,,,,,,,,,,,,,,,,,,,,,,,,,,,,,,,,,,,,,,,,,,,,4,001,2023-02-02_10h21.18.638,Cognition2_FullCode1,2022.2.5,99.96623840939809,
/Users/shamslab/Desktop/Cognition2_FullExperimentFile/4_AudioBlock1.csv,7,2,1,2,2,1,1,11,41,53,58,70,100,112,142,154,159,171,176,8_audFile.wav,10,2,3,2,1,2,1,2,2,11,41,53,58,70,100,112,117,129,159,171,201,4_audFile.wav,10,2,1,2,,,,0,1,1,1,0,15,15,19,,,,,,,,,,,,,,,,,558.6301677570009,558.8100545000052,559.8103410559997,559.8304935400083,559.9304392217091,559.940517377996,560.2404801640077,560.3605631780083,560.410550198998,560.5306641330099,560.8307195380039,560.950675688,561.2507312560047,561.3709725899971,561.4208598039986,561.6909412370005,561.5408524840022,561.5909240600013,561.6909412370005,562.9916632439999,562.9916632439999,563.0913282077017,563.1013722170028,563.4014810930094,563.5213953820057,563.5719096950052,563.6914963160089,563.991662786997,564.1115676140034,564.1616583730065,564.2817756590084,564.5817685820075,564.7018280049961,565.0018968680088,565.3519865319977,565.3519865319977,565.3519865319977,2,0.27232921299582813,565.6520542070066,,,,,,,,,,,,,,,,,,,,,,,,,,,,,,,,,,,,,,,,,,,,,,,,4,001,2023-02-02_10h21.18.638,Cognition2_FullCode1,2022.2.5,99.96623840939809,
/Users/shamslab/Desktop/Cognition2_FullExperimentFile/4_AudioBlock1.csv,15,1,2,1,2,1,2,11,16,28,58,70,75,87,117,129,134,146,176,16_audFile.wav,10,1,4,1,2,2,1,2,2,11,16,28,58,70,100,112,117,129,159,171,201,5_audFile.wav,10,1,1,2,,,,0,1,1,1,0,16,16,12,,,,,,,,,,,,,,,,,567.1525209719985,567.3326436019997,568.3328014029976,568.3528936759976,568.4528852646981,568.4629186520033,568.5128968339995,568.6328905340051,568.9330236240057,569.0529738409969,569.1031758860045,569.2230731820018,569.5231620650011,569.6431337810063,569.6931909429986,570.2133791230008,569.8132155700005,570.1133692639996,570.2133791230008,571.5140133899986,571.5140133899986,571.613707074699,571.6237769020081,571.6738035519957,571.7938501410099,572.0938869609963,572.2138751760067,572.5140241339977,572.6340076049964,572.684006630996,572.8042392909992,573.1042026729992,573.2242905250023,573.5242489289958,573.8744695990026,573.8744695990026,573.8744695990026,1,0.8852683459990658,574.7847115300101,,,,,,,,,,,,,,,,,,,,,,,,,,,,,,,,,,,,,,,,,,,,,,,,4,001,2023-02-02_10h21.18.638,Cognition2_FullCode1,2022.2.5,99.96623840939809,
/Users/shamslab/Desktop/Cognition2_FullExperimentFile/4_AudioBlock1.csv,14,2,1,1,2,1,2,11,41,53,58,70,75,87,117,129,134,146,176,15_audFile.wav,10,2,14,2,1,1,2,1,2,11,41,53,58,70,75,87,117,129,134,146,176,15_audFile.wav,10,2,1,1,,,,0,1,1,1,0,17,17,8,,,,,,,,,,,,,,,,,576.2851262159966,576.4651495120052,577.4655028840061,577.4854693789966,577.5855898157097,577.595468643005,577.8955995430006,578.0155698180024,578.0656158229976,578.1856686550018,578.2356816450047,578.3556989689969,578.6557276630047,578.7759182940063,578.8258753450064,579.345892894009,578.9458734649961,579.2458491940051,579.345892894009,580.646588951,580.646588951,580.7463486217093,580.7564056720003,581.0564417569985,581.1765569370036,581.2264967780065,581.3465458270075,581.396499940005,581.5166735439998,581.8166591110057,581.936701647006,581.9867757040047,582.1068515480001,582.4069059600006,583.0070542409958,583.0070542409958,583.0070542409958,2,0.24123287599650212,583.2674148200022,584.7675406560011,,,,,,,,,,,,,,,,,,,,,,,,,,,,,,,,,,,,,,,,,,,,,,,4,001,2023-02-02_10h21.18.638,Cognition2_FullCode1,2022.2.5,99.96623840939809,
/Users/shamslab/Desktop/Cognition2_FullExperimentFile/4_AudioBlock1.csv,2,1,2,2,2,1,2,11,16,28,58,70,100,112,142,154,159,171,201,3_audFile.wav,10,1,2,1,2,2,2,1,2,11,16,28,58,70,100,112,142,154,159,171,201,3_audFile.wav,10,1,1,1,,,,0,1,1,1,0,18,18,22,,,,,,,,,,,,,,,,,584.7675406560011,584.9676177630026,585.9779641470086,585.9779641470086,586.0779573726977,586.0879034710088,586.1380226559995,586.2579775260092,586.5579873929964,586.6780093730049,586.9782800060057,587.0983114370028,587.3984329899977,587.5184312089987,587.568401217999,587.8383032050042,587.6884621019999,587.9884650989989,587.9884650989989,589.2891148350027,589.2891148350027,589.3888386336985,589.398932185999,589.4487890010059,589.5688935380022,589.8690243110032,589.9890850380034,590.2890519009961,590.4091677090037,590.7092878580006,590.8293368599989,590.87924521901,590.9992592150084,591.2995116079983,591.6495395590027,591.6495395590027,591.6495395590027,2,1.9182683049875777,593.5900466550083,,585.9779641470086,,,,,,,,,,,,,,,,,,,,,,,,,,,,,,,,,,,,,,,,,,,,,,4,001,2023-02-02_10h21.18.638,Cognition2_FullCode1,2022.2.5,99.96623840939809,
/Users/shamslab/Desktop/Cognition2_FullExperimentFile/4_AudioBlock1.csv,13,2,1,2,1,1,2,11,41,53,58,70,100,112,117,129,134,146,176,14_audFile.wav,10,2,13,2,1,2,1,1,2,11,41,53,58,70,100,112,117,129,134,146,176,14_audFile.wav,10,2,1,1,,,,0,1,1,1,0,19,19,17,,,,,,,,,,,,,,,,,595.0905469800055,595.280610945003,596.2809343170084,596.291002967002,596.3909635806995,596.4008131090086,596.7011521940003,596.8209654200036,596.8710226160038,596.990984930002,597.2911097800097,597.411080453996,597.461271239008,597.5811606500065,597.6313336349995,598.1513266240072,597.7516645080032,598.0513110739994,598.1513266240072,599.4518788830028,599.4518788830028,599.5518163807064,599.5617574670032,599.8617537020036,599.9818016829959,600.0318887839967,600.1519709120039,600.4519452870009,600.572006233997,600.622115849008,600.742174088009,600.7921782920021,600.9122059040092,601.2122151560034,601.8123479330097,601.8123479330097,601.8123479330097,2,0.27518618300382514,602.1124647910037,,,,,,,,,,,,,,,,,,,,,,,,,,,,,,,,,,,,,,,,,,,,,,,,4,001,2023-02-02_10h21.18.638,Cognition2_FullCode1,2022.2.5,99.96623840939809,
/Users/shamslab/Desktop/Cognition2_FullExperimentFile/4_AudioBlock1.csv,8,2,2,1,1,2,1,11,41,53,83,95,100,112,117,129,159,171,176,9_audFile.wav,10,3,6,2,2,1,2,1,1,11,41,53,83,95,100,112,142,154,159,171,176,7_audFile.wav,10,3,1,2,,,,0,1,1,1,0,20,20,20,,,,,,,,,,,,,,,,,603.6129862310045,603.7929240770027,604.7932161019999,604.8134280079976,604.9133686147034,604.9233369240101,605.2233921529987,605.3433649060025,605.6435394370055,605.7635608350101,605.8135507469997,605.9335824059963,605.9836094740022,606.1037128460011,606.4036687940097,606.6738240340055,606.5236875230039,606.5738680240029,606.6738240340055,607.9743295740045,607.9743295740045,608.074244543699,608.084135283003,608.3845403650048,608.5043029820081,608.8042998840101,608.9243839709961,608.9745642610069,609.0944553820009,609.3944706629991,609.5146222159965,609.5646960820013,609.6846300860052,609.7346590939997,610.3348126490018,610.3348126490018,610.3348126490018,2,1.4411703730002046,611.8053445630067,613.3056368929974,,,,,,,,,,,,,,,,,,,,,,,,,,,,,,,,,,,,,,,,,,,,,,,4,001,2023-02-02_10h21.18.638,Cognition2_FullCode1,2022.2.5,99.96623840939809,
/Users/shamslab/Desktop/Cognition2_FullExperimentFile/4_AudioBlock1.csv,13,2,1,2,1,1,2,11,41,53,58,70,100,112,117,129,134,146,176,14_audFile.wav,10,2,9,2,1,2,1,2,1,11,41,53,58,70,100,112,117,129,159,171,176,10_audFile.wav,10,2,1,2,,,,0,1,1,1,0,21,21,3,,,,,,,,,,,,,,,,,613.3056368929974,613.4956028580054,614.4959864630073,614.5063448489964,614.6060951606996,614.6161194800079,614.9160672889993,615.036111577996,615.0862076150079,615.2061854010099,615.5062824490014,615.6262673430028,615.6764511189976,615.7963731930067,615.84657130501,616.3665836870059,615.9665016189974,616.2666094180022,616.3665836870059,617.6670451880054,617.6670451880054,617.7669172357055,617.7769454789959,618.0770689799974,618.1970326340088,618.247158447004,618.3671601600072,618.6672274680022,618.7872357570013,618.8373212709994,618.9573089670012,619.257349061998,619.3773892390018,619.4274255040073,620.0275474689988,620.0275474689988,620.0275474689988,2,0.13221146499563474,620.1876670159982,,614.5063448489964,,,,,,,,,,,,,,,,,,,,,,,,,,,,,,,,,,,,,,,,,,,,,,4,001,2023-02-02_10h21.18.638,Cognition2_FullCode1,2022.2.5,99.96623840939809,
/Users/shamslab/Desktop/Cognition2_FullExperimentFile/4_AudioBlock1.csv,6,2,2,1,2,1,1,11,41,53,83,95,100,112,142,154,159,171,176,7_audFile.wav,10,3,6,2,2,1,2,1,1,11,41,53,83,95,100,112,142,154,159,171,176,7_audFile.wav,10,3,1,1,,,,0,1,1,1,0,22,22,14,,,,,,,,,,,,,,,,,621.688100763,621.8681505520071,622.8684464960097,622.8884840310056,622.9883097526981,622.9984653300053,623.2985342870088,623.4186063219968,623.7186733819981,623.8386018489982,623.8887737400073,624.0087270700024,624.3087975109956,624.4287683300063,624.4789914510038,624.7490062470024,624.5989199720061,624.648854811996,624.7490062470024,626.0494296170073,626.0494296170073,626.1492811076969,626.1593437850097,626.459356560008,626.579531794996,626.8795890879992,626.9995308590005,627.0496739770024,627.1696550290071,627.4697328010079,627.5897968299978,627.6397805250017,627.7599402699998,627.8097971200041,628.4099847650068,628.4099847650068,628.4099847650068,2,0.27864649398543406,628.7101115260011,,,,,,,,,,,,,,,,,,,,,,,,,,,,,,,,,,,,,,,,,,,,,,,,4,001,2023-02-02_10h21.18.638,Cognition2_FullCode1,2022.2.5,99.96623840939809,
/Users/shamslab/Desktop/Cognition2_FullExperimentFile/4_AudioBlock1.csv,4,1,2,2,1,2,2,11,16,28,58,70,100,112,117,129,159,171,201,5_audFile.wav,10,1,5,1,2,1,2,2,2,11,16,28,58,70,75,87,117,129,159,171,201,6_audFile.wav,10,1,1,2,,,,0,1,1,1,0,23,23,29,,,,,,,,,,,,,,,,,630.2105307390011,630.4005223139975,631.4007982460025,631.4108981470054,631.5108263657094,631.520866685998,631.5709852480068,631.690908110002,631.9909770800004,632.1109734740021,632.4110256080021,632.5311720140016,632.581154768006,632.7011606040032,633.0013776470005,633.2713649540092,633.1213103629998,633.4216300469998,633.4216300469998,634.7221398969996,634.7221398969996,634.821805046704,634.831890595,634.8817741950043,635.0018607460079,635.3020059160044,635.422025937005,635.4719598340016,635.5920072290028,635.8922597420024,636.0121902179962,636.3122982420027,636.4323469939991,636.7323092020088,637.082421664003,637.082421664003,637.082421664003,1,0.23779927899886388,637.3423964020039,,,,,,,,,,,,,,,,,,,,,,,,,,,,,,,,,,,,,,,,,,,,,,,,4,001,2023-02-02_10h21.18.638,Cognition2_FullCode1,2022.2.5,99.96623840939809,
/Users/shamslab/Desktop/Cognition2_FullExperimentFile/4_AudioBlock1.csv,12,1,2,1,2,2,1,11,16,28,58,70,75,87,117,129,159,171,176,13_audFile.wav,10,1,2,1,2,2,2,1,2,11,16,28,58,70,100,112,142,154,159,171,201,3_audFile.wav,10,1,1,2,,,,0,1,1,1,0,24,24,6,,,,,,,,,,,,,,,,,638.8431048670027,639.0230989270058,640.0233221050003,640.0433142230031,640.143311609696,640.1532523269998,640.2033184550091,640.3233503380034,640.6234408559976,640.7435700360074,640.79358649801,640.9135424179985,641.213602955002,641.333709945,641.6338003429992,641.9037455340003,641.7538950919989,641.8036915539997,641.9037455340003,643.2142509030091,643.2142509030091,643.3142448467042,643.3243014030013,643.3743525669997,643.4942342709983,643.7943501170084,643.9144994710077,644.2144597150036,644.3345196020091,644.6346632729983,644.754619334999,644.8046695250086,644.9246931439993,645.2247628519981,645.5749304089986,645.5749304089986,645.5749304089986,2,1.9526158140070038,647.5554057800036,,,,,,,,,,,,,,,,,,,,,,,,,,,,,,,,,,,,,,,,,,,,,,,,4,001,2023-02-02_10h21.18.638,Cognition2_FullCode1,2022.2.5,99.96623840939809,
/Users/shamslab/Desktop/Cognition2_FullExperimentFile/4_AudioBlock1.csv,11,2,1,1,2,2,1,11,41,53,58,70,75,87,117,129,159,171,176,12_audFile.wav,10,2,1,2,1,2,2,1,2,11,41,53,58,70,100,112,142,154,159,171,201,2_audFile.wav,10,2,1,2,,,,0,1,1,1,0,25,25,0,,,,,,,,,,,,,,,,,649.0559712590039,649.245947058007,650.2461911080027,650.2661958230019,650.3662528817003,650.3762837499962,650.6764565939957,650.7963649940066,650.8464118910051,650.9665054020006,651.0164515810029,651.1364528240083,651.4366319910041,651.5566204930074,651.85668046301,652.1268667999975,651.9766979889973,652.0267636979988,652.1268667999975,653.437178371998,653.437178371998,653.5372308727019,653.5471800390078,653.8472110730072,653.9673114030011,654.0172387320054,654.137309179001,654.4373828399985,654.5574332670076,654.8575713070022,654.977615352007,655.0275744300016,655.1475407109974,655.447665669999,655.7977835619968,655.7977835619968,655.7977835619968,2,0.2507212349883048,656.0779592930048,657.5782936420001,,,,,,,,,,,,,,,,,,,,,,,,,,,,,,,,,,,,,,,,,,,,,,,4,001,2023-02-02_10h21.18.638,Cognition2_FullCode1,2022.2.5,99.96623840939809,
/Users/shamslab/Desktop/Cognition2_FullExperimentFile/4_AudioBlock1.csv,1,2,1,2,2,1,2,11,41,53,58,70,100,112,142,154,159,171,201,2_audFile.wav,10,2,3,2,1,2,1,2,2,11,41,53,58,70,100,112,117,129,159,171,201,4_audFile.wav,10,2,1,2,,,,0,1,1,1,0,26,26,15,,,,,,,,,,,,,,,,,657.5782936420001,657.7684284760035,658.7687790500058,658.7887218830001,658.8886384896978,658.8986293960043,659.1989218910021,659.3187955010071,659.3687563190033,659.4889332199964,659.7889315850043,659.9090136080049,660.2091004560061,660.3290230120037,660.3791252719966,660.6491185490013,660.4991620960063,660.7992653719994,660.7992653719994,662.0998988290085,662.0998988290085,662.1996646697007,662.2096494180005,662.5097517480026,662.629758051,662.6798077060084,662.7999075469997,663.099910926001,663.219901221004,663.2700265800086,663.3900084680063,663.690009819009,663.8100226749957,664.1101122889959,664.4602515840088,664.4602515840088,664.4602515840088,2,0.19558101099391934,664.6804163650086,,658.7887218830001,,,,,,,,,,,,,,,,,,,,,,,,,,,,,,,,,,,,,,,,,,,,,,4,001,2023-02-02_10h21.18.638,Cognition2_FullCode1,2022.2.5,99.96623840939809,
/Users/shamslab/Desktop/Cognition2_FullExperimentFile/4_AudioBlock1.csv,10,1,2,2,1,2,1,11,16,28,58,70,100,112,117,129,159,171,176,11_audFile.wav,10,1,10,1,2,2,1,2,1,11,16,28,58,70,100,112,117,129,159,171,176,11_audFile.wav,10,1,1,1,,,,0,1,1,1,0,27,27,13,,,,,,,,,,,,,,,,,666.1808264290012,666.3608130780049,667.361183993009,667.4011261679989,667.5011922677004,667.511249023999,667.5611673530075,667.6811441800091,667.9813419929997,668.1013488449971,668.4015531699988,668.5215009079984,668.5715314679983,668.6915887590003,668.9916312490095,669.2618053729966,669.1117041950056,669.1616959800012,669.2618053729966,670.5621271450073,670.5621271450073,670.6620330887017,670.6720217429975,670.7221305170096,670.8421385819966,671.1421286090044,671.262133864002,671.562310777008,671.6823873140092,671.7323056140012,671.8524800770101,672.1524607989995,672.2726029940095,672.3225528460025,672.9226525920094,672.9226525920094,672.9226525920094,1,0.32553792199178133,673.2729165619967,,,,,,,,,,,,,,,,,,,,,,,,,,,,,,,,,,,,,,,,,,,,,,,,4,001,2023-02-02_10h21.18.638,Cognition2_FullCode1,2022.2.5,99.96623840939809,
/Users/shamslab/Desktop/Cognition2_FullExperimentFile/4_AudioBlock1.csv,7,2,1,2,2,1,1,11,41,53,58,70,100,112,142,154,159,171,176,8_audFile.wav,10,2,7,2,1,2,2,1,1,11,41,53,58,70,100,112,142,154,159,171,176,8_audFile.wav,10,2,1,1,,,,0,1,1,1,0,28,28,25,,,,,,,,,,,,,,,,,674.7732444770081,674.9531508310029,675.9536782930081,675.9736483809975,676.0735813866995,676.0836278520001,676.3836435240082,676.5037670430029,676.5539143339993,676.673810925,676.973796997001,677.0938526660029,677.3940669419972,677.5140653220005,677.5640128149971,677.8341120609985,677.6840788100089,677.7340942110022,677.8341120609985,679.134897520009,679.134897520009,679.2344743367066,679.2444762300001,679.544615124003,679.6646354600089,679.7147135600098,679.8346729610057,680.1347521840071,680.2548529199994,680.5548417950049,680.6749622240022,680.7249872149987,680.8450109149999,680.8949521320028,681.4951738939999,681.4951738939999,681.4951738939999,1,0.46469606200116687,681.9852835560014,,,,,,,,,,,,,,,,,,,,,,,,,,,,,,,,,,,,,,,,,,,,,,,,4,001,2023-02-02_10h21.18.638,Cognition2_FullCode1,2022.2.5,99.96623840939809,
/Users/shamslab/Desktop/Cognition2_FullExperimentFile/4_AudioBlock1.csv,1,2,1,2,2,1,2,11,41,53,58,70,100,112,142,154,159,171,201,2_audFile.wav,10,2,1,2,1,2,2,1,2,11,41,53,58,70,100,112,142,154,159,171,201,2_audFile.wav,10,2,1,1,,,,0,1,1,1,0,29,29,16,,,,,,,,,,,,,,,,,683.4856143090001,683.665690822003,684.6660239799967,684.6860757179966,684.7861148466982,684.7961217209959,685.0961602480093,685.2160803739971,685.2663139729993,685.386289187998,685.6864511150052,685.806367808007,686.1065832610038,686.2266307039972,686.27648507501,686.546602611008,686.3965750330099,686.696642017996,686.696642017996,687.9973755539977,687.9973755539977,688.0970471637047,688.1069881000003,688.4071210740076,688.5271536100045,688.5771823630057,688.697224122996,688.9973201079993,689.1173860740091,689.4173778039985,689.5373554300022,689.5875578100095,689.7075181270047,690.007496589009,690.3576849840028,690.3576849840028,690.3576849840028,1,0.5147632789885392,690.8978566279984,,,,,,,,,,,,,,,,,,,,,,,,,,,,,,,,,,,,,,,,,,,,,,,,4,001,2023-02-02_10h21.18.638,Cognition2_FullCode1,2022.2.5,99.96623840939809,
/Users/shamslab/Desktop/Cognition2_FullExperimentFile/4_AudioBlock1.csv,11,2,1,1,2,2,1,11,41,53,58,70,75,87,117,129,159,171,176,12_audFile.wav,10,2,11,2,1,1,2,2,1,11,41,53,58,70,75,87,117,129,159,171,176,12_audFile.wav,10,2,1,1,,,,0,1,1,1,0,30,30,24,,,,,,,,,,,,,,,,,692.3982347490091,692.5783226509957,693.5785439970059,693.5986766319984,693.6986227107045,693.7086458670092,694.0088247690001,694.1287486159999,694.1787334600085,694.2988220770058,694.3487929389958,694.4688421970059,694.7689092820074,694.888988421997,695.18898201501,695.4591019670042,695.3090868520085,695.3591235299973,695.4591019670042,696.7597018800006,696.7597018800006,696.8595389037,696.8695728250023,697.1696287980012,697.2897284180071,697.3397132460086,697.459778835997,697.5096534870099,697.6297187580058,697.9297363649966,698.0498869690055,698.3499435749982,698.4700322099961,698.5199891060038,699.1202071510052,699.1202071510052,699.1202071510052,1,0.8803693809895776,700.0203687800094,,,,,,,,,,,,,,,,,,,,,,,,,,,,,,,,,,,,,,,,,,,,,,,,4,001,2023-02-02_10h21.18.638,Cognition2_FullCode1,2022.2.5,99.96623840939809,
/Users/shamslab/Desktop/Cognition2_FullExperimentFile/4_AudioBlock1.csv,10,1,2,2,1,2,1,11,16,28,58,70,100,112,117,129,159,171,176,11_audFile.wav,10,1,5,1,2,1,2,2,2,11,16,28,58,70,75,87,117,129,159,171,201,6_audFile.wav,10,1,1,2,,,,0,1,1,1,0,31,31,10,,,,,,,,,,,,,,,,,701.5208028110064,701.7109857979958,702.7112135670031,702.7212274180056,702.8212363287093,702.8312972630083,702.8812240480038,703.0013270729978,703.3014025099983,703.4214288600051,703.7214369440044,703.8415685579967,703.891686300005,704.0116858840047,704.3116055830033,704.5818183340016,704.4317745000008,704.4817722150037,704.5818183340016,705.8822206769983,705.8822206769983,705.9821374656967,705.9920951350068,706.0421032190061,706.1621983380028,706.4622461170075,706.5823407560092,706.6323560890014,706.7523358920007,707.052499833997,707.172570736002,707.4725796940038,707.5925836280076,707.8926001380023,708.242785319002,708.242785319002,708.242785319002,2,0.612487473001238,708.8831017990015,,,,,,,,,,,,,,,,,,,,,,,,,,,,,,,,,,,,,,,,,,,,,,,,4,001,2023-02-02_10h21.18.638,Cognition2_FullCode1,2022.2.5,99.96623840939809,
/Users/shamslab/Desktop/Cognition2_FullExperimentFile/4_AudioBlock1.csv,,,,,,,,,,,,,,,,,,,,,,,,,,,,,,,,,,,,,,,,,,,,,,,,,,0,1,1,1,,,,,,,,,,,,,,,,,,,,,,,,,,,,,,,,,,,,,,,,,,,,,,,,,,,,,,,,,,,,,,,710.3935376459995,710.3935376459995,,,,,,,,,,,,,,,,,,,,,,,,,,,,,,,,,,,,,,,,,,,,4,001,2023-02-02_10h21.18.638,Cognition2_FullCode1,2022.2.5,99.96623840939809,
,,,,,,,,,,,,,,,,,,,,,,,,,,,,,,,,,,,,,,,,,,,,,,,,,,,,,,,,,,,,,,,,,,,,,,,,,,,,,,,,,,,,,,,,,,,,,,,,,,,,,,,,,,,,,,,,,,,,,,770.4704275170079,770.8706893950002,space,5.417064198991284,,,,,,,,,,,,,,,,,,,,,,,,,,,,,,,,,,,,,,,,4,001,2023-02-02_10h21.18.638,Cognition2_FullCode1,2022.2.5,99.96623840939809,
,,,,,,,,,,,,,,,,,,,,,,,,,,,,,,,,,,,,,,,,,,,,,,,,,,,,,,,,,,,,,,,,,,,,,,,,,,,,,,,,,,,,,,,,,,,,,,,,,,,,,,,,,,,,,,,,,,,,,,,,,,776.3121043830033,776.4922944770078,space,13.851993686999776,,,,,,,,,,,,,,,,,,,,,,,,,,,,,,,,,,,,4,001,2023-02-02_10h21.18.638,Cognition2_FullCode1,2022.2.5,99.96623840939809,
,,,,,,,,,,,,,,,,,,,,,,,,,,,,,,,,,,,,,,,,,,,,,,,/Users/shamslab/Desktop/Cognition2_FullExperimentFile/conditionFiles_SRT/4_bisensoryblock.csv,B,375,,,,,,,,,0,0,0,2,0,0,0,23,,,,,,,,,,,,,,,,,,,,,,,,,,,,,,,,,,,,,,,,,,,,,,,,,,,,,,,,,,,,,790.8562874990021,790.9564066860039,space,3.1393332010047743,794.1172916299984,795.6176816030056,795.6176816030056,799.3586892290041,799.3787329690094,799.3687020307043,799.3787329690094,799.3886591010087,space,0.32498698499694,None,799.8188146309985,799.8189617107055,799.9191877670091,800.119092701003,,,,,,,,,,,,,,,,,4,001,2023-02-02_10h21.18.638,Cognition2_FullCode1,2022.2.5,99.96623840939809,
,,,,,,,,,,,,,,,,,,,,,,,,,,,,,,,,,,,,,,,,,,,,,,,/Users/shamslab/Desktop/Cognition2_FullExperimentFile/conditionFiles_SRT/4_bisensoryblock.csv,B,337,,,,,,,,,0,0,0,2,0,1,1,13,,,,,,,,,,,,,,,,,,,,,,,,,,,,,,,,,,,,,,,,,,,,,,,,,,,,,,,,,,,,,,,,,800.119092701003,801.6194335100008,801.6194335100008,804.9804078890011,804.9904451970069,804.9904206907013,804.9904451970069,805.000362842009,space,0.41763373400317505,None,805.5206949679996,805.5205217196999,805.6305638150079,805.8206566809968,801.6194335100008,,,,,,,,,,,,,,,,4,001,2023-02-02_10h21.18.638,Cognition2_FullCode1,2022.2.5,99.96623840939809,
,,,,,,,,,,,,,,,,,,,,,,,,,,,,,,,,,,,,,,,,,,,,,,,/Users/shamslab/Desktop/Cognition2_FullExperimentFile/conditionFiles_SRT/4_bisensoryblock.csv,B,95,,,,,,,,,0,0,0,2,0,2,2,1,,,,,,,,,,,,,,,,,,,,,,,,,,,,,,,,,,,,,,,,,,,,,,,,,,,,,,,,,,,,,,,,,805.8206566809968,807.3212145139987,807.3212145139987,808.2613974569977,808.2714028960036,808.2714102586979,808.2714028960036,808.2813694560027,space,0.345020303997444,None,808.7314693469962,808.7314587457004,808.8415869040036,809.031495607007,807.3212145139987,,,,,,,,,,,,,,,,4,001,2023-02-02_10h21.18.638,Cognition2_FullCode1,2022.2.5,99.96623840939809,
,,,,,,,,,,,,,,,,,,,,,,,,,,,,,,,,,,,,,,,,,,,,,,,/Users/shamslab/Desktop/Cognition2_FullExperimentFile/conditionFiles_SRT/4_bisensoryblock.csv,B,96,,,,,,,,,0,0,0,2,0,3,3,26,,,,,,,,,,,,,,,,,,,,,,,,,,,,,,,,,,,,,,,,,,,,,,,,,,,,,,,,,,,,,,,,,809.031495607007,810.5320428940031,810.5320428940031,811.4823425790091,811.4924599980004,811.4923553807093,811.4924599980004,811.5022653630003,space,0.33996558499347884,None,811.9424124750076,811.9424102177072,812.0428000490065,812.2425690000091,810.5320428940031,,,,,,,,,,,,,,,,4,001,2023-02-02_10h21.18.638,Cognition2_FullCode1,2022.2.5,99.96623840939809,
,,,,,,,,,,,,,,,,,,,,,,,,,,,,,,,,,,,,,,,,,,,,,,,/Users/shamslab/Desktop/Cognition2_FullExperimentFile/conditionFiles_SRT/4_bisensoryblock.csv,B,371,,,,,,,,,0,0,0,2,0,4,4,15,,,,,,,,,,,,,,,,,,,,,,,,,,,,,,,,,,,,,,,,,,,,,,,,,,,,,,,,,,,,,,,,,812.2425690000091,813.7429516020056,813.7429516020056,817.4439559820021,817.4539790260023,817.4539687837023,817.4539790260023,817.4639412510005,space,0.2579333729954669,None,817.8240620750003,817.8240511357071,817.9243684370012,818.1242373319983,813.7429516020056,,,,,,,,,,,,,,,,4,001,2023-02-02_10h21.18.638,Cognition2_FullCode1,2022.2.5,99.96623840939809,
,,,,,,,,,,,,,,,,,,,,,,,,,,,,,,,,,,,,,,,,,,,,,,,/Users/shamslab/Desktop/Cognition2_FullExperimentFile/conditionFiles_SRT/4_bisensoryblock.csv,B,99,,,,,,,,,0,0,0,2,0,5,5,17,,,,,,,,,,,,,,,,,,,,,,,,,,,,,,,,,,,,,,,,,,,,,,,,,,,,,,,,,,,,,,,,,818.1242373319983,819.6245165380096,819.6245165380096,820.6048278570088,820.6149651239975,820.614840658709,820.6149651239975,820.6248755920096,space,0.24923823999415617,None,820.9749679660017,820.9749761617059,821.0849104600056,821.2750267899974,,,,,,,,,,,,,,,,,4,001,2023-02-02_10h21.18.638,Cognition2_FullCode1,2022.2.5,99.96623840939809,
,,,,,,,,,,,,,,,,,,,,,,,,,,,,,,,,,,,,,,,,,,,,,,,/Users/shamslab/Desktop/Cognition2_FullExperimentFile/conditionFiles_SRT/4_bisensoryblock.csv,B,220,,,,,,,,,0,0,0,2,0,6,6,18,,,,,,,,,,,,,,,,,,,,,,,,,,,,,,,,,,,,,,,,,,,,,,,,,,,,,,,,,,,,,,,,,821.2750267899974,822.7755553669995,822.7755553669995,824.9660220060032,824.9761648929998,824.9760348077034,824.9761648929998,824.9860628940078,space,0.1912130369892111,None,825.296207692998,825.2962126646962,825.4060969290003,825.5962139589974,822.7755553669995,,,,,,,,,,,,,,,,4,001,2023-02-02_10h21.18.638,Cognition2_FullCode1,2022.2.5,99.96623840939809,
,,,,,,,,,,,,,,,,,,,,,,,,,,,,,,,,,,,,,,,,,,,,,,,/Users/shamslab/Desktop/Cognition2_FullExperimentFile/conditionFiles_SRT/4_bisensoryblock.csv,B,183,,,,,,,,,0,0,0,2,0,7,7,25,,,,,,,,,,,,,,,,,,,,,,,,,,,,,,,,,,,,,,,,,,,,,,,,,,,,,,,,,,,,,,,,,825.5962139589974,827.096812682008,827.096812682008,828.91719370801,828.9272420830093,828.9272065097102,828.9272420830093,828.9372165329987,space,0.27197613898897544,None,829.3173081249988,829.3174672047098,829.4273248100071,829.6175452300085,827.096812682008,,,,,,,,,,,,,,,,4,001,2023-02-02_10h21.18.638,Cognition2_FullCode1,2022.2.5,99.96623840939809,
,,,,,,,,,,,,,,,,,,,,,,,,,,,,,,,,,,,,,,,,,,,,,,,/Users/shamslab/Desktop/Cognition2_FullExperimentFile/conditionFiles_SRT/4_bisensoryblock.csv,B,233,,,,,,,,,0,0,0,2,0,8,8,5,,,,,,,,,,,,,,,,,,,,,,,,,,,,,,,,,,,,,,,,,,,,,,,,,,,,,,,,,,,,,,,,,829.6175452300085,831.1178781540075,831.1178781540075,833.4385477589967,833.448657298999,833.4485605606969,833.448657298999,833.4586090640078,space,0.16742605798935983,None,833.7290021130029,833.7286633156982,833.8385196580057,834.0287006739964,831.1178781540075,,,,,,,,,,,,,,,,4,001,2023-02-02_10h21.18.638,Cognition2_FullCode1,2022.2.5,99.96623840939809,
,,,,,,,,,,,,,,,,,,,,,,,,,,,,,,,,,,,,,,,,,,,,,,,/Users/shamslab/Desktop/Cognition2_FullExperimentFile/conditionFiles_SRT/4_bisensoryblock.csv,B,125,,,,,,,,,0,0,0,2,0,9,9,3,,,,,,,,,,,,,,,,,,,,,,,,,,,,,,,,,,,,,,,,,,,,,,,,,,,,,,,,,,,,,,,,,834.0287006739964,835.5291927060025,835.5291927060025,836.7695977660042,836.7794438109995,836.7796105677044,836.7794438109995,836.7896008070093,space,0.21223629999440163,None,837.109939832997,837.1095772547051,837.2195787020028,837.4096322700061,835.5291927060025,,,,,,,,,,,,,,,,4,001,2023-02-02_10h21.18.638,Cognition2_FullCode1,2022.2.5,99.96623840939809,
,,,,,,,,,,,,,,,,,,,,,,,,,,,,,,,,,,,,,,,,,,,,,,,/Users/shamslab/Desktop/Cognition2_FullExperimentFile/conditionFiles_SRT/4_bisensoryblock.csv,B,212,,,,,,,,,0,0,0,2,0,10,10,12,,,,,,,,,,,,,,,,,,,,,,,,,,,,,,,,,,,,,,,,,,,,,,,,,,,,,,,,,,,,,,,,,837.4096322700061,838.9101597280096,838.9101597280096,841.0206552870077,841.030720736002,841.0306680887079,841.030720736002,841.0408253720088,space,0.24111516500124708,None,841.4008453980059,841.4008392967007,841.5108398489974,841.7009944650054,838.9101597280096,,,,,,,,,,,,,,,,4,001,2023-02-02_10h21.18.638,Cognition2_FullCode1,2022.2.5,99.96623840939809,
,,,,,,,,,,,,,,,,,,,,,,,,,,,,,,,,,,,,,,,,,,,,,,,/Users/shamslab/Desktop/Cognition2_FullExperimentFile/conditionFiles_SRT/4_bisensoryblock.csv,B,350,,,,,,,,,0,0,0,2,0,11,11,11,,,,,,,,,,,,,,,,,,,,,,,,,,,,,,,,,,,,,,,,,,,,,,,,,,,,,,,,,,,,,,,,,841.7009944650054,843.2013895980053,843.2013895980053,846.6923431230098,846.7023208739993,846.70235592471,846.7023208739993,846.7123271650053,space,0.3540100019890815,None,847.1724547299964,847.1725274957062,847.2823020400101,847.472494185,843.2013895980053,,,,,,,,,,,,,,,,4,001,2023-02-02_10h21.18.638,Cognition2_FullCode1,2022.2.5,99.96623840939809,
,,,,,,,,,,,,,,,,,,,,,,,,,,,,,,,,,,,,,,,,,,,,,,,/Users/shamslab/Desktop/Cognition2_FullExperimentFile/conditionFiles_SRT/4_bisensoryblock.csv,B,388,,,,,,,,,0,0,0,2,0,12,12,22,,,,,,,,,,,,,,,,,,,,,,,,,,,,,,,,,,,,,,,,,,,,,,,,,,,,,,,,,,,,,,,,,847.472494185,848.9729690179956,848.9729690179956,852.8441331729991,852.8540330429969,852.8541459746993,852.8540330429969,852.8641868230043,space,0.2186366609967081,None,853.1843409620051,853.1844186527087,853.2941543750057,853.4842760110041,848.9729690179956,,,,,,,,,,,,,,,,4,001,2023-02-02_10h21.18.638,Cognition2_FullCode1,2022.2.5,99.96623840939809,
,,,,,,,,,,,,,,,,,,,,,,,,,,,,,,,,,,,,,,,,,,,,,,,/Users/shamslab/Desktop/Cognition2_FullExperimentFile/conditionFiles_SRT/4_bisensoryblock.csv,B,242,,,,,,,,,0,0,0,2,0,13,13,27,,,,,,,,,,,,,,,,,,,,,,,,,,,,,,,,,,,,,,,,,,,,,,,,,,,,,,,,,,,,,,,,,853.4842760110041,854.9846669230028,854.9846669230028,857.3952969469974,857.4054223550047,857.4053097486976,857.4054223550047,857.4154487420019,space,0.2501860759948613,None,857.7654094570025,857.7653440846989,857.8755780750071,858.065569325001,854.9846669230028,,,,,,,,,,,,,,,,4,001,2023-02-02_10h21.18.638,Cognition2_FullCode1,2022.2.5,99.96623840939809,
,,,,,,,,,,,,,,,,,,,,,,,,,,,,,,,,,,,,,,,,,,,,,,,/Users/shamslab/Desktop/Cognition2_FullExperimentFile/conditionFiles_SRT/4_bisensoryblock.csv,B,371,,,,,,,,,0,0,0,2,0,14,14,28,,,,,,,,,,,,,,,,,,,,,,,,,,,,,,,,,,,,,,,,,,,,,,,,,,,,,,,,,,,,,,,,,858.065569325001,859.5660563510028,859.5660563510028,863.2669940640044,863.2770706820011,863.2770068657046,863.2770706820011,863.2870225799998,space,0.22668109399091918,None,863.6172399339994,863.6170983756965,863.727583920001,863.9172100489959,859.5660563510028,,,,,,,,,,,,,,,,4,001,2023-02-02_10h21.18.638,Cognition2_FullCode1,2022.2.5,99.96623840939809,
,,,,,,,,,,,,,,,,,,,,,,,,,,,,,,,,,,,,,,,,,,,,,,,/Users/shamslab/Desktop/Cognition2_FullExperimentFile/conditionFiles_SRT/4_bisensoryblock.csv,B,187,,,,,,,,,0,0,0,2,0,15,15,19,,,,,,,,,,,,,,,,,,,,,,,,,,,,,,,,,,,,,,,,,,,,,,,,,,,,,,,,,,,,,,,,,863.9172100489959,865.4176068689994,865.4176068689994,867.2782231169986,867.2882057910028,867.2882359186988,867.2882057910028,867.298169761998,space,0.2645867770042969,None,867.6683621380071,867.6681828327055,867.7687243719993,867.9684047640039,865.4176068689994,,,,,,,,,,,,,,,,4,001,2023-02-02_10h21.18.638,Cognition2_FullCode1,2022.2.5,99.96623840939809,
,,,,,,,,,,,,,,,,,,,,,,,,,,,,,,,,,,,,,,,,,,,,,,,/Users/shamslab/Desktop/Cognition2_FullExperimentFile/conditionFiles_SRT/4_bisensoryblock.csv,B,157,,,,,,,,,0,0,0,2,0,16,16,6,,,,,,,,,,,,,,,,,,,,,,,,,,,,,,,,,,,,,,,,,,,,,,,,,,,,,,,,,,,,,,,,,867.9684047640039,869.4687925040053,869.4687925040053,871.0293258360034,871.0393228370085,871.0393386377036,871.0393228370085,871.0492266189976,space,0.2161395760049345,None,871.3693281290034,871.3693068626962,871.4793239900027,871.6694679560023,869.4687925040053,,,,,,,,,,,,,,,,4,001,2023-02-02_10h21.18.638,Cognition2_FullCode1,2022.2.5,99.96623840939809,
,,,,,,,,,,,,,,,,,,,,,,,,,,,,,,,,,,,,,,,,,,,,,,,/Users/shamslab/Desktop/Cognition2_FullExperimentFile/conditionFiles_SRT/4_bisensoryblock.csv,B,111,,,,,,,,,0,0,0,2,0,17,17,9,,,,,,,,,,,,,,,,,,,,,,,,,,,,,,,,,,,,,,,,,,,,,,,,,,,,,,,,,,,,,,,,,871.6694679560023,873.169869616002,873.169869616002,874.270279068005,874.2801466070086,874.2802918697053,874.2801466070086,874.2902274770022,space,0.2553640819969587,None,874.650340075008,874.6502152616958,874.7506759660027,874.9503304800019,873.169869616002,,,,,,,,,,,,,,,,4,001,2023-02-02_10h21.18.638,Cognition2_FullCode1,2022.2.5,99.96623840939809,
,,,,,,,,,,,,,,,,,,,,,,,,,,,,,,,,,,,,,,,,,,,,,,,/Users/shamslab/Desktop/Cognition2_FullExperimentFile/conditionFiles_SRT/4_bisensoryblock.csv,B,243,,,,,,,,,0,0,0,2,0,18,18,2,,,,,,,,,,,,,,,,,,,,,,,,,,,,,,,,,,,,,,,,,,,,,,,,,,,,,,,,,,,,,,,,,874.9503304800019,876.4508743780025,876.4508743780025,878.8714459750045,878.8815017599991,878.8814587767047,878.8815017599991,878.8915363660053,space,0.18241606999072246,None,879.1815904850082,879.1815879116984,879.2914265440049,879.4817998210056,876.4508743780025,,,,,,,,,,,,,,,,4,001,2023-02-02_10h21.18.638,Cognition2_FullCode1,2022.2.5,99.96623840939809,
,,,,,,,,,,,,,,,,,,,,,,,,,,,,,,,,,,,,,,,,,,,,,,,/Users/shamslab/Desktop/Cognition2_FullExperimentFile/conditionFiles_SRT/4_bisensoryblock.csv,B,170,,,,,,,,,0,0,0,2,0,19,19,10,,,,,,,,,,,,,,,,,,,,,,,,,,,,,,,,,,,,,,,,,,,,,,,,,,,,,,,,,,,,,,,,,879.4817998210056,880.982085805008,880.982085805008,882.6726997280057,882.6825744950038,882.6827125297059,882.6825744950038,882.6925339879963,space,0.22090583300450817,None,883.0327315180039,883.0326310896999,883.1426138950046,883.3328806729987,880.982085805008,,,,,,,,,,,,,,,,4,001,2023-02-02_10h21.18.638,Cognition2_FullCode1,2022.2.5,99.96623840939809,
,,,,,,,,,,,,,,,,,,,,,,,,,,,,,,,,,,,,,,,,,,,,,,,/Users/shamslab/Desktop/Cognition2_FullExperimentFile/conditionFiles_SRT/4_bisensoryblock.csv,B,123,,,,,,,,,0,0,0,2,0,20,20,29,,,,,,,,,,,,,,,,,,,,,,,,,,,,,,,,,,,,,,,,,,,,,,,,,,,,,,,,,,,,,,,,,883.3328806729987,884.8331469120021,884.8331469120021,886.0536007890041,886.0635801530007,886.0636135907043,886.0635801530007,886.0736919740011,space,0.21562950999941677,None,886.393615028006,886.3936973297023,886.5035996640072,886.6937730740028,884.8331469120021,,,,,,,,,,,,,,,,4,001,2023-02-02_10h21.18.638,Cognition2_FullCode1,2022.2.5,99.96623840939809,
,,,,,,,,,,,,,,,,,,,,,,,,,,,,,,,,,,,,,,,,,,,,,,,/Users/shamslab/Desktop/Cognition2_FullExperimentFile/conditionFiles_SRT/4_bisensoryblock.csv,B,343,,,,,,,,,0,0,0,2,0,21,21,8,,,,,,,,,,,,,,,,,,,,,,,,,,,,,,,,,,,,,,,,,,,,,,,,,,,,,,,,,,,,,,,,,886.6937730740028,888.194158423008,888.194158423008,891.6152711339964,891.6251193460048,891.6252839356966,891.6251193460048,891.6352673430083,space,0.20643099199514836,None,891.9452681450057,891.9452427856959,892.0454265470034,892.2454304240091,888.194158423008,,,,,,,,,,,,,,,,4,001,2023-02-02_10h21.18.638,Cognition2_FullCode1,2022.2.5,99.96623840939809,
,,,,,,,,,,,,,,,,,,,,,,,,,,,,,,,,,,,,,,,,,,,,,,,/Users/shamslab/Desktop/Cognition2_FullExperimentFile/conditionFiles_SRT/4_bisensoryblock.csv,B,173,,,,,,,,,0,0,0,2,0,22,22,21,,,,,,,,,,,,,,,,,,,,,,,,,,,,,,,,,,,,,,,,,,,,,,,,,,,,,,,,,,,,,,,,,892.2454304240091,893.7456990320061,893.7456990320061,895.4661967490101,895.4762959759973,895.4762095507103,895.4762959759973,895.4863187430019,space,0.2200779829872772,None,895.8063725819957,895.8062697526984,895.9067608159967,896.1064443450014,893.7456990320061,,,,,,,,,,,,,,,,4,001,2023-02-02_10h21.18.638,Cognition2_FullCode1,2022.2.5,99.96623840939809,
,,,,,,,,,,,,,,,,,,,,,,,,,,,,,,,,,,,,,,,,,,,,,,,/Users/shamslab/Desktop/Cognition2_FullExperimentFile/conditionFiles_SRT/4_bisensoryblock.csv,B,183,,,,,,,,,0,0,0,2,0,23,23,7,,,,,,,,,,,,,,,,,,,,,,,,,,,,,,,,,,,,,,,,,,,,,,,,,,,,,,,,,,,,,,,,,896.1064443450014,897.606921190003,897.606921190003,899.4273957010009,899.437415043998,899.4374085027011,899.437415043998,899.4474069510034,space,0.17853762100276072,None,899.7274509630079,899.7274418597008,899.8373875690013,900.0276321810088,897.606921190003,,,,,,,,,,,,,,,,4,001,2023-02-02_10h21.18.638,Cognition2_FullCode1,2022.2.5,99.96623840939809,
,,,,,,,,,,,,,,,,,,,,,,,,,,,,,,,,,,,,,,,,,,,,,,,/Users/shamslab/Desktop/Cognition2_FullExperimentFile/conditionFiles_SRT/4_bisensoryblock.csv,B,117,,,,,,,,,0,0,0,2,0,24,24,16,,,,,,,,,,,,,,,,,,,,,,,,,,,,,,,,,,,,,,,,,,,,,,,,,,,,,,,,,,,,,,,,,900.0276321810088,901.5280913379975,901.5280913379975,902.6883419509977,902.698360962997,902.6983547526979,902.698360962997,902.7082608390047,space,0.24552899699483532,None,903.058357226997,903.0583270686984,903.1683620980039,903.3585454139975,901.5280913379975,,,,,,,,,,,,,,,,4,001,2023-02-02_10h21.18.638,Cognition2_FullCode1,2022.2.5,99.96623840939809,
,,,,,,,,,,,,,,,,,,,,,,,,,,,,,,,,,,,,,,,,,,,,,,,/Users/shamslab/Desktop/Cognition2_FullExperimentFile/conditionFiles_SRT/4_bisensoryblock.csv,B,247,,,,,,,,,0,0,0,2,0,25,25,4,,,,,,,,,,,,,,,,,,,,,,,,,,,,,,,,,,,,,,,,,,,,,,,,,,,,,,,,,,,,,,,,,903.3585454139975,904.8588306680031,904.8588306680031,907.3196215670032,907.3296370460012,907.3296343687034,907.3296370460012,907.3396542520059,space,0.21440528199309483,None,907.6597288860066,907.6597418987003,907.7696660220099,907.9597728320077,904.8588306680031,,,,,,,,,,,,,,,,4,001,2023-02-02_10h21.18.638,Cognition2_FullCode1,2022.2.5,99.96623840939809,
,,,,,,,,,,,,,,,,,,,,,,,,,,,,,,,,,,,,,,,,,,,,,,,/Users/shamslab/Desktop/Cognition2_FullExperimentFile/conditionFiles_SRT/4_bisensoryblock.csv,B,361,,,,,,,,,0,0,0,2,0,26,26,24,,,,,,,,,,,,,,,,,,,,,,,,,,,,,,,,,,,,,,,,,,,,,,,,,,,,,,,,,,,,,,,,,907.9597728320077,909.4602005390043,909.4602005390043,913.0612451080087,913.0712440880015,913.071257909709,913.0712440880015,913.0813646160095,space,0.22448990299017169,None,913.4114734089962,913.4113951927066,913.511465721007,913.7114886299969,909.4602005390043,,,,,,,,,,,,,,,,4,001,2023-02-02_10h21.18.638,Cognition2_FullCode1,2022.2.5,99.96623840939809,
,,,,,,,,,,,,,,,,,,,,,,,,,,,,,,,,,,,,,,,,,,,,,,,/Users/shamslab/Desktop/Cognition2_FullExperimentFile/conditionFiles_SRT/4_bisensoryblock.csv,B,228,,,,,,,,,0,0,0,2,0,27,27,20,,,,,,,,,,,,,,,,,,,,,,,,,,,,,,,,,,,,,,,,,,,,,,,,,,,,,,,,,,,,,,,,,913.7114886299969,915.2119294300064,915.2119294300064,917.4824592229998,917.492476408006,917.4924720247,917.492476408006,917.5026562630082,space,0.21910196800308768,None,917.822617140002,917.8226349476972,917.9325128670025,918.1227905380074,,,,,,,,,,,,,,,,,4,001,2023-02-02_10h21.18.638,Cognition2_FullCode1,2022.2.5,99.96623840939809,
,,,,,,,,,,,,,,,,,,,,,,,,,,,,,,,,,,,,,,,,,,,,,,,/Users/shamslab/Desktop/Cognition2_FullExperimentFile/conditionFiles_SRT/4_bisensoryblock.csv,B,251,,,,,,,,,0,0,0,2,0,28,28,14,,,,,,,,,,,,,,,,,,,,,,,,,,,,,,,,,,,,,,,,,,,,,,,,,,,,,,,,,,,,,,,,,918.1227905380074,919.6231499870046,919.6231499870046,922.1238940870098,922.1339002140012,922.13390688871,922.1339002140012,922.1439093590016,space,0.2177460249949945,None,922.4639457879966,922.4639322757066,922.5642169369967,922.7640451560001,919.6231499870046,,,,,,,,,,,,,,,,4,001,2023-02-02_10h21.18.638,Cognition2_FullCode1,2022.2.5,99.96623840939809,
,,,,,,,,,,,,,,,,,,,,,,,,,,,,,,,,,,,,,,,,,,,,,,,/Users/shamslab/Desktop/Cognition2_FullExperimentFile/conditionFiles_SRT/4_bisensoryblock.csv,B,82,,,,,,,,,0,0,0,2,0,29,29,0,,,,,,,,,,,,,,,,,,,,,,,,,,,,,,,,,,,,,,,,,,,,,,,,,,,,,,,,,,,,,,,,,922.7640451560001,924.2645123149996,924.2645123149996,925.0745854720008,925.0847191220091,925.084598273701,925.0847191220091,925.0947166060068,space,0.24344105200725608,None,925.4448098330031,925.4447624887034,925.5547597749974,925.7549390519998,924.2645123149996,,,,,,,,,,,,,,,,4,001,2023-02-02_10h21.18.638,Cognition2_FullCode1,2022.2.5,99.96623840939809,
,,,,,,,,,,,,,,,,,,,,,,,,,,,,,,,,,,,,,,,,,,,,,,,/Users/shamslab/Desktop/Cognition2_FullExperimentFile/conditionFiles_SRT/4_bisensoryblock.csv,,,,,,,,,,,0,0,0,2,,,,,,,,,,,,,,,,,,,,,,,,,,,,,,,,,,,,,,,,,,,,,,,,,,,,,,,,,,,,,,,,,,,,,,,,,,,,,,,,,,,,,,,,,,,,,,,,,,,,4,001,2023-02-02_10h21.18.638,Cognition2_FullCode1,2022.2.5,99.96623840939809,
,,,,,,,,,,,,,,,,,,,,,,,,,,,,,,,,,,,,,,,,,,,,,,,/Users/shamslab/Desktop/Cognition2_FullExperimentFile/conditionFiles_SRT/4_audioblock.csv,A,179,,,,,,,,,0,1,1,0,0,0,0,26,,,,,,,,,,,,,,,,,,,,,,,,,,,,,,,,,,,,,,,,,,,,,,,,,,,,,,,,,,,,,926.2349676340091,926.335156443005,space,3.6885515799949644,930.0461122520064,931.5464231119986,931.5464231119986,933.3270102710085,933.3370629120036,933.3370230727087,933.3370629120036,933.3470823820098,space,0.27116208999359515,None,933.7371841459972,933.737166562707,933.8471338390082,934.0372046230041,,,,,,,,,,,,,,,,,4,001,2023-02-02_10h21.18.638,Cognition2_FullCode1,2022.2.5,99.96623840939809,
,,,,,,,,,,,,,,,,,,,,,,,,,,,,,,,,,,,,,,,,,,,,,,,/Users/shamslab/Desktop/Cognition2_FullExperimentFile/conditionFiles_SRT/4_audioblock.csv,A,130,,,,,,,,,0,1,1,0,0,1,1,13,,,,,,,,,,,,,,,,,,,,,,,,,,,,,,,,,,,,,,,,,,,,,,,,,,,,,,,,,,,,,,,,,934.0372046230041,935.5378691280057,935.5378691280057,936.8280098630057,936.8380637009977,936.8380226647059,936.8380637009977,936.8480471079965,space,0.23409499299305025,None,937.1880754239974,937.1881540667018,937.2883888780052,937.4881836249988,,,,,,,,,,,,,,,,,4,001,2023-02-02_10h21.18.638,Cognition2_FullCode1,2022.2.5,99.96623840939809,
,,,,,,,,,,,,,,,,,,,,,,,,,,,,,,,,,,,,,,,,,,,,,,,/Users/shamslab/Desktop/Cognition2_FullExperimentFile/conditionFiles_SRT/4_audioblock.csv,A,77,,,,,,,,,0,1,1,0,0,2,2,5,,,,,,,,,,,,,,,,,,,,,,,,,,,,,,,,,,,,,,,,,,,,,,,,,,,,,,,,,,,,,,,,,937.4881836249988,938.9886903309962,938.9886903309962,939.7488487140072,939.758808204002,939.7588615157074,939.758808204002,939.7690159610065,space,0.28121182999166194,None,940.1689205389994,940.1689866707093,940.2693149900006,940.4691514690057,938.9886903309962,,,,,,,,,,,,,,,,4,001,2023-02-02_10h21.18.638,Cognition2_FullCode1,2022.2.5,99.96623840939809,
,,,,,,,,,,,,,,,,,,,,,,,,,,,,,,,,,,,,,,,,,,,,,,,/Users/shamslab/Desktop/Cognition2_FullExperimentFile/conditionFiles_SRT/4_audioblock.csv,A,179,,,,,,,,,0,1,1,0,0,3,3,19,,,,,,,,,,,,,,,,,,,,,,,,,,,,,,,,,,,,,,,,,,,,,,,,,,,,,,,,,,,,,,,,,940.4691514690057,941.9695442289958,941.9695442289958,943.7499428020092,943.7601223990059,943.7599556037094,943.7601223990059,943.7700577890064,space,0.2076936369849136,None,944.0800052520062,944.0800714826983,944.1900657980004,944.3801688800013,941.9695442289958,,,,,,,,,,,,,,,,4,001,2023-02-02_10h21.18.638,Cognition2_FullCode1,2022.2.5,99.96623840939809,
,,,,,,,,,,,,,,,,,,,,,,,,,,,,,,,,,,,,,,,,,,,,,,,/Users/shamslab/Desktop/Cognition2_FullExperimentFile/conditionFiles_SRT/4_audioblock.csv,A,144,,,,,,,,,0,1,1,0,0,4,4,20,,,,,,,,,,,,,,,,,,,,,,,,,,,,,,,,,,,,,,,,,,,,,,,,,,,,,,,,,,,,,,,,,944.3801688800013,945.880724349001,945.880724349001,947.3110656670033,947.3210346800042,947.3210784687035,947.3210346800042,947.3311334559985,space,0.254936198994983,None,947.6910491470044,947.6911291477081,947.8011200280016,947.9912131610035,945.880724349001,,,,,,,,,,,,,,,,4,001,2023-02-02_10h21.18.638,Cognition2_FullCode1,2022.2.5,99.96623840939809,
,,,,,,,,,,,,,,,,,,,,,,,,,,,,,,,,,,,,,,,,,,,,,,,/Users/shamslab/Desktop/Cognition2_FullExperimentFile/conditionFiles_SRT/4_audioblock.csv,A,257,,,,,,,,,0,1,1,0,0,5,5,15,,,,,,,,,,,,,,,,,,,,,,,,,,,,,,,,,,,,,,,,,,,,,,,,,,,,,,,,,,,,,,,,,947.9912131610035,949.4916422789975,949.4916422789975,952.0524160990026,952.0623611440096,952.0624289007028,952.0623611440096,952.0723852740048,space,0.26564920399687253,None,952.4425099610089,952.4424411867003,952.542737456999,952.7426264690002,949.4916422789975,,,,,,,,,,,,,,,,4,001,2023-02-02_10h21.18.638,Cognition2_FullCode1,2022.2.5,99.96623840939809,
,,,,,,,,,,,,,,,,,,,,,,,,,,,,,,,,,,,,,,,,,,,,,,,/Users/shamslab/Desktop/Cognition2_FullExperimentFile/conditionFiles_SRT/4_audioblock.csv,A,62,,,,,,,,,0,1,1,0,0,6,6,7,,,,,,,,,,,,,,,,,,,,,,,,,,,,,,,,,,,,,,,,,,,,,,,,,,,,,,,,,,,,,,,,,952.7426264690002,954.2430238550005,954.2430238550005,954.8530815529957,954.863258523008,954.8630943546959,954.863258523008,954.8731860830012,space,0.24858513299841434,None,955.2232145029993,955.2232220547085,955.3332054229977,955.5233879099978,954.2430238550005,,,,,,,,,,,,,,,,4,001,2023-02-02_10h21.18.638,Cognition2_FullCode1,2022.2.5,99.96623840939809,
,,,,,,,,,,,,,,,,,,,,,,,,,,,,,,,,,,,,,,,,,,,,,,,/Users/shamslab/Desktop/Cognition2_FullExperimentFile/conditionFiles_SRT/4_audioblock.csv,A,59,,,,,,,,,0,1,1,0,0,7,7,9,,,,,,,,,,,,,,,,,,,,,,,,,,,,,,,,,,,,,,,,,,,,,,,,,,,,,,,,,,,,,,,,,955.5233879099978,957.0238901630073,957.0238901630073,957.6040083179978,957.6140547929972,957.614021119698,957.6140547929972,957.6240673440043,space,0.24965569100459106,None,957.9740467439988,957.9740530037016,958.0840486180095,958.274171623998,957.0238901630073,,,,,,,,,,,,,,,,4,001,2023-02-02_10h21.18.638,Cognition2_FullCode1,2022.2.5,99.96623840939809,
,,,,,,,,,,,,,,,,,,,,,,,,,,,,,,,,,,,,,,,,,,,,,,,/Users/shamslab/Desktop/Cognition2_FullExperimentFile/conditionFiles_SRT/4_audioblock.csv,A,368,,,,,,,,,0,1,1,0,0,8,8,4,,,,,,,,,,,,,,,,,,,,,,,,,,,,,,,,,,,,,,,,,,,,,,,,,,,,,,,,,,,,,,,,,958.274171623998,959.7747203750041,959.7747203750041,963.4456289310037,963.4557372069976,963.455641732704,963.4557372069976,963.4657444019977,space,0.28003921199706383,None,963.8457614520012,963.8456724287025,963.9460917270044,964.1458835759986,959.7747203750041,,,,,,,,,,,,,,,,4,001,2023-02-02_10h21.18.638,Cognition2_FullCode1,2022.2.5,99.96623840939809,
,,,,,,,,,,,,,,,,,,,,,,,,,,,,,,,,,,,,,,,,,,,,,,,/Users/shamslab/Desktop/Cognition2_FullExperimentFile/conditionFiles_SRT/4_audioblock.csv,A,388,,,,,,,,,0,1,1,0,0,9,9,18,,,,,,,,,,,,,,,,,,,,,,,,,,,,,,,,,,,,,,,,,,,,,,,,,,,,,,,,,,,,,,,,,964.1458835759986,965.6463073549967,965.6463073549967,969.5173379820044,969.5274112260086,969.5273507837046,969.5274112260086,969.5373974859976,space,0.23208086600061506,None,969.8774694220047,969.8775707027016,969.9875119930075,970.1775560460082,965.6463073549967,,,,,,,,,,,,,,,,4,001,2023-02-02_10h21.18.638,Cognition2_FullCode1,2022.2.5,99.96623840939809,
