{"meta_data":{"additional_headers":{},"game_name":"Recollect","version":"2.53.01","user_name":"104","organization":"braingamecenter","study":"mpl2_2022_11","session_number":0,"device_id":"74342D95-EE82-45E3-8ADF-48FB3203C5DD"},"data":[{"trial":0,"action":1,"button_pressed":2,"time_out":false,"dwell_time":97.714111328125,"response_time":1684883162611.69},{"trial":0,"action":1,"button_pressed":9,"time_out":false,"dwell_time":81.35595703125,"response_time":1684883163178.66},{"trial":0,"action":1,"button_pressed":4,"time_out":false,"dwell_time":98.139892578125,"response_time":1684883163711.87},{"trial":0,"action":1,"button_pressed":3,"time_out":false,"dwell_time":80.756103515625,"response_time":1684883164144.95},{"trial":0,"action":1,"button_pressed":0,"time_out":false,"dwell_time":98.23095703125,"response_time":1684883164611.58},{"trial":0,"action":1,"button_pressed":1,"time_out":false,"dwell_time":64.055908203125,"response_time":1684883165043.97},{"trial":0,"action":1,"button_pressed":6,"time_out":false,"dwell_time":114.720947265625,"response_time":1684883165444.59},{"trial":0,"action":1,"button_pressed":7,"time_out":false,"dwell_time":80.010986328125,"response_time":1684883165810.46},{"trial":0,"action":1,"button_pressed":11,"time_out":false,"dwell_time":64.008056640625,"response_time":1684883166111.01},{"trial":0,"action":1,"button_pressed":10,"time_out":false,"dwell_time":64.81005859375,"response_time":1684883166710.76},{"trial":0,"action":1,"button_pressed":8,"time_out":false,"dwell_time":80.831787109375,"response_time":1684883167143.53},{"trial":0,"action":1,"button_pressed":5,"time_out":false,"dwell_time":64.498046875,"response_time":1684883167576.87},{"trial":0,"action":9,"button_pressed":-1,"time_out":false,"dwell_time":90.7470703125,"response_time":1684883168470.17},{"trial":1,"action":1,"button_pressed":11,"time_out":false,"dwell_time":81.216064453125,"response_time":1684883176124.17},{"trial":1,"action":1,"button_pressed":8,"time_out":false,"dwell_time":81.30615234375,"response_time":1684883176757.65},{"trial":1,"action":1,"button_pressed":5,"time_out":false,"dwell_time":80.39697265625,"response_time":1684883177207.23},{"trial":1,"action":1,"button_pressed":2,"time_out":false,"dwell_time":80.126953125,"response_time":1684883177573.32},{"trial":1,"action":1,"button_pressed":4,"time_out":false,"dwell_time":80.587890625,"response_time":1684883177923.17},{"trial":1,"action":1,"button_pressed":0,"time_out":false,"dwell_time":80.02294921875,"response_time":1684883178256.48},{"trial":1,"action":1,"button_pressed":3,"time_out":false,"dwell_time":80.9658203125,"response_time":1684883178590.48},{"trial":1,"action":1,"button_pressed":1,"time_out":false,"dwell_time":64.091064453125,"response_time":1684883178906.95},{"trial":1,"action":1,"button_pressed":6,"time_out":false,"dwell_time":80.621826171875,"response_time":1684883179256.04},{"trial":1,"action":1,"button_pressed":9,"time_out":false,"dwell_time":80.44287109375,"response_time":1684883179589.19},{"trial":1,"action":1,"button_pressed":7,"time_out":false,"dwell_time":64.591064453125,"response_time":1684883179923.23},{"trial":1,"action":1,"button_pressed":10,"time_out":false,"dwell_time":46.8359375,"response_time":1684883180322.89},{"trial":1,"action":9,"button_pressed":-1,"time_out":false,"dwell_time":81.12890625,"response_time":1684883181189.43},{"trial":2,"action":1,"button_pressed":9,"time_out":false,"dwell_time":80.739013671875,"response_time":1684883188020.11},{"trial":2,"action":1,"button_pressed":1,"time_out":false,"dwell_time":81.483154296875,"response_time":1684883188570.5},{"trial":2,"action":9,"button_pressed":-1,"time_out":false,"dwell_time":48.359130859375,"response_time":1684883188938.03},{"trial":3,"action":1,"button_pressed":7,"time_out":false,"dwell_time":81.455078125,"response_time":1684883197734.38},{"trial":3,"action":1,"button_pressed":3,"time_out":false,"dwell_time":96.64208984375,"response_time":1684883198799.75},{"trial":3,"action":1,"button_pressed":9,"time_out":false,"dwell_time":79.864990234375,"response_time":1684883199266.34},{"trial":3,"action":1,"button_pressed":6,"time_out":false,"dwell_time":79.612060546875,"response_time":1684883200765.55},{"trial":3,"action":1,"button_pressed":11,"time_out":false,"dwell_time":82.702880859375,"response_time":1684883201199.82},{"trial":3,"action":1,"button_pressed":1,"time_out":false,"dwell_time":63.947998046875,"response_time":1684883201582.78},{"trial":3,"action":1,"button_pressed":0,"time_out":false,"dwell_time":81.359130859375,"response_time":1684883202099.39},{"trial":3,"action":1,"button_pressed":4,"time_out":false,"dwell_time":81.323974609375,"response_time":1684883202382.86},{"trial":3,"action":1,"button_pressed":2,"time_out":false,"dwell_time":80.77880859375,"response_time":1684883202749.34},{"trial":3,"action":1,"button_pressed":5,"time_out":false,"dwell_time":96.705078125,"response_time":1684883203081.8},{"trial":3,"action":1,"button_pressed":8,"time_out":false,"dwell_time":97.7568359375,"response_time":1684883203431.83},{"trial":3,"action":1,"button_pressed":10,"time_out":false,"dwell_time":80.753173828125,"response_time":1684883203782.41},{"trial":3,"action":9,"button_pressed":-1,"time_out":false,"dwell_time":81.74609375,"response_time":1684883204498.89},{"trial":4,"action":1,"button_pressed":10,"time_out":false,"dwell_time":113.933837890625,"response_time":1684883214045.86},{"trial":4,"action":1,"button_pressed":0,"time_out":false,"dwell_time":80.80712890625,"response_time":1684883214728.79},{"trial":4,"action":1,"button_pressed":6,"time_out":false,"dwell_time":63.97216796875,"response_time":1684883215211.85},{"trial":4,"action":1,"button_pressed":3,"time_out":false,"dwell_time":63.27978515625,"response_time":1684883215660.96},{"trial":4,"action":1,"button_pressed":4,"time_out":false,"dwell_time":97.5419921875,"response_time":1684883216028.4},{"trial":4,"action":1,"button_pressed":9,"time_out":false,"dwell_time":97.703857421875,"response_time":1684883216394.5},{"trial":4,"action":1,"button_pressed":1,"time_out":false,"dwell_time":81.654052734375,"response_time":1684883216811.47},{"trial":4,"action":1,"button_pressed":7,"time_out":false,"dwell_time":80.47705078125,"response_time":1684883217194.66},{"trial":4,"action":1,"button_pressed":11,"time_out":false,"dwell_time":98.10205078125,"response_time":1684883217461.24},{"trial":4,"action":1,"button_pressed":8,"time_out":false,"dwell_time":63.977783203125,"response_time":1684883218110.98},{"trial":4,"action":1,"button_pressed":5,"time_out":false,"dwell_time":80.59912109375,"response_time":1684883218510.85},{"trial":4,"action":1,"button_pressed":2,"time_out":false,"dwell_time":64.008056640625,"response_time":1684883218909.96},{"trial":4,"action":9,"button_pressed":-1,"time_out":false,"dwell_time":80.72607421875,"response_time":1684883219609.45}]}