{"meta_data":{"additional_headers":{},"game_name":"Recollect","version":"2.53.01","user_name":"105","organization":"braingamecenter","study":"mpl2_2022_11","session_number":0,"device_id":"74342D95-EE82-45E3-8ADF-48FB3203C5DD"},"data":[{"trial":0,"action":1,"button_pressed":3,"time_out":false,"dwell_time":80.9169921875,"response_time":1684951483780.1},{"trial":0,"action":1,"button_pressed":2,"time_out":false,"dwell_time":81.571044921875,"response_time":1684951484329.78},{"trial":0,"action":9,"button_pressed":-1,"time_out":false,"dwell_time":109.22900390625,"response_time":1684951484923.84},{"trial":1,"action":1,"button_pressed":2,"time_out":false,"dwell_time":64.31201171875,"response_time":1684951494642.46},{"trial":1,"action":1,"button_pressed":4,"time_out":false,"dwell_time":63.91015625,"response_time":1684951495125.48},{"trial":1,"action":1,"button_pressed":1,"time_out":false,"dwell_time":63.43115234375,"response_time":1684951495708.61},{"trial":1,"action":9,"button_pressed":-1,"time_out":false,"dwell_time":81.93505859375,"response_time":1684951496392.86},{"trial":2,"action":1,"button_pressed":11,"time_out":false,"dwell_time":81.077880859375,"response_time":1684951508538.64},{"trial":2,"action":1,"button_pressed":0,"time_out":false,"dwell_time":64.375,"response_time":1684951509154.4},{"trial":2,"action":1,"button_pressed":4,"time_out":false,"dwell_time":63.10009765625,"response_time":1684951509604.11},{"trial":2,"action":1,"button_pressed":1,"time_out":false,"dwell_time":81.474853515625,"response_time":1684951510204.55},{"trial":2,"action":9,"button_pressed":-1,"time_out":false,"dwell_time":63.961181640625,"response_time":1684951510904.27},{"trial":3,"action":1,"button_pressed":0,"time_out":false,"dwell_time":63.657958984375,"response_time":1684951525499.02},{"trial":3,"action":1,"button_pressed":7,"time_out":false,"dwell_time":64.0458984375,"response_time":1684951526448.69},{"trial":3,"action":1,"button_pressed":10,"time_out":false,"dwell_time":80.509033203125,"response_time":1684951527115.12},{"trial":3,"action":1,"button_pressed":4,"time_out":false,"dwell_time":80.81201171875,"response_time":1684951527681.57},{"trial":3,"action":1,"button_pressed":1,"time_out":false,"dwell_time":48.0068359375,"response_time":1684951528265.81},{"trial":3,"action":9,"button_pressed":-1,"time_out":false,"dwell_time":47.613037109375,"response_time":1684951529015.37},{"trial":4,"action":1,"button_pressed":1,"time_out":false,"dwell_time":64.36083984375,"response_time":1684951546242.21},{"trial":4,"action":1,"button_pressed":9,"time_out":false,"dwell_time":80.683837890625,"response_time":1684951546725.27},{"trial":4,"action":1,"button_pressed":2,"time_out":false,"dwell_time":114.87890625,"response_time":1684951547309.2},{"trial":4,"action":1,"button_pressed":8,"time_out":false,"dwell_time":63.1328125,"response_time":1684951547774.84},{"trial":4,"action":1,"button_pressed":6,"time_out":false,"dwell_time":97.87890625,"response_time":1684951548308.73},{"trial":4,"action":1,"button_pressed":11,"time_out":false,"dwell_time":63.880126953125,"response_time":1684951548775.13},{"trial":4,"action":9,"button_pressed":-1,"time_out":false,"dwell_time":113.550048828125,"response_time":1684951550824.37},{"trial":5,"action":1,"button_pressed":2,"time_out":false,"dwell_time":98.4990234375,"response_time":1684951567735.92},{"trial":5,"action":1,"button_pressed":6,"time_out":false,"dwell_time":63.7529296875,"response_time":1684951568268.83},{"trial":5,"action":1,"button_pressed":10,"time_out":false,"dwell_time":63.375,"response_time":1684951568751.41},{"trial":5,"action":1,"button_pressed":7,"time_out":false,"dwell_time":97.1640625,"response_time":1684951569301.2},{"trial":5,"action":1,"button_pressed":9,"time_out":false,"dwell_time":64.01904296875,"response_time":1684951569767.69},{"trial":5,"action":1,"button_pressed":3,"time_out":false,"dwell_time":64.072998046875,"response_time":1684951570284.84},{"trial":5,"action":9,"button_pressed":-1,"time_out":false,"dwell_time":82.239013671875,"response_time":1684951572134.83},{"trial":6,"action":1,"button_pressed":1,"time_out":false,"dwell_time":81.029052734375,"response_time":1684951591811.47},{"trial":6,"action":1,"button_pressed":9,"time_out":false,"dwell_time":80.87109375,"response_time":1684951592344.09},{"trial":6,"action":1,"button_pressed":7,"time_out":false,"dwell_time":48.001220703125,"response_time":1684951593760.5},{"trial":6,"action":1,"button_pressed":5,"time_out":false,"dwell_time":79.840087890625,"response_time":1684951595475.87},{"trial":6,"action":1,"button_pressed":11,"time_out":false,"dwell_time":96.6708984375,"response_time":1684951596175.9},{"trial":6,"action":1,"button_pressed":10,"time_out":false,"dwell_time":47.76806640625,"response_time":1684951598093.04},{"trial":6,"action":1,"button_pressed":6,"time_out":false,"dwell_time":48.511962890625,"response_time":1684951599375.77},{"trial":6,"action":9,"button_pressed":-1,"time_out":false,"dwell_time":114.677001953125,"response_time":1684951600525.49},{"trial":7,"action":1,"button_pressed":11,"time_out":false,"dwell_time":48.077880859375,"response_time":1684951621567.94},{"trial":7,"action":1,"button_pressed":7,"time_out":false,"dwell_time":63.933837890625,"response_time":1684951621967.91},{"trial":7,"action":1,"button_pressed":0,"time_out":false,"dwell_time":64.731201171875,"response_time":1684951622767.65},{"trial":7,"action":1,"button_pressed":9,"time_out":false,"dwell_time":31.15283203125,"response_time":1684951623951.11},{"trial":7,"action":1,"button_pressed":5,"time_out":false,"dwell_time":47.591796875,"response_time":1684951625167.49},{"trial":7,"action":1,"button_pressed":6,"time_out":false,"dwell_time":47.800048828125,"response_time":1684951626149.8},{"trial":7,"action":1,"button_pressed":3,"time_out":false,"dwell_time":30.541015625,"response_time":1684951627016.12},{"trial":7,"action":9,"button_pressed":-1,"time_out":false,"dwell_time":63.97705078125,"response_time":1684951628249.01},{"trial":8,"action":1,"button_pressed":5,"time_out":false,"dwell_time":64.2490234375,"response_time":1684951643211.02},{"trial":8,"action":1,"button_pressed":9,"time_out":false,"dwell_time":47.68701171875,"response_time":1684951643677.29},{"trial":8,"action":1,"button_pressed":6,"time_out":false,"dwell_time":63.8720703125,"response_time":1684951644027.33},{"trial":8,"action":1,"button_pressed":8,"time_out":false,"dwell_time":47.676025390625,"response_time":1684951644461.06},{"trial":8,"action":1,"button_pressed":7,"time_out":false,"dwell_time":80.718994140625,"response_time":1684951645059.72},{"trial":8,"action":9,"button_pressed":-1,"time_out":false,"dwell_time":64.5439453125,"response_time":1684951645827.24},{"trial":9,"action":1,"button_pressed":8,"time_out":false,"dwell_time":47.35302734375,"response_time":1684951663537.64},{"trial":9,"action":1,"button_pressed":0,"time_out":false,"dwell_time":48.10986328125,"response_time":1684951664104.69},{"trial":9,"action":1,"button_pressed":1,"time_out":false,"dwell_time":63.81689453125,"response_time":1684951664603.9},{"trial":9,"action":1,"button_pressed":9,"time_out":false,"dwell_time":63.93115234375,"response_time":1684951665137.07},{"trial":9,"action":1,"button_pressed":3,"time_out":false,"dwell_time":64.744140625,"response_time":1684951665603.61},{"trial":9,"action":1,"button_pressed":5,"time_out":false,"dwell_time":63.224853515625,"response_time":1684951666102.72},{"trial":9,"action":9,"button_pressed":-1,"time_out":false,"dwell_time":31.777099609375,"response_time":1684951666803.44},{"trial":10,"action":1,"button_pressed":5,"time_out":false,"dwell_time":80.496826171875,"response_time":1684951686379.77},{"trial":10,"action":1,"button_pressed":3,"time_out":false,"dwell_time":64.31103515625,"response_time":1684951686796.33},{"trial":10,"action":1,"button_pressed":8,"time_out":false,"dwell_time":79.8369140625,"response_time":1684951687279.18},{"trial":10,"action":1,"button_pressed":11,"time_out":false,"dwell_time":63.87109375,"response_time":1684951687862.97},{"trial":10,"action":1,"button_pressed":7,"time_out":false,"dwell_time":81.390869140625,"response_time":1684951688329.53},{"trial":10,"action":1,"button_pressed":4,"time_out":false,"dwell_time":80.6279296875,"response_time":1684951689262.51},{"trial":10,"action":1,"button_pressed":10,"time_out":false,"dwell_time":63.817138671875,"response_time":1684951689628.98},{"trial":10,"action":9,"button_pressed":-1,"time_out":false,"dwell_time":47.714111328125,"response_time":1684951690329.13},{"trial":11,"action":1,"button_pressed":3,"time_out":false,"dwell_time":81.5810546875,"response_time":1684951712488.37},{"trial":11,"action":1,"button_pressed":1,"time_out":false,"dwell_time":80.794189453125,"response_time":1684951712854.13},{"trial":11,"action":1,"button_pressed":8,"time_out":false,"dwell_time":62.970947265625,"response_time":1684951713320.63},{"trial":11,"action":1,"button_pressed":5,"time_out":false,"dwell_time":64.030029296875,"response_time":1684951713720.56},{"trial":11,"action":1,"button_pressed":7,"time_out":false,"dwell_time":64.702880859375,"response_time":1684951714254.37},{"trial":11,"action":1,"button_pressed":0,"time_out":false,"dwell_time":80.742919921875,"response_time":1684951714904.24},{"trial":11,"action":1,"button_pressed":10,"time_out":false,"dwell_time":63.843994140625,"response_time":1684951715536.49},{"trial":11,"action":1,"button_pressed":9,"time_out":false,"dwell_time":64.682861328125,"response_time":1684951715787.4},{"trial":11,"action":9,"button_pressed":-1,"time_out":false,"dwell_time":64.56103515625,"response_time":1684951717286.32},{"trial":12,"action":1,"button_pressed":2,"time_out":false,"dwell_time":97.409912109375,"response_time":1684951739396.4},{"trial":12,"action":1,"button_pressed":4,"time_out":false,"dwell_time":64.5810546875,"response_time":1684951739829.22},{"trial":12,"action":1,"button_pressed":11,"time_out":false,"dwell_time":81.12109375,"response_time":1684951740379.11},{"trial":12,"action":1,"button_pressed":6,"time_out":false,"dwell_time":47.8330078125,"response_time":1684951740862.32},{"trial":12,"action":1,"button_pressed":5,"time_out":false,"dwell_time":63.328857421875,"response_time":1684951741461.41},{"trial":12,"action":1,"button_pressed":10,"time_out":false,"dwell_time":46.878173828125,"response_time":1684951742294.82},{"trial":12,"action":1,"button_pressed":0,"time_out":false,"dwell_time":81.548828125,"response_time":1684951742911.78},{"trial":12,"action":1,"button_pressed":3,"time_out":false,"dwell_time":63.2451171875,"response_time":1684951743310.77},{"trial":12,"action":9,"button_pressed":-1,"time_out":false,"dwell_time":81.97802734375,"response_time":1684951743978.49}]}