{"meta_data":{"additional_headers":{},"game_name":"Recollect","version":"2.53.01","user_name":"107","organization":"braingamecenter","study":"mpl2_2022_11","session_number":0,"device_id":"74342D95-EE82-45E3-8ADF-48FB3203C5DD"},"data":[{"trial":0,"action":1,"button_pressed":6,"time_out":false,"dwell_time":47.93994140625,"response_time":1685056289227.73},{"trial":0,"action":1,"button_pressed":10,"time_out":false,"dwell_time":64.885009765625,"response_time":1685056289377.35},{"trial":0,"action":9,"button_pressed":-1,"time_out":false,"dwell_time":90.843994140625,"response_time":1685056289787.07},{"trial":1,"action":1,"button_pressed":1,"time_out":false,"dwell_time":81.718994140625,"response_time":1685056299024.85},{"trial":1,"action":1,"button_pressed":6,"time_out":false,"dwell_time":63.77783203125,"response_time":1685056299240.58},{"trial":1,"action":1,"button_pressed":8,"time_out":false,"dwell_time":63.302978515625,"response_time":1685056299407.19},{"trial":1,"action":9,"button_pressed":-1,"time_out":false,"dwell_time":64.60205078125,"response_time":1685056299708.25},{"trial":2,"action":1,"button_pressed":5,"time_out":false,"dwell_time":114.47412109375,"response_time":1685056311753.51},{"trial":2,"action":1,"button_pressed":7,"time_out":false,"dwell_time":64.52294921875,"response_time":1685056311920.49},{"trial":2,"action":1,"button_pressed":1,"time_out":false,"dwell_time":64.85107421875,"response_time":1685056312220.49},{"trial":2,"action":1,"button_pressed":9,"time_out":false,"dwell_time":64.760986328125,"response_time":1685056312320.45},{"trial":2,"action":9,"button_pressed":-1,"time_out":false,"dwell_time":64.709228515625,"response_time":1685056313304.04},{"trial":3,"action":1,"button_pressed":5,"time_out":false,"dwell_time":80.43994140625,"response_time":1685056327765.04},{"trial":3,"action":1,"button_pressed":6,"time_out":false,"dwell_time":79.9599609375,"response_time":1685056328148.03},{"trial":3,"action":1,"button_pressed":9,"time_out":false,"dwell_time":63.1279296875,"response_time":1685056328314.62},{"trial":3,"action":1,"button_pressed":8,"time_out":false,"dwell_time":47.89892578125,"response_time":1685056328781.61},{"trial":3,"action":1,"button_pressed":7,"time_out":false,"dwell_time":30.31787109375,"response_time":1685056329014.9},{"trial":3,"action":9,"button_pressed":-1,"time_out":false,"dwell_time":80.60302734375,"response_time":1685056329714.58},{"trial":4,"action":1,"button_pressed":8,"time_out":false,"dwell_time":80.8330078125,"response_time":1685056344593.62},{"trial":4,"action":1,"button_pressed":1,"time_out":false,"dwell_time":97.43798828125,"response_time":1685056345359.82},{"trial":4,"action":1,"button_pressed":1,"time_out":false,"dwell_time":47.344970703125,"response_time":1685056346159.4},{"trial":4,"action":1,"button_pressed":1,"time_out":false,"dwell_time":47.93896484375,"response_time":1685056347125.59},{"trial":4,"action":1,"button_pressed":1,"time_out":false,"dwell_time":64.248046875,"response_time":1685056347742.52},{"trial":4,"action":1,"button_pressed":1,"time_out":false,"dwell_time":47.257080078125,"response_time":1685056348059.2},{"trial":4,"action":1,"button_pressed":1,"time_out":false,"dwell_time":131.14892578125,"response_time":1685056348275.19},{"trial":4,"action":1,"button_pressed":1,"time_out":false,"dwell_time":30.6201171875,"response_time":1685056348525.24},{"trial":4,"action":1,"button_pressed":1,"time_out":false,"dwell_time":48.843994140625,"response_time":1685056349025.9},{"trial":4,"action":1,"button_pressed":1,"time_out":false,"dwell_time":63.31005859375,"response_time":1685056349140.61},{"trial":4,"action":1,"button_pressed":1,"time_out":false,"dwell_time":81.5419921875,"response_time":1685056349240.89},{"trial":4,"action":1,"button_pressed":1,"time_out":false,"dwell_time":147.5068359375,"response_time":1685056349458.47},{"trial":4,"action":1,"button_pressed":1,"time_out":false,"dwell_time":64.09716796875,"response_time":1685056349774.98},{"trial":4,"action":1,"button_pressed":1,"time_out":false,"dwell_time":64.925048828125,"response_time":1685056349908.46},{"trial":4,"action":0,"button_pressed":-1,"time_out":false,"dwell_time":97.180908203125,"response_time":1685056350141.25},{"trial":4,"action":1,"button_pressed":8,"time_out":false,"dwell_time":63.125,"response_time":1685056350840.61},{"trial":4,"action":1,"button_pressed":4,"time_out":false,"dwell_time":47.234130859375,"response_time":1685056351374.34},{"trial":4,"action":1,"button_pressed":1,"time_out":false,"dwell_time":64.097900390625,"response_time":1685056351623.76},{"trial":4,"action":1,"button_pressed":5,"time_out":false,"dwell_time":114.10693359375,"response_time":1685056351956.95},{"trial":4,"action":1,"button_pressed":3,"time_out":false,"dwell_time":64.239013671875,"response_time":1685056352157.06},{"trial":4,"action":9,"button_pressed":-1,"time_out":false,"dwell_time":64.702880859375,"response_time":1685056353607.59},{"trial":5,"action":1,"button_pressed":6,"time_out":false,"dwell_time":81.782958984375,"response_time":1685056371301.75},{"trial":5,"action":1,"button_pressed":5,"time_out":false,"dwell_time":115.030029296875,"response_time":1685056371651.7},{"trial":5,"action":1,"button_pressed":0,"time_out":false,"dwell_time":64.113037109375,"response_time":1685056371784.9},{"trial":5,"action":1,"button_pressed":11,"time_out":false,"dwell_time":62.5791015625,"response_time":1685056372134.24},{"trial":5,"action":1,"button_pressed":8,"time_out":false,"dwell_time":63.948974609375,"response_time":1685056372350.43},{"trial":5,"action":1,"button_pressed":4,"time_out":false,"dwell_time":47.869140625,"response_time":1685056372684.11},{"trial":5,"action":9,"button_pressed":-1,"time_out":false,"dwell_time":16.64306640625,"response_time":1685056373333.61},{"trial":6,"action":1,"button_pressed":3,"time_out":false,"dwell_time":31.315185546875,"response_time":1685056393145.06},{"trial":6,"action":1,"button_pressed":8,"time_out":false,"dwell_time":80.656005859375,"response_time":1685056393727.58},{"trial":6,"action":1,"button_pressed":10,"time_out":false,"dwell_time":81.56494140625,"response_time":1685056394544.05},{"trial":6,"action":1,"button_pressed":5,"time_out":false,"dwell_time":81.298095703125,"response_time":1685056395043.82},{"trial":6,"action":1,"button_pressed":4,"time_out":false,"dwell_time":47.14990234375,"response_time":1685056395476.77},{"trial":6,"action":1,"button_pressed":1,"time_out":false,"dwell_time":48.64208984375,"response_time":1685056396027.29},{"trial":6,"action":1,"button_pressed":2,"time_out":false,"dwell_time":81.365966796875,"response_time":1685056396493.39},{"trial":6,"action":9,"button_pressed":-1,"time_out":false,"dwell_time":65.06787109375,"response_time":1685056397576.52},{"trial":7,"action":1,"button_pressed":7,"time_out":false,"dwell_time":64.534912109375,"response_time":1685056417903.47},{"trial":7,"action":1,"button_pressed":11,"time_out":false,"dwell_time":47.74609375,"response_time":1685056418153.58},{"trial":7,"action":1,"button_pressed":0,"time_out":false,"dwell_time":47.825927734375,"response_time":1685056418986.36},{"trial":7,"action":1,"button_pressed":3,"time_out":false,"dwell_time":47.745849609375,"response_time":1685056419286.53},{"trial":7,"action":1,"button_pressed":5,"time_out":false,"dwell_time":97.419921875,"response_time":1685056419769.26},{"trial":7,"action":1,"button_pressed":6,"time_out":false,"dwell_time":30.406982421875,"response_time":1685056420235.52},{"trial":7,"action":1,"button_pressed":4,"time_out":false,"dwell_time":31.548095703125,"response_time":1685056422368.25},{"trial":7,"action":9,"button_pressed":-1,"time_out":false,"dwell_time":81.77197265625,"response_time":1685056422418.47},{"trial":8,"action":1,"button_pressed":9,"time_out":false,"dwell_time":48.717041015625,"response_time":1685056437480.83},{"trial":8,"action":1,"button_pressed":0,"time_out":false,"dwell_time":31.39404296875,"response_time":1685056437779.87},{"trial":8,"action":1,"button_pressed":2,"time_out":false,"dwell_time":47.989990234375,"response_time":1685056438096.56},{"trial":8,"action":1,"button_pressed":1,"time_out":false,"dwell_time":47.945068359375,"response_time":1685056438862.77},{"trial":8,"action":1,"button_pressed":6,"time_out":false,"dwell_time":63.580078125,"response_time":1685056439212.23},{"trial":8,"action":9,"button_pressed":-1,"time_out":false,"dwell_time":31.594970703125,"response_time":1685056440213.54},{"trial":9,"action":1,"button_pressed":2,"time_out":false,"dwell_time":81.2138671875,"response_time":1685056457657.39},{"trial":9,"action":1,"button_pressed":7,"time_out":false,"dwell_time":64.599853515625,"response_time":1685056457990.4},{"trial":9,"action":1,"button_pressed":10,"time_out":false,"dwell_time":114.907958984375,"response_time":1685056458490.29},{"trial":9,"action":1,"button_pressed":9,"time_out":false,"dwell_time":64.593994140625,"response_time":1685056458906.56},{"trial":9,"action":1,"button_pressed":3,"time_out":false,"dwell_time":48.134765625,"response_time":1685056459240.49},{"trial":9,"action":9,"button_pressed":-1,"time_out":false,"dwell_time":64.068115234375,"response_time":1685056459589.74},{"trial":10,"action":1,"button_pressed":0,"time_out":false,"dwell_time":32.087890625,"response_time":1685056477151.31},{"trial":10,"action":1,"button_pressed":4,"time_out":false,"dwell_time":30.47705078125,"response_time":1685056477517.12},{"trial":10,"action":1,"button_pressed":11,"time_out":false,"dwell_time":48.705078125,"response_time":1685056477851.23},{"trial":10,"action":1,"button_pressed":3,"time_out":false,"dwell_time":30.468994140625,"response_time":1685056478233.46},{"trial":10,"action":1,"button_pressed":5,"time_out":false,"dwell_time":64.02197265625,"response_time":1685056479099.45},{"trial":10,"action":1,"button_pressed":7,"time_out":false,"dwell_time":47.756103515625,"response_time":1685056479500.53},{"trial":10,"action":9,"button_pressed":-1,"time_out":false,"dwell_time":16.634033203125,"response_time":1685056480016.02},{"trial":11,"action":1,"button_pressed":0,"time_out":false,"dwell_time":64.031982421875,"response_time":1685056500026.53},{"trial":11,"action":1,"button_pressed":8,"time_out":false,"dwell_time":63.259033203125,"response_time":1685056500525.92},{"trial":11,"action":1,"button_pressed":5,"time_out":false,"dwell_time":31.1220703125,"response_time":1685056500809.65},{"trial":11,"action":1,"button_pressed":9,"time_out":false,"dwell_time":64.487060546875,"response_time":1685056503675.49},{"trial":11,"action":1,"button_pressed":10,"time_out":false,"dwell_time":130.58203125,"response_time":1685056504125.48},{"trial":11,"action":1,"button_pressed":2,"time_out":false,"dwell_time":80.56494140625,"response_time":1685056504658.37},{"trial":11,"action":9,"button_pressed":-1,"time_out":false,"dwell_time":65.301025390625,"response_time":1685056505458.71},{"trial":12,"action":1,"button_pressed":4,"time_out":false,"dwell_time":47.856201171875,"response_time":1685056525819.12},{"trial":12,"action":1,"button_pressed":9,"time_out":false,"dwell_time":80.8388671875,"response_time":1685056526167.82},{"trial":12,"action":1,"button_pressed":7,"time_out":false,"dwell_time":64.14599609375,"response_time":1685056527051.46},{"trial":12,"action":0,"button_pressed":-1,"time_out":false,"dwell_time":97.90380859375,"response_time":1685056530016.65},{"trial":12,"action":1,"button_pressed":4,"time_out":false,"dwell_time":63.85205078125,"response_time":1685056530783.49},{"trial":12,"action":1,"button_pressed":9,"time_out":false,"dwell_time":63.947021484375,"response_time":1685056531266.78},{"trial":12,"action":1,"button_pressed":1,"time_out":false,"dwell_time":64.1708984375,"response_time":1685056532115.89},{"trial":12,"action":1,"button_pressed":7,"time_out":false,"dwell_time":63.85205078125,"response_time":1685056532566.23},{"trial":12,"action":1,"button_pressed":11,"time_out":false,"dwell_time":81.306884765625,"response_time":1685056532933},{"trial":12,"action":1,"button_pressed":6,"time_out":false,"dwell_time":48.6240234375,"response_time":1685056533366.68},{"trial":12,"action":1,"button_pressed":8,"time_out":false,"dwell_time":64.22802734375,"response_time":1685056533848.87},{"trial":12,"action":9,"button_pressed":-1,"time_out":false,"dwell_time":48.77197265625,"response_time":1685056536082.86}]}