{"meta_data":{"additional_headers":{},"game_name":"Recollect","version":"2.53.01","user_name":"108","organization":"braingamecenter","study":"mpl2_2022_11","session_number":0,"device_id":"74342D95-EE82-45E3-8ADF-48FB3203C5DD"},"data":[{"trial":0,"action":1,"button_pressed":11,"time_out":false,"dwell_time":63.9921875,"response_time":1685144607877.74},{"trial":0,"action":1,"button_pressed":8,"time_out":false,"dwell_time":47.7421875,"response_time":1685144608361.51},{"trial":0,"action":9,"button_pressed":-1,"time_out":false,"dwell_time":92.231201171875,"response_time":1685144609522.11},{"trial":1,"action":1,"button_pressed":8,"time_out":false,"dwell_time":47.298828125,"response_time":1685144618807.36},{"trial":1,"action":1,"button_pressed":11,"time_out":false,"dwell_time":80.838134765625,"response_time":1685144619306.7},{"trial":1,"action":1,"button_pressed":5,"time_out":false,"dwell_time":63.506103515625,"response_time":1685144619806.61},{"trial":1,"action":9,"button_pressed":-1,"time_out":false,"dwell_time":98.543212890625,"response_time":1685144621090.62},{"trial":2,"action":1,"button_pressed":5,"time_out":false,"dwell_time":81.89697265625,"response_time":1685144633169.62},{"trial":2,"action":1,"button_pressed":7,"time_out":false,"dwell_time":81.468017578125,"response_time":1685144634135.71},{"trial":2,"action":1,"button_pressed":1,"time_out":false,"dwell_time":47.066162109375,"response_time":1685144634452.02},{"trial":2,"action":1,"button_pressed":9,"time_out":false,"dwell_time":47.567138671875,"response_time":1685144635102.35},{"trial":2,"action":9,"button_pressed":-1,"time_out":false,"dwell_time":98.133056640625,"response_time":1685144635784.98},{"trial":3,"action":1,"button_pressed":9,"time_out":false,"dwell_time":64.927978515625,"response_time":1685144650346.88},{"trial":3,"action":1,"button_pressed":0,"time_out":false,"dwell_time":47.1669921875,"response_time":1685144652895.74},{"trial":3,"action":1,"button_pressed":2,"time_out":false,"dwell_time":46.93798828125,"response_time":1685144653345.54},{"trial":3,"action":1,"button_pressed":1,"time_out":false,"dwell_time":80.7880859375,"response_time":1685144654128.9},{"trial":3,"action":1,"button_pressed":6,"time_out":false,"dwell_time":97.4501953125,"response_time":1685144654495.63},{"trial":3,"action":9,"button_pressed":-1,"time_out":false,"dwell_time":81.321044921875,"response_time":1685144655178.34},{"trial":4,"action":1,"button_pressed":0,"time_out":false,"dwell_time":81.89697265625,"response_time":1685144672273.05},{"trial":4,"action":1,"button_pressed":4,"time_out":false,"dwell_time":47.89794921875,"response_time":1685144672639.82},{"trial":4,"action":1,"button_pressed":11,"time_out":false,"dwell_time":47.553955078125,"response_time":1685144673122.26},{"trial":4,"action":1,"button_pressed":3,"time_out":false,"dwell_time":47.991943359375,"response_time":1685144673538.78},{"trial":4,"action":1,"button_pressed":5,"time_out":false,"dwell_time":47.81591796875,"response_time":1685144673955.41},{"trial":4,"action":1,"button_pressed":7,"time_out":false,"dwell_time":47.85791015625,"response_time":1685144674455.14},{"trial":4,"action":9,"button_pressed":-1,"time_out":false,"dwell_time":80.68994140625,"response_time":1685144676137.99},{"trial":5,"action":1,"button_pressed":10,"time_out":false,"dwell_time":47.964111328125,"response_time":1685144695632.25},{"trial":5,"action":1,"button_pressed":5,"time_out":false,"dwell_time":63.322021484375,"response_time":1685144696880.49},{"trial":5,"action":1,"button_pressed":3,"time_out":false,"dwell_time":81.43310546875,"response_time":1685144697514.33},{"trial":5,"action":1,"button_pressed":0,"time_out":false,"dwell_time":80.89404296875,"response_time":1685144698164.25},{"trial":5,"action":1,"button_pressed":4,"time_out":false,"dwell_time":48.050048828125,"response_time":1685144698447.17},{"trial":5,"action":1,"button_pressed":1,"time_out":false,"dwell_time":64.094970703125,"response_time":1685144699229.71},{"trial":5,"action":1,"button_pressed":2,"time_out":false,"dwell_time":47.77099609375,"response_time":1685144699613.96},{"trial":5,"action":9,"button_pressed":-1,"time_out":false,"dwell_time":80.64111328125,"response_time":1685144704295.19},{"trial":6,"action":1,"button_pressed":6,"time_out":false,"dwell_time":80.552001953125,"response_time":1685144723954.78},{"trial":6,"action":1,"button_pressed":10,"time_out":false,"dwell_time":97.419921875,"response_time":1685144724421.42},{"trial":6,"action":1,"button_pressed":11,"time_out":false,"dwell_time":80.822021484375,"response_time":1685144724705.34},{"trial":6,"action":1,"button_pressed":3,"time_out":false,"dwell_time":80.948974609375,"response_time":1685144725288.57},{"trial":6,"action":1,"button_pressed":4,"time_out":false,"dwell_time":64.373046875,"response_time":1685144725737.67},{"trial":6,"action":1,"button_pressed":0,"time_out":false,"dwell_time":97.403076171875,"response_time":1685144726237.37},{"trial":6,"action":1,"button_pressed":5,"time_out":false,"dwell_time":96.907958984375,"response_time":1685144726654.65},{"trial":6,"action":1,"button_pressed":8,"time_out":false,"dwell_time":47.776123046875,"response_time":1685144729071.1},{"trial":6,"action":1,"button_pressed":8,"time_out":false,"dwell_time":63.31005859375,"response_time":1685144730336.07},{"trial":6,"action":9,"button_pressed":-1,"time_out":false,"dwell_time":113.906982421875,"response_time":1685144731852.68},{"trial":7,"action":1,"button_pressed":4,"time_out":false,"dwell_time":80.10693359375,"response_time":1685144752129.36},{"trial":7,"action":1,"button_pressed":6,"time_out":false,"dwell_time":80.6640625,"response_time":1685144752395.89},{"trial":7,"action":1,"button_pressed":3,"time_out":false,"dwell_time":81.030029296875,"response_time":1685144752695.26},{"trial":7,"action":1,"button_pressed":10,"time_out":false,"dwell_time":79.7529296875,"response_time":1685144753111.3},{"trial":7,"action":1,"button_pressed":0,"time_out":false,"dwell_time":97.258056640625,"response_time":1685144753445.53},{"trial":7,"action":1,"button_pressed":9,"time_out":false,"dwell_time":80.710205078125,"response_time":1685144753844.66},{"trial":7,"action":9,"button_pressed":-1,"time_out":false,"dwell_time":82.638916015625,"response_time":1685144755745.69},{"trial":8,"action":1,"button_pressed":8,"time_out":false,"dwell_time":64.350830078125,"response_time":1685144770672.47},{"trial":8,"action":1,"button_pressed":1,"time_out":false,"dwell_time":81.13916015625,"response_time":1685144771522.63},{"trial":8,"action":1,"button_pressed":4,"time_out":false,"dwell_time":80.3720703125,"response_time":1685144771872.19},{"trial":8,"action":1,"button_pressed":3,"time_out":false,"dwell_time":47.093994140625,"response_time":1685144772138.86},{"trial":8,"action":1,"button_pressed":5,"time_out":false,"dwell_time":80.862060546875,"response_time":1685144772505.85},{"trial":8,"action":9,"button_pressed":-1,"time_out":false,"dwell_time":97.169189453125,"response_time":1685144774188.19}]}