{"meta_data":{"additional_headers":{},"game_name":"Recollect","version":"2.53.01","user_name":"109","organization":"braingamecenter","study":"mpl2_2022_11","session_number":0,"device_id":"74342D95-EE82-45E3-8ADF-48FB3203C5DD"},"data":[{"trial":0,"action":1,"button_pressed":6,"time_out":false,"dwell_time":47.990966796875,"response_time":1685489582669.08},{"trial":0,"action":1,"button_pressed":10,"time_out":false,"dwell_time":63.81494140625,"response_time":1685489583168.17},{"trial":0,"action":9,"button_pressed":-1,"time_out":false,"dwell_time":27.554931640625,"response_time":1685489583962.37},{"trial":1,"action":1,"button_pressed":11,"time_out":false,"dwell_time":64.281982421875,"response_time":1685489594698.59},{"trial":1,"action":1,"button_pressed":2,"time_out":false,"dwell_time":81.491943359375,"response_time":1685489595364.95},{"trial":1,"action":1,"button_pressed":9,"time_out":false,"dwell_time":30.309814453125,"response_time":1685489595881.17},{"trial":1,"action":9,"button_pressed":-1,"time_out":false,"dwell_time":16.662109375,"response_time":1685489596547.35},{"trial":2,"action":1,"button_pressed":6,"time_out":false,"dwell_time":64.839111328125,"response_time":1685489608727.36},{"trial":2,"action":1,"button_pressed":8,"time_out":false,"dwell_time":63.159912109375,"response_time":1685489609276.28},{"trial":2,"action":1,"button_pressed":11,"time_out":false,"dwell_time":47.697998046875,"response_time":1685489609843.33},{"trial":2,"action":1,"button_pressed":7,"time_out":false,"dwell_time":47.56201171875,"response_time":1685489610110.58},{"trial":2,"action":9,"button_pressed":-1,"time_out":false,"dwell_time":48.52099609375,"response_time":1685489611493.91},{"trial":3,"action":1,"button_pressed":10,"time_out":false,"dwell_time":47.3349609375,"response_time":1685489626254.75},{"trial":3,"action":1,"button_pressed":5,"time_out":false,"dwell_time":81.487060546875,"response_time":1685489626721.42},{"trial":3,"action":1,"button_pressed":3,"time_out":false,"dwell_time":81.52099609375,"response_time":1685489627204.59},{"trial":3,"action":1,"button_pressed":6,"time_out":false,"dwell_time":63.0068359375,"response_time":1685489627470.43},{"trial":3,"action":1,"button_pressed":2,"time_out":false,"dwell_time":63.47607421875,"response_time":1685489627936.99},{"trial":3,"action":9,"button_pressed":-1,"time_out":false,"dwell_time":81.2451171875,"response_time":1685489630354},{"trial":4,"action":1,"button_pressed":5,"time_out":false,"dwell_time":81.0400390625,"response_time":1685489648081.28},{"trial":4,"action":1,"button_pressed":10,"time_out":false,"dwell_time":64.723876953125,"response_time":1685489648464.29},{"trial":4,"action":1,"button_pressed":7,"time_out":false,"dwell_time":64.376953125,"response_time":1685489648897.49},{"trial":4,"action":1,"button_pressed":4,"time_out":false,"dwell_time":64.781005859375,"response_time":1685489649330.69},{"trial":4,"action":1,"button_pressed":0,"time_out":false,"dwell_time":64.239990234375,"response_time":1685489649613.39},{"trial":4,"action":1,"button_pressed":8,"time_out":false,"dwell_time":64.497802734375,"response_time":1685489650013.82},{"trial":4,"action":9,"button_pressed":-1,"time_out":false,"dwell_time":48.506103515625,"response_time":1685489650647.96},{"trial":5,"action":1,"button_pressed":9,"time_out":false,"dwell_time":80.848876953125,"response_time":1685489671840.35},{"trial":5,"action":1,"button_pressed":7,"time_out":false,"dwell_time":47.794921875,"response_time":1685489672323.07},{"trial":5,"action":1,"button_pressed":4,"time_out":false,"dwell_time":97.12890625,"response_time":1685489672889.36},{"trial":5,"action":1,"button_pressed":1,"time_out":false,"dwell_time":96.886962890625,"response_time":1685489673505.73},{"trial":5,"action":1,"button_pressed":11,"time_out":false,"dwell_time":98.201171875,"response_time":1685489674172.64},{"trial":5,"action":1,"button_pressed":6,"time_out":false,"dwell_time":46.802978515625,"response_time":1685489674622.11},{"trial":5,"action":1,"button_pressed":8,"time_out":false,"dwell_time":63.85205078125,"response_time":1685489675071.6},{"trial":5,"action":9,"button_pressed":-1,"time_out":false,"dwell_time":80.8759765625,"response_time":1685489675721.87},{"trial":6,"action":1,"button_pressed":8,"time_out":false,"dwell_time":64.3701171875,"response_time":1685489698730.92},{"trial":6,"action":1,"button_pressed":6,"time_out":false,"dwell_time":63.880859375,"response_time":1685489699431.18},{"trial":6,"action":1,"button_pressed":5,"time_out":false,"dwell_time":80.766845703125,"response_time":1685489700164.32},{"trial":6,"action":1,"button_pressed":0,"time_out":false,"dwell_time":97.323974609375,"response_time":1685489700864},{"trial":6,"action":1,"button_pressed":11,"time_out":false,"dwell_time":47.465087890625,"response_time":1685489705478.65},{"trial":6,"action":1,"button_pressed":1,"time_out":false,"dwell_time":13.655029296875,"response_time":1685489707644.78},{"trial":6,"action":1,"button_pressed":2,"time_out":false,"dwell_time":48.736083984375,"response_time":1685489708128.76},{"trial":6,"action":9,"button_pressed":-1,"time_out":false,"dwell_time":81.3740234375,"response_time":1685489709345.06},{"trial":7,"action":1,"button_pressed":9,"time_out":false,"dwell_time":48.660888671875,"response_time":1685489732454.28},{"trial":7,"action":1,"button_pressed":7,"time_out":false,"dwell_time":63.191162109375,"response_time":1685489733185.97},{"trial":7,"action":1,"button_pressed":3,"time_out":false,"dwell_time":114.0849609375,"response_time":1685489734785.53},{"trial":7,"action":1,"button_pressed":10,"time_out":false,"dwell_time":80.2578125,"response_time":1685489735451.99},{"trial":7,"action":1,"button_pressed":4,"time_out":false,"dwell_time":97.763916015625,"response_time":1685489736168.74},{"trial":7,"action":1,"button_pressed":8,"time_out":false,"dwell_time":63.175048828125,"response_time":1685489736668.21},{"trial":7,"action":1,"button_pressed":5,"time_out":false,"dwell_time":63.2568359375,"response_time":1685489737051.46},{"trial":7,"action":1,"button_pressed":11,"time_out":false,"dwell_time":29.93994140625,"response_time":1685489737668.35},{"trial":7,"action":9,"button_pressed":-1,"time_out":false,"dwell_time":115.35302734375,"response_time":1685489738818.85},{"trial":8,"action":1,"button_pressed":7,"time_out":false,"dwell_time":80.703125,"response_time":1685489757328.97},{"trial":8,"action":1,"button_pressed":4,"time_out":false,"dwell_time":113.35888671875,"response_time":1685489765009.09},{"trial":8,"action":1,"button_pressed":3,"time_out":false,"dwell_time":63.37890625,"response_time":1685489767974.71},{"trial":8,"action":1,"button_pressed":10,"time_out":false,"dwell_time":63.89794921875,"response_time":1685489768575.15},{"trial":8,"action":1,"button_pressed":5,"time_out":false,"dwell_time":48.548095703125,"response_time":1685489769525.37},{"trial":8,"action":0,"button_pressed":-1,"time_out":false,"dwell_time":115.18017578125,"response_time":1685489775672.94},{"trial":8,"action":1,"button_pressed":3,"time_out":false,"dwell_time":63.303955078125,"response_time":1685489778288.03},{"trial":8,"action":1,"button_pressed":7,"time_out":false,"dwell_time":47.904052734375,"response_time":1685489778738.36},{"trial":8,"action":1,"button_pressed":4,"time_out":false,"dwell_time":64.0341796875,"response_time":1685489779288.35},{"trial":8,"action":1,"button_pressed":10,"time_out":false,"dwell_time":64.0400390625,"response_time":1685489779704.28},{"trial":8,"action":1,"button_pressed":5,"time_out":false,"dwell_time":47.65087890625,"response_time":1685489780755.01},{"trial":8,"action":1,"button_pressed":0,"time_out":false,"dwell_time":64.89990234375,"response_time":1685489781154.46},{"trial":8,"action":9,"button_pressed":-1,"time_out":false,"dwell_time":49.172119140625,"response_time":1685489782521.63},{"trial":9,"action":1,"button_pressed":1,"time_out":false,"dwell_time":65.0478515625,"response_time":1685489799815.17},{"trial":9,"action":1,"button_pressed":9,"time_out":false,"dwell_time":64.760009765625,"response_time":1685489800198.24},{"trial":9,"action":1,"button_pressed":5,"time_out":false,"dwell_time":64.81201171875,"response_time":1685489800598.15},{"trial":9,"action":1,"button_pressed":6,"time_out":false,"dwell_time":64.68505859375,"response_time":1685489801147.96},{"trial":9,"action":1,"button_pressed":7,"time_out":false,"dwell_time":47.990966796875,"response_time":1685489801397.75},{"trial":9,"action":1,"button_pressed":2,"time_out":false,"dwell_time":64.76708984375,"response_time":1685489801964.3},{"trial":9,"action":9,"button_pressed":-1,"time_out":false,"dwell_time":16.666015625,"response_time":1685489802397},{"trial":10,"action":1,"button_pressed":6,"time_out":false,"dwell_time":47.929931640625,"response_time":1685489822241.69},{"trial":10,"action":1,"button_pressed":10,"time_out":false,"dwell_time":63.626953125,"response_time":1685489823490.16},{"trial":10,"action":1,"button_pressed":11,"time_out":false,"dwell_time":64.132080078125,"response_time":1685489823956.48},{"trial":10,"action":1,"button_pressed":4,"time_out":false,"dwell_time":63.97998046875,"response_time":1685489824439.63},{"trial":10,"action":1,"button_pressed":8,"time_out":false,"dwell_time":63.849853515625,"response_time":1685489824806.21},{"trial":10,"action":1,"button_pressed":3,"time_out":false,"dwell_time":63.822998046875,"response_time":1685489825206.76},{"trial":10,"action":1,"button_pressed":5,"time_out":false,"dwell_time":47.7509765625,"response_time":1685489825573.04},{"trial":10,"action":9,"button_pressed":-1,"time_out":false,"dwell_time":80.73779296875,"response_time":1685489826822.8},{"trial":11,"action":1,"button_pressed":7,"time_out":false,"dwell_time":81.5380859375,"response_time":1685489849299.12},{"trial":11,"action":1,"button_pressed":5,"time_out":false,"dwell_time":47.81005859375,"response_time":1685489850065.12},{"trial":11,"action":1,"button_pressed":1,"time_out":false,"dwell_time":81.4521484375,"response_time":1685489850915.1},{"trial":11,"action":0,"button_pressed":-1,"time_out":false,"dwell_time":63.556884765625,"response_time":1685489856346.03},{"trial":11,"action":1,"button_pressed":7,"time_out":false,"dwell_time":64.4150390625,"response_time":1685489856946.43},{"trial":11,"action":1,"button_pressed":5,"time_out":false,"dwell_time":64.758056640625,"response_time":1685489857596.16},{"trial":11,"action":1,"button_pressed":3,"time_out":false,"dwell_time":64.09716796875,"response_time":1685489858112.69},{"trial":11,"action":1,"button_pressed":1,"time_out":false,"dwell_time":47.219970703125,"response_time":1685489858395.8},{"trial":11,"action":1,"button_pressed":10,"time_out":false,"dwell_time":64.43798828125,"response_time":1685489858862.51},{"trial":11,"action":1,"button_pressed":2,"time_out":false,"dwell_time":64.22314453125,"response_time":1685489859245.09},{"trial":11,"action":1,"button_pressed":4,"time_out":false,"dwell_time":31.6669921875,"response_time":1685489859529.88},{"trial":11,"action":9,"button_pressed":-1,"time_out":false,"dwell_time":64.781982421875,"response_time":1685489862511.1},{"trial":12,"action":1,"button_pressed":8,"time_out":false,"dwell_time":97.75390625,"response_time":1685489885336.81},{"trial":12,"action":1,"button_pressed":9,"time_out":false,"dwell_time":63.882080078125,"response_time":1685489885737.05},{"trial":12,"action":1,"button_pressed":10,"time_out":false,"dwell_time":64.10107421875,"response_time":1685489886169.67},{"trial":12,"action":1,"button_pressed":2,"time_out":false,"dwell_time":114.156005859375,"response_time":1685489887070.14},{"trial":12,"action":1,"button_pressed":1,"time_out":false,"dwell_time":81.47705078125,"response_time":1685489888536.22},{"trial":12,"action":1,"button_pressed":4,"time_out":false,"dwell_time":81.52587890625,"response_time":1685489888852.96},{"trial":12,"action":1,"button_pressed":0,"time_out":false,"dwell_time":64.384033203125,"response_time":1685489889052.18},{"trial":12,"action":1,"button_pressed":5,"time_out":false,"dwell_time":47.8349609375,"response_time":1685489889319.16},{"trial":12,"action":9,"button_pressed":-1,"time_out":false,"dwell_time":16.77685546875,"response_time":1685489891351.53}]}