{"meta_data":{"additional_headers":{},"game_name":"Recollect","version":"2.53.01","user_name":"110","organization":"braingamecenter","study":"mpl2_2022_11","session_number":0,"device_id":"74342D95-EE82-45E3-8ADF-48FB3203C5DD"},"data":[{"trial":0,"action":1,"button_pressed":11,"time_out":false,"dwell_time":47.078125,"response_time":1685558082179.73},{"trial":0,"action":1,"button_pressed":8,"time_out":false,"dwell_time":63.85009765625,"response_time":1685558082696.27},{"trial":0,"action":9,"button_pressed":-1,"time_out":false,"dwell_time":108.23486328125,"response_time":1685558084655.71},{"trial":1,"action":1,"button_pressed":6,"time_out":false,"dwell_time":47.2890625,"response_time":1685558094375.89},{"trial":1,"action":1,"button_pressed":5,"time_out":false,"dwell_time":98.044921875,"response_time":1685558095075.61},{"trial":1,"action":1,"button_pressed":4,"time_out":false,"dwell_time":62.797119140625,"response_time":1685558095457.05},{"trial":1,"action":9,"button_pressed":-1,"time_out":false,"dwell_time":64.490966796875,"response_time":1685558096425.65},{"trial":2,"action":1,"button_pressed":2,"time_out":false,"dwell_time":64.43701171875,"response_time":1685558108470.82},{"trial":2,"action":1,"button_pressed":4,"time_out":false,"dwell_time":47.890869140625,"response_time":1685558108771.67},{"trial":2,"action":1,"button_pressed":10,"time_out":false,"dwell_time":47.763916015625,"response_time":1685558109071.62},{"trial":2,"action":1,"button_pressed":5,"time_out":false,"dwell_time":97.48388671875,"response_time":1685558109470.28},{"trial":2,"action":9,"button_pressed":-1,"time_out":false,"dwell_time":81.343017578125,"response_time":1685558110054.64},{"trial":3,"action":1,"button_pressed":7,"time_out":false,"dwell_time":30.994873046875,"response_time":1685558125432.37},{"trial":3,"action":1,"button_pressed":4,"time_out":false,"dwell_time":48.8388671875,"response_time":1685558125899.74},{"trial":3,"action":1,"button_pressed":3,"time_out":false,"dwell_time":47.11083984375,"response_time":1685558126198.69},{"trial":3,"action":1,"button_pressed":11,"time_out":false,"dwell_time":31.337890625,"response_time":1685558126582.03},{"trial":3,"action":1,"button_pressed":3,"time_out":false,"dwell_time":47.887939453125,"response_time":1685558132246.68},{"trial":3,"action":1,"button_pressed":11,"time_out":false,"dwell_time":47.817138671875,"response_time":1685558132997.16},{"trial":3,"action":1,"button_pressed":11,"time_out":false,"dwell_time":31.233154296875,"response_time":1685558133630.29},{"trial":3,"action":0,"button_pressed":-1,"time_out":false,"dwell_time":97.948974609375,"response_time":1685558135362.32},{"trial":3,"action":1,"button_pressed":7,"time_out":false,"dwell_time":64.176025390625,"response_time":1685558136028.65},{"trial":3,"action":1,"button_pressed":4,"time_out":false,"dwell_time":64.052978515625,"response_time":1685558136444.84},{"trial":3,"action":1,"button_pressed":11,"time_out":false,"dwell_time":30.2978515625,"response_time":1685558136861.73},{"trial":3,"action":1,"button_pressed":3,"time_out":false,"dwell_time":13.931884765625,"response_time":1685558137195.08},{"trial":3,"action":1,"button_pressed":10,"time_out":false,"dwell_time":31.2919921875,"response_time":1685558138461.37},{"trial":3,"action":9,"button_pressed":-1,"time_out":false,"dwell_time":48.3740234375,"response_time":1685558139178.1},{"trial":4,"action":1,"button_pressed":8,"time_out":false,"dwell_time":80.30908203125,"response_time":1685558157205.05},{"trial":4,"action":1,"button_pressed":0,"time_out":false,"dwell_time":47.18994140625,"response_time":1685558157621.72},{"trial":4,"action":1,"button_pressed":1,"time_out":false,"dwell_time":98.27001953125,"response_time":1685558158105.29},{"trial":4,"action":1,"button_pressed":9,"time_out":false,"dwell_time":80.614990234375,"response_time":1685558158504.33},{"trial":4,"action":1,"button_pressed":3,"time_out":false,"dwell_time":64.614013671875,"response_time":1685558158938.07},{"trial":4,"action":1,"button_pressed":5,"time_out":false,"dwell_time":31.257080078125,"response_time":1685558159971.65},{"trial":4,"action":9,"button_pressed":-1,"time_out":false,"dwell_time":47.842041015625,"response_time":1685558160688},{"trial":5,"action":1,"button_pressed":11,"time_out":false,"dwell_time":79.971923828125,"response_time":1685558180863.89},{"trial":5,"action":1,"button_pressed":4,"time_out":false,"dwell_time":80.699951171875,"response_time":1685558181614.18},{"trial":5,"action":1,"button_pressed":3,"time_out":false,"dwell_time":14.559814453125,"response_time":1685558182164.37},{"trial":5,"action":1,"button_pressed":10,"time_out":false,"dwell_time":80.73388671875,"response_time":1685558182829.78},{"trial":5,"action":1,"button_pressed":2,"time_out":false,"dwell_time":47.972900390625,"response_time":1685558183297.43},{"trial":5,"action":1,"button_pressed":8,"time_out":false,"dwell_time":80.425048828125,"response_time":1685558183812.69},{"trial":5,"action":1,"button_pressed":1,"time_out":false,"dwell_time":97.406005859375,"response_time":1685558184379.9},{"trial":5,"action":9,"button_pressed":-1,"time_out":false,"dwell_time":98.652099609375,"response_time":1685558185646.56},{"trial":6,"action":1,"button_pressed":10,"time_out":false,"dwell_time":47.593994140625,"response_time":1685558213653.85},{"trial":6,"action":1,"button_pressed":2,"time_out":false,"dwell_time":98.248046875,"response_time":1685558214070.26},{"trial":6,"action":1,"button_pressed":1,"time_out":false,"dwell_time":13.4169921875,"response_time":1685558214552.88},{"trial":6,"action":1,"button_pressed":9,"time_out":false,"dwell_time":64.4140625,"response_time":1685558215069.84},{"trial":6,"action":1,"button_pressed":8,"time_out":false,"dwell_time":47.711181640625,"response_time":1685558215503.64},{"trial":6,"action":1,"button_pressed":4,"time_out":false,"dwell_time":48.782958984375,"response_time":1685558216470.07},{"trial":6,"action":1,"button_pressed":11,"time_out":false,"dwell_time":80.849853515625,"response_time":1685558216918.68},{"trial":6,"action":1,"button_pressed":5,"time_out":false,"dwell_time":47.205078125,"response_time":1685558217702.12},{"trial":6,"action":9,"button_pressed":-1,"time_out":false,"dwell_time":80.446044921875,"response_time":1685558219035.06},{"trial":7,"action":1,"button_pressed":8,"time_out":false,"dwell_time":96.639892578125,"response_time":1685558242177.31},{"trial":7,"action":1,"button_pressed":1,"time_out":false,"dwell_time":98.1650390625,"response_time":1685558242660.95},{"trial":7,"action":1,"button_pressed":3,"time_out":false,"dwell_time":63.98095703125,"response_time":1685558242977.62},{"trial":7,"action":1,"button_pressed":3,"time_out":false,"dwell_time":81.008056640625,"response_time":1685558247792.73},{"trial":7,"action":0,"button_pressed":-1,"time_out":false,"dwell_time":64.324951171875,"response_time":1685558248708.29},{"trial":7,"action":1,"button_pressed":8,"time_out":false,"dwell_time":96.753173828125,"response_time":1685558249324.86},{"trial":7,"action":1,"button_pressed":1,"time_out":false,"dwell_time":129.788818359375,"response_time":1685558250907.48},{"trial":7,"action":1,"button_pressed":3,"time_out":false,"dwell_time":97.9140625,"response_time":1685558251458.02},{"trial":7,"action":1,"button_pressed":5,"time_out":false,"dwell_time":130.681884765625,"response_time":1685558252791.03},{"trial":7,"action":1,"button_pressed":7,"time_out":false,"dwell_time":30.155029296875,"response_time":1685558254190.12},{"trial":7,"action":1,"button_pressed":2,"time_out":false,"dwell_time":12.758056640625,"response_time":1685558254872.36},{"trial":7,"action":1,"button_pressed":10,"time_out":false,"dwell_time":64.51904296875,"response_time":1685558255789.86},{"trial":7,"action":9,"button_pressed":-1,"time_out":false,"dwell_time":49.849853515625,"response_time":1685558258240.67},{"trial":8,"action":1,"button_pressed":0,"time_out":false,"dwell_time":48.156982421875,"response_time":1685558275434.25},{"trial":8,"action":1,"button_pressed":4,"time_out":false,"dwell_time":47.677978515625,"response_time":1685558275667.25},{"trial":8,"action":1,"button_pressed":11,"time_out":false,"dwell_time":64.012939453125,"response_time":1685558276033.39},{"trial":8,"action":1,"button_pressed":3,"time_out":false,"dwell_time":47.117919921875,"response_time":1685558276532.94},{"trial":8,"action":1,"button_pressed":5,"time_out":false,"dwell_time":131.363037109375,"response_time":1685558277033.1},{"trial":8,"action":1,"button_pressed":7,"time_out":false,"dwell_time":47.7890625,"response_time":1685558277633.28},{"trial":8,"action":9,"button_pressed":-1,"time_out":false,"dwell_time":49.321044921875,"response_time":1685558279849.72},{"trial":9,"action":1,"button_pressed":5,"time_out":false,"dwell_time":115.13818359375,"response_time":1685558303457.97},{"trial":9,"action":1,"button_pressed":3,"time_out":false,"dwell_time":81.65380859375,"response_time":1685558305457.28},{"trial":9,"action":1,"button_pressed":8,"time_out":false,"dwell_time":114.81103515625,"response_time":1685558305873.87},{"trial":9,"action":1,"button_pressed":9,"time_out":false,"dwell_time":47.45703125,"response_time":1685558306190.65},{"trial":9,"action":1,"button_pressed":11,"time_out":false,"dwell_time":29.98095703125,"response_time":1685558306556.33},{"trial":9,"action":1,"button_pressed":7,"time_out":false,"dwell_time":47.031005859375,"response_time":1685558306923.14},{"trial":9,"action":1,"button_pressed":4,"time_out":false,"dwell_time":30.544189453125,"response_time":1685558307389.57},{"trial":9,"action":1,"button_pressed":10,"time_out":false,"dwell_time":30.4150390625,"response_time":1685558307739.45},{"trial":9,"action":9,"button_pressed":-1,"time_out":false,"dwell_time":114.5439453125,"response_time":1685558308939.66},{"trial":10,"action":1,"button_pressed":0,"time_out":false,"dwell_time":81.826171875,"response_time":1685558331198.94},{"trial":10,"action":1,"button_pressed":8,"time_out":false,"dwell_time":63.968994140625,"response_time":1685558331564.5},{"trial":10,"action":1,"button_pressed":5,"time_out":false,"dwell_time":47.9228515625,"response_time":1685558331865.63},{"trial":10,"action":1,"button_pressed":6,"time_out":false,"dwell_time":49.5439453125,"response_time":1685558333165.13},{"trial":10,"action":1,"button_pressed":10,"time_out":false,"dwell_time":63.286865234375,"response_time":1685558336479.49},{"trial":10,"action":1,"button_pressed":2,"time_out":false,"dwell_time":48.009033203125,"response_time":1685558336829.96},{"trial":10,"action":1,"button_pressed":9,"time_out":false,"dwell_time":30.4658203125,"response_time":1685558337263.19},{"trial":10,"action":9,"button_pressed":-1,"time_out":false,"dwell_time":148.177978515625,"response_time":1685558339296.64},{"trial":11,"action":1,"button_pressed":7,"time_out":false,"dwell_time":64.072998046875,"response_time":1685558361388.95},{"trial":11,"action":1,"button_pressed":5,"time_out":false,"dwell_time":48.1259765625,"response_time":1685558362172.66},{"trial":11,"action":1,"button_pressed":3,"time_out":false,"dwell_time":97.9580078125,"response_time":1685558362571.95},{"trial":11,"action":1,"button_pressed":4,"time_out":false,"dwell_time":64.282958984375,"response_time":1685558362838.07},{"trial":11,"action":1,"button_pressed":1,"time_out":false,"dwell_time":30.763916015625,"response_time":1685558363671.44},{"trial":11,"action":1,"button_pressed":10,"time_out":false,"dwell_time":81.69287109375,"response_time":1685558364071.67},{"trial":11,"action":1,"button_pressed":2,"time_out":false,"dwell_time":80.97412109375,"response_time":1685558364488.1},{"trial":11,"action":1,"button_pressed":8,"time_out":false,"dwell_time":64.72998046875,"response_time":1685558364771.2},{"trial":11,"action":9,"button_pressed":-1,"time_out":false,"dwell_time":49.1689453125,"response_time":1685558365188.6},{"trial":12,"action":1,"button_pressed":5,"time_out":false,"dwell_time":48.324951171875,"response_time":1685558390629.23},{"trial":12,"action":1,"button_pressed":4,"time_out":false,"dwell_time":30.3701171875,"response_time":1685558391078.88},{"trial":12,"action":1,"button_pressed":8,"time_out":false,"dwell_time":64.947021484375,"response_time":1685558391379.21},{"trial":12,"action":1,"button_pressed":1,"time_out":false,"dwell_time":48.0361328125,"response_time":1685558393045.22},{"trial":12,"action":1,"button_pressed":10,"time_out":false,"dwell_time":47.6650390625,"response_time":1685558393945.34},{"trial":12,"action":1,"button_pressed":2,"time_out":false,"dwell_time":30.4169921875,"response_time":1685558394394.44},{"trial":12,"action":1,"button_pressed":7,"time_out":false,"dwell_time":47.448974609375,"response_time":1685558394861.69},{"trial":12,"action":9,"button_pressed":-1,"time_out":false,"dwell_time":64.52001953125,"response_time":1685558395377.45},{"trial":13,"action":1,"button_pressed":8,"time_out":false,"dwell_time":81.49609375,"response_time":1685558425351.54},{"trial":13,"action":1,"button_pressed":7,"time_out":false,"dwell_time":80.52294921875,"response_time":1685558425883.73},{"trial":13,"action":1,"button_pressed":6,"time_out":false,"dwell_time":64.511962890625,"response_time":1685558426184.41},{"trial":13,"action":1,"button_pressed":10,"time_out":false,"dwell_time":47.60986328125,"response_time":1685558426483.92},{"trial":13,"action":1,"button_pressed":4,"time_out":false,"dwell_time":80.56494140625,"response_time":1685558426883.41},{"trial":13,"action":1,"button_pressed":1,"time_out":false,"dwell_time":64.141845703125,"response_time":1685558427500.75},{"trial":13,"action":1,"button_pressed":11,"time_out":false,"dwell_time":64.60400390625,"response_time":1685558431032.78},{"trial":13,"action":1,"button_pressed":3,"time_out":false,"dwell_time":30.989013671875,"response_time":1685558432432.81},{"trial":13,"action":1,"button_pressed":5,"time_out":false,"dwell_time":30.345947265625,"response_time":1685558432831.85},{"trial":13,"action":9,"button_pressed":-1,"time_out":true,"dwell_time":10042.666015625,"response_time":1685558442844.17}]}