{"meta_data":{"additional_headers":{},"game_name":"Recollect","version":"2.53.01","user_name":"111","organization":"braingamecenter","study":"mpl2_2022_11","session_number":0,"device_id":"74342D95-EE82-45E3-8ADF-48FB3203C5DD"},"data":[{"trial":0,"action":1,"button_pressed":10,"time_out":false,"dwell_time":30.69384765625,"response_time":1685569807012.02},{"trial":0,"action":1,"button_pressed":7,"time_out":false,"dwell_time":47.800048828125,"response_time":1685569807712.34},{"trial":0,"action":9,"button_pressed":-1,"time_out":false,"dwell_time":75.7880859375,"response_time":1685569808355.91},{"trial":1,"action":1,"button_pressed":0,"time_out":false,"dwell_time":48.989990234375,"response_time":1685569818859.12},{"trial":1,"action":1,"button_pressed":10,"time_out":false,"dwell_time":63.918212890625,"response_time":1685569819491.24},{"trial":1,"action":1,"button_pressed":11,"time_out":false,"dwell_time":47.919921875,"response_time":1685569820174.15},{"trial":1,"action":9,"button_pressed":-1,"time_out":false,"dwell_time":16.743896484375,"response_time":1685569824139.24},{"trial":2,"action":1,"button_pressed":7,"time_out":false,"dwell_time":48.760009765625,"response_time":1685569836886.11},{"trial":2,"action":1,"button_pressed":9,"time_out":false,"dwell_time":81.444091796875,"response_time":1685569837368.69},{"trial":2,"action":1,"button_pressed":0,"time_out":false,"dwell_time":63.349853515625,"response_time":1685569837867.78},{"trial":2,"action":1,"button_pressed":4,"time_out":false,"dwell_time":64.22998046875,"response_time":1685569838235.09},{"trial":2,"action":9,"button_pressed":-1,"time_out":false,"dwell_time":65.005859375,"response_time":1685569838735.16},{"trial":3,"action":1,"button_pressed":7,"time_out":false,"dwell_time":47.968017578125,"response_time":1685569853663.87},{"trial":3,"action":1,"button_pressed":4,"time_out":false,"dwell_time":81.4228515625,"response_time":1685569854163.04},{"trial":3,"action":1,"button_pressed":11,"time_out":false,"dwell_time":64.68701171875,"response_time":1685569854662.84},{"trial":3,"action":1,"button_pressed":3,"time_out":false,"dwell_time":64.5849609375,"response_time":1685569855179.26},{"trial":3,"action":1,"button_pressed":10,"time_out":false,"dwell_time":64.583984375,"response_time":1685569855679.09},{"trial":3,"action":9,"button_pressed":-1,"time_out":false,"dwell_time":64.580078125,"response_time":1685569856362.69},{"trial":4,"action":1,"button_pressed":1,"time_out":false,"dwell_time":47.784912109375,"response_time":1685569873906.36},{"trial":4,"action":1,"button_pressed":9,"time_out":false,"dwell_time":64.473876953125,"response_time":1685569874356.28},{"trial":4,"action":1,"button_pressed":5,"time_out":false,"dwell_time":81.177001953125,"response_time":1685569874922.79},{"trial":4,"action":1,"button_pressed":6,"time_out":false,"dwell_time":63.906982421875,"response_time":1685569875371.87},{"trial":4,"action":1,"button_pressed":7,"time_out":false,"dwell_time":63.90380859375,"response_time":1685569875639.2},{"trial":4,"action":1,"button_pressed":2,"time_out":false,"dwell_time":64.75390625,"response_time":1685569876122.29},{"trial":4,"action":9,"button_pressed":-1,"time_out":false,"dwell_time":48.489990234375,"response_time":1685569876539.17},{"trial":5,"action":1,"button_pressed":2,"time_out":false,"dwell_time":81.3330078125,"response_time":1685569896615.38},{"trial":5,"action":1,"button_pressed":6,"time_out":false,"dwell_time":63.265869140625,"response_time":1685569897198.04},{"trial":5,"action":1,"button_pressed":9,"time_out":false,"dwell_time":63.675048828125,"response_time":1685569897381.68},{"trial":5,"action":1,"button_pressed":0,"time_out":false,"dwell_time":63.9501953125,"response_time":1685569897947.73},{"trial":5,"action":1,"button_pressed":10,"time_out":false,"dwell_time":64.089111328125,"response_time":1685569898281.65},{"trial":5,"action":1,"button_pressed":7,"time_out":false,"dwell_time":30.35888671875,"response_time":1685569898681.21},{"trial":5,"action":9,"button_pressed":-1,"time_out":false,"dwell_time":49.02587890625,"response_time":1685569899815.36},{"trial":6,"action":1,"button_pressed":4,"time_out":false,"dwell_time":48.226806640625,"response_time":1685569919824.49},{"trial":6,"action":1,"button_pressed":2,"time_out":false,"dwell_time":47.94482421875,"response_time":1685569920091.68},{"trial":6,"action":1,"button_pressed":6,"time_out":false,"dwell_time":62.401123046875,"response_time":1685569920457.17},{"trial":6,"action":9,"button_pressed":-1,"time_out":false,"dwell_time":63.662109375,"response_time":1685569920458.44},{"trial":7,"action":1,"button_pressed":6,"time_out":false,"dwell_time":81.498046875,"response_time":1685569935619.4},{"trial":7,"action":1,"button_pressed":3,"time_out":false,"dwell_time":64.68408203125,"response_time":1685569935919.33},{"trial":7,"action":1,"button_pressed":8,"time_out":false,"dwell_time":63.10107421875,"response_time":1685569936401.67},{"trial":7,"action":1,"button_pressed":11,"time_out":false,"dwell_time":31.092041015625,"response_time":1685569937452.42},{"trial":7,"action":1,"button_pressed":0,"time_out":false,"dwell_time":31.2138671875,"response_time":1685569938035.66},{"trial":7,"action":9,"button_pressed":-1,"time_out":false,"dwell_time":65.39404296875,"response_time":1685569938418.9},{"trial":8,"action":1,"button_pressed":7,"time_out":false,"dwell_time":47.7587890625,"response_time":1685569955995.43},{"trial":8,"action":1,"button_pressed":3,"time_out":false,"dwell_time":63.451904296875,"response_time":1685569956544.91},{"trial":8,"action":1,"button_pressed":8,"time_out":false,"dwell_time":64.248046875,"response_time":1685569956928.4},{"trial":8,"action":1,"button_pressed":0,"time_out":false,"dwell_time":80.7509765625,"response_time":1685569957411.95},{"trial":8,"action":1,"button_pressed":4,"time_out":false,"dwell_time":80.60693359375,"response_time":1685569957745.31},{"trial":8,"action":1,"button_pressed":1,"time_out":false,"dwell_time":14.248046875,"response_time":1685569958161.11},{"trial":8,"action":9,"button_pressed":-1,"time_out":false,"dwell_time":64.819091796875,"response_time":1685569961310.45},{"trial":9,"action":1,"button_pressed":3,"time_out":false,"dwell_time":30.866943359375,"response_time":1685569981420.6},{"trial":9,"action":1,"button_pressed":5,"time_out":false,"dwell_time":46.760986328125,"response_time":1685569981936.79},{"trial":9,"action":1,"button_pressed":8,"time_out":false,"dwell_time":47.715087890625,"response_time":1685569983520.35},{"trial":9,"action":1,"button_pressed":11,"time_out":false,"dwell_time":48.723876953125,"response_time":1685569984220.21},{"trial":9,"action":1,"button_pressed":4,"time_out":false,"dwell_time":63.943115234375,"response_time":1685569984736.1},{"trial":9,"action":1,"button_pressed":7,"time_out":false,"dwell_time":64.91796875,"response_time":1685569985486.14},{"trial":9,"action":1,"button_pressed":10,"time_out":false,"dwell_time":31.197021484375,"response_time":1685569985902.96},{"trial":9,"action":9,"button_pressed":-1,"time_out":false,"dwell_time":63.97998046875,"response_time":1685569986751.9},{"trial":10,"action":1,"button_pressed":7,"time_out":false,"dwell_time":47.932861328125,"response_time":1685570006978.5},{"trial":10,"action":1,"button_pressed":11,"time_out":false,"dwell_time":47.294189453125,"response_time":1685570007228.47},{"trial":10,"action":1,"button_pressed":0,"time_out":false,"dwell_time":98.125,"response_time":1685570008411.55},{"trial":10,"action":1,"button_pressed":3,"time_out":false,"dwell_time":64.704833984375,"response_time":1685570009011.27},{"trial":10,"action":1,"button_pressed":9,"time_out":false,"dwell_time":48.537109375,"response_time":1685570009395.06},{"trial":10,"action":1,"button_pressed":5,"time_out":false,"dwell_time":64.84814453125,"response_time":1685570010027.62},{"trial":10,"action":1,"button_pressed":6,"time_out":false,"dwell_time":47.51904296875,"response_time":1685570010611.32},{"trial":10,"action":9,"button_pressed":-1,"time_out":false,"dwell_time":30.8701171875,"response_time":1685570013876.47},{"trial":11,"action":1,"button_pressed":1,"time_out":false,"dwell_time":48.216796875,"response_time":1685570036485.31},{"trial":11,"action":1,"button_pressed":10,"time_out":false,"dwell_time":47.695068359375,"response_time":1685570038101.79},{"trial":11,"action":1,"button_pressed":2,"time_out":false,"dwell_time":81.044921875,"response_time":1685570038684.87},{"trial":11,"action":1,"button_pressed":0,"time_out":false,"dwell_time":64.072021484375,"response_time":1685570039051.23},{"trial":11,"action":1,"button_pressed":7,"time_out":false,"dwell_time":64.1162109375,"response_time":1685570039601.03},{"trial":11,"action":1,"button_pressed":4,"time_out":false,"dwell_time":31.31494140625,"response_time":1685570040134.78},{"trial":11,"action":9,"button_pressed":-1,"time_out":false,"dwell_time":81.567138671875,"response_time":1685570041751.18},{"trial":12,"action":1,"button_pressed":2,"time_out":false,"dwell_time":81.373046875,"response_time":1685570064459.05},{"trial":12,"action":1,"button_pressed":4,"time_out":false,"dwell_time":80.81103515625,"response_time":1685570064892.93},{"trial":12,"action":1,"button_pressed":11,"time_out":false,"dwell_time":80.761962890625,"response_time":1685570065592.58},{"trial":12,"action":1,"button_pressed":6,"time_out":false,"dwell_time":80.555908203125,"response_time":1685570065958.18},{"trial":12,"action":1,"button_pressed":0,"time_out":false,"dwell_time":63.843017578125,"response_time":1685570068323.97},{"trial":12,"action":1,"button_pressed":5,"time_out":false,"dwell_time":47.77880859375,"response_time":1685570068875.11},{"trial":12,"action":1,"button_pressed":3,"time_out":false,"dwell_time":30.3759765625,"response_time":1685570069840.87},{"trial":12,"action":9,"button_pressed":-1,"time_out":false,"dwell_time":64.7919921875,"response_time":1685570073422.93}]}