{"meta_data":{"additional_headers":{},"game_name":"Recollect","version":"2.53.01","user_name":"114","organization":"braingamecenter","study":"mpl2_2022_11","session_number":0,"device_id":"74342D95-EE82-45E3-8ADF-48FB3203C5DD"},"data":[{"trial":0,"action":1,"button_pressed":2,"time_out":false,"dwell_time":64.868896484375,"response_time":1686171143755.73},{"trial":0,"action":1,"button_pressed":9,"time_out":false,"dwell_time":64.10107421875,"response_time":1686171144038.22},{"trial":0,"action":9,"button_pressed":-1,"time_out":false,"dwell_time":90.70703125,"response_time":1686171144464.63},{"trial":1,"action":1,"button_pressed":5,"time_out":false,"dwell_time":98.448974609375,"response_time":1686171154035.72},{"trial":1,"action":1,"button_pressed":8,"time_out":false,"dwell_time":63.9609375,"response_time":1686171154518.03},{"trial":1,"action":1,"button_pressed":0,"time_out":false,"dwell_time":113.406005859375,"response_time":1686171154884.68},{"trial":1,"action":9,"button_pressed":-1,"time_out":false,"dwell_time":16.666015625,"response_time":1686171155384.67},{"trial":2,"action":1,"button_pressed":0,"time_out":false,"dwell_time":114.2978515625,"response_time":1686171167198.11},{"trial":2,"action":1,"button_pressed":10,"time_out":false,"dwell_time":63.669189453125,"response_time":1686171168197.54},{"trial":2,"action":1,"button_pressed":2,"time_out":false,"dwell_time":64.634033203125,"response_time":1686171168580.8},{"trial":2,"action":1,"button_pressed":6,"time_out":false,"dwell_time":47.81396484375,"response_time":1686171169380.31},{"trial":2,"action":9,"button_pressed":-1,"time_out":false,"dwell_time":16.614013671875,"response_time":1686171170413.12},{"trial":3,"action":1,"button_pressed":5,"time_out":false,"dwell_time":114.200927734375,"response_time":1686171184992.26},{"trial":3,"action":1,"button_pressed":9,"time_out":false,"dwell_time":80.755126953125,"response_time":1686171185607.89},{"trial":3,"action":1,"button_pressed":6,"time_out":false,"dwell_time":131.39794921875,"response_time":1686171186041.82},{"trial":3,"action":1,"button_pressed":8,"time_out":false,"dwell_time":46.90185546875,"response_time":1686171186274.86},{"trial":3,"action":1,"button_pressed":7,"time_out":false,"dwell_time":97.30810546875,"response_time":1686171186658.35},{"trial":3,"action":9,"button_pressed":-1,"time_out":false,"dwell_time":81.324951171875,"response_time":1686171187141.18},{"trial":4,"action":1,"button_pressed":1,"time_out":false,"dwell_time":80.3798828125,"response_time":1686171204118.73},{"trial":4,"action":1,"button_pressed":9,"time_out":false,"dwell_time":15.281005859375,"response_time":1686171204836.14},{"trial":4,"action":1,"button_pressed":5,"time_out":false,"dwell_time":80.7509765625,"response_time":1686171205434.68},{"trial":4,"action":1,"button_pressed":6,"time_out":false,"dwell_time":30.23095703125,"response_time":1686171205951.69},{"trial":4,"action":1,"button_pressed":7,"time_out":false,"dwell_time":31.02490234375,"response_time":1686171206518.82},{"trial":4,"action":1,"button_pressed":2,"time_out":false,"dwell_time":80.820068359375,"response_time":1686171207618.11},{"trial":4,"action":9,"button_pressed":-1,"time_out":false,"dwell_time":114.26416015625,"response_time":1686171208151.35},{"trial":5,"action":1,"button_pressed":0,"time_out":false,"dwell_time":114.974853515625,"response_time":1686171227878.28},{"trial":5,"action":1,"button_pressed":8,"time_out":false,"dwell_time":31.078857421875,"response_time":1686171228295.15},{"trial":5,"action":1,"button_pressed":5,"time_out":false,"dwell_time":63.1640625,"response_time":1686171228877.02},{"trial":5,"action":1,"button_pressed":4,"time_out":false,"dwell_time":63.862060546875,"response_time":1686171229544.11},{"trial":5,"action":1,"button_pressed":6,"time_out":false,"dwell_time":98.032958984375,"response_time":1686171230176.66},{"trial":5,"action":1,"button_pressed":2,"time_out":false,"dwell_time":80.422119140625,"response_time":1686171230660.56},{"trial":5,"action":1,"button_pressed":10,"time_out":false,"dwell_time":99.40185546875,"response_time":1686171231076.32},{"trial":5,"action":9,"button_pressed":-1,"time_out":false,"dwell_time":147.595947265625,"response_time":1686171233459.69},{"trial":6,"action":1,"button_pressed":1,"time_out":false,"dwell_time":48.016845703125,"response_time":1686171253453.64},{"trial":6,"action":1,"button_pressed":9,"time_out":false,"dwell_time":63.294921875,"response_time":1686171253885.76},{"trial":6,"action":1,"button_pressed":7,"time_out":false,"dwell_time":47.93798828125,"response_time":1686171255169.73},{"trial":6,"action":1,"button_pressed":2,"time_out":false,"dwell_time":30.406005859375,"response_time":1686171255951.92},{"trial":6,"action":1,"button_pressed":5,"time_out":false,"dwell_time":64.745849609375,"response_time":1686171256385.39},{"trial":6,"action":1,"button_pressed":11,"time_out":false,"dwell_time":30.56103515625,"response_time":1686171257218.38},{"trial":6,"action":9,"button_pressed":-1,"time_out":false,"dwell_time":63.928955078125,"response_time":1686171258451.2},{"trial":7,"action":1,"button_pressed":1,"time_out":false,"dwell_time":30.600830078125,"response_time":1686171273479.72},{"trial":7,"action":1,"button_pressed":10,"time_out":false,"dwell_time":80.554931640625,"response_time":1686171273912.28},{"trial":7,"action":1,"button_pressed":0,"time_out":false,"dwell_time":64.739990234375,"response_time":1686171274512.84},{"trial":7,"action":1,"button_pressed":9,"time_out":false,"dwell_time":64.429931640625,"response_time":1686171275012.63},{"trial":7,"action":1,"button_pressed":5,"time_out":false,"dwell_time":48.1240234375,"response_time":1686171275912.42},{"trial":7,"action":9,"button_pressed":-1,"time_out":false,"dwell_time":47.8359375,"response_time":1686171276312.62},{"trial":8,"action":1,"button_pressed":11,"time_out":false,"dwell_time":81.31494140625,"response_time":1686171293456.83},{"trial":8,"action":1,"button_pressed":6,"time_out":false,"dwell_time":47.81298828125,"response_time":1686171293773.76},{"trial":8,"action":1,"button_pressed":8,"time_out":false,"dwell_time":80.697998046875,"response_time":1686171294772.94},{"trial":8,"action":1,"button_pressed":4,"time_out":false,"dwell_time":63.992919921875,"response_time":1686171295222.75},{"trial":8,"action":1,"button_pressed":1,"time_out":false,"dwell_time":47.68603515625,"response_time":1686171295705.64},{"trial":8,"action":1,"button_pressed":10,"time_out":false,"dwell_time":63.75,"response_time":1686171296255.81},{"trial":8,"action":9,"button_pressed":-1,"time_out":false,"dwell_time":48.39892578125,"response_time":1686171296906.5},{"trial":9,"action":1,"button_pressed":3,"time_out":false,"dwell_time":80.31298828125,"response_time":1686171313999.54},{"trial":9,"action":1,"button_pressed":7,"time_out":false,"dwell_time":64.080078125,"response_time":1686171314399.26},{"trial":9,"action":1,"button_pressed":4,"time_out":false,"dwell_time":64.727783203125,"response_time":1686171314932.92},{"trial":9,"action":1,"button_pressed":10,"time_out":false,"dwell_time":48.365966796875,"response_time":1686171315283.32},{"trial":9,"action":1,"button_pressed":2,"time_out":false,"dwell_time":47.85009765625,"response_time":1686171315749.13},{"trial":9,"action":1,"button_pressed":9,"time_out":false,"dwell_time":81.473876953125,"response_time":1686171316232.64},{"trial":9,"action":9,"button_pressed":-1,"time_out":false,"dwell_time":49.0458984375,"response_time":1686171316983.25},{"trial":10,"action":1,"button_pressed":4,"time_out":false,"dwell_time":49.34814453125,"response_time":1686171336360.15},{"trial":10,"action":1,"button_pressed":2,"time_out":false,"dwell_time":64.794189453125,"response_time":1686171336775.93},{"trial":10,"action":1,"button_pressed":6,"time_out":false,"dwell_time":46.931884765625,"response_time":1686171337991.9},{"trial":10,"action":1,"button_pressed":8,"time_out":false,"dwell_time":63.927001953125,"response_time":1686171338492.16},{"trial":10,"action":1,"button_pressed":1,"time_out":false,"dwell_time":46.48681640625,"response_time":1686171339074.72},{"trial":10,"action":1,"button_pressed":9,"time_out":false,"dwell_time":81.202880859375,"response_time":1686171339758.39},{"trial":10,"action":1,"button_pressed":0,"time_out":false,"dwell_time":31.171142578125,"response_time":1686171340341.96},{"trial":10,"action":9,"button_pressed":-1,"time_out":false,"dwell_time":49.149169921875,"response_time":1686171340775.56},{"trial":11,"action":1,"button_pressed":10,"time_out":false,"dwell_time":47.01806640625,"response_time":1686171362867.23},{"trial":11,"action":1,"button_pressed":2,"time_out":false,"dwell_time":47.800048828125,"response_time":1686171363433.49},{"trial":11,"action":1,"button_pressed":4,"time_out":false,"dwell_time":64.174072265625,"response_time":1686171364149.59},{"trial":11,"action":1,"button_pressed":8,"time_out":false,"dwell_time":64.126953125,"response_time":1686171364732.68},{"trial":11,"action":1,"button_pressed":1,"time_out":false,"dwell_time":47.84716796875,"response_time":1686171366949.86},{"trial":11,"action":1,"button_pressed":3,"time_out":false,"dwell_time":64.62890625,"response_time":1686171367515.75},{"trial":11,"action":1,"button_pressed":9,"time_out":false,"dwell_time":97.100830078125,"response_time":1686171369231.2},{"trial":11,"action":1,"button_pressed":5,"time_out":false,"dwell_time":64.06396484375,"response_time":1686171369781.67},{"trial":11,"action":9,"button_pressed":-1,"time_out":false,"dwell_time":64.054931640625,"response_time":1686171371414.64},{"trial":12,"action":1,"button_pressed":7,"time_out":false,"dwell_time":64.20703125,"response_time":1686171393723.37},{"trial":12,"action":1,"button_pressed":9,"time_out":false,"dwell_time":97.18505859375,"response_time":1686171394139.71},{"trial":12,"action":1,"button_pressed":11,"time_out":false,"dwell_time":97.466064453125,"response_time":1686171395139.48},{"trial":12,"action":1,"button_pressed":3,"time_out":false,"dwell_time":64.77099609375,"response_time":1686171395856.5},{"trial":12,"action":1,"button_pressed":4,"time_out":false,"dwell_time":80.68212890625,"response_time":1686171396772.94},{"trial":12,"action":1,"button_pressed":2,"time_out":false,"dwell_time":81.385009765625,"response_time":1686171397556.02},{"trial":12,"action":1,"button_pressed":8,"time_out":false,"dwell_time":81.590087890625,"response_time":1686171397973.05},{"trial":12,"action":1,"button_pressed":1,"time_out":false,"dwell_time":62.9150390625,"response_time":1686171398404.49},{"trial":12,"action":9,"button_pressed":-1,"time_out":false,"dwell_time":49.2099609375,"response_time":1686171398773.19}]}