{"meta_data":{"additional_headers":{},"game_name":"Recollect","version":"2.53.01","user_name":"117","organization":"braingamecenter","study":"mpl2_2022_11","session_number":0,"device_id":"74342D95-EE82-45E3-8ADF-48FB3203C5DD"},"data":[{"trial":0,"action":1,"button_pressed":1,"time_out":false,"dwell_time":64.36083984375,"response_time":1689021784892.2},{"trial":0,"action":1,"button_pressed":5,"time_out":false,"dwell_time":64.179931640625,"response_time":1689021785575.98},{"trial":0,"action":9,"button_pressed":-1,"time_out":false,"dwell_time":74.72314453125,"response_time":1689021786552.83},{"trial":1,"action":1,"button_pressed":2,"time_out":false,"dwell_time":63.530029296875,"response_time":1689021796221.82},{"trial":1,"action":1,"button_pressed":4,"time_out":false,"dwell_time":80.8779296875,"response_time":1689021796738.29},{"trial":1,"action":1,"button_pressed":1,"time_out":false,"dwell_time":47.244140625,"response_time":1689021797338.49},{"trial":1,"action":9,"button_pressed":-1,"time_out":false,"dwell_time":64.495849609375,"response_time":1689021798072.21},{"trial":2,"action":1,"button_pressed":11,"time_out":false,"dwell_time":64.309814453125,"response_time":1689021810483.88},{"trial":2,"action":1,"button_pressed":0,"time_out":false,"dwell_time":63.94189453125,"response_time":1689021811050.9},{"trial":2,"action":1,"button_pressed":4,"time_out":false,"dwell_time":63.367919921875,"response_time":1689021811350.06},{"trial":2,"action":1,"button_pressed":1,"time_out":false,"dwell_time":47.078125,"response_time":1689021811950.3},{"trial":2,"action":9,"button_pressed":-1,"time_out":false,"dwell_time":47.90087890625,"response_time":1689021812650.79},{"trial":3,"action":1,"button_pressed":0,"time_out":false,"dwell_time":30.552978515625,"response_time":1689021827378.68},{"trial":3,"action":1,"button_pressed":7,"time_out":false,"dwell_time":47.06298828125,"response_time":1689021828211.64},{"trial":3,"action":1,"button_pressed":10,"time_out":false,"dwell_time":97.77392578125,"response_time":1689021828878.46},{"trial":3,"action":1,"button_pressed":4,"time_out":false,"dwell_time":47.239013671875,"response_time":1689021829394.67},{"trial":3,"action":1,"button_pressed":1,"time_out":false,"dwell_time":47.945068359375,"response_time":1689021829994.38},{"trial":3,"action":9,"button_pressed":-1,"time_out":false,"dwell_time":81.452880859375,"response_time":1689021830927.48},{"trial":4,"action":1,"button_pressed":9,"time_out":false,"dwell_time":31.39208984375,"response_time":1689021848072.59},{"trial":4,"action":1,"button_pressed":1,"time_out":false,"dwell_time":31.22998046875,"response_time":1689021848671.54},{"trial":4,"action":1,"button_pressed":2,"time_out":false,"dwell_time":47.174072265625,"response_time":1689021849337.96},{"trial":4,"action":1,"button_pressed":8,"time_out":false,"dwell_time":97.174072265625,"response_time":1689021849854.82},{"trial":4,"action":1,"button_pressed":6,"time_out":false,"dwell_time":63.114990234375,"response_time":1689021850353.89},{"trial":4,"action":1,"button_pressed":11,"time_out":false,"dwell_time":63.972900390625,"response_time":1689021850787.81},{"trial":4,"action":9,"button_pressed":-1,"time_out":false,"dwell_time":80.540771484375,"response_time":1689021851870.51},{"trial":5,"action":1,"button_pressed":3,"time_out":false,"dwell_time":65.215087890625,"response_time":1689021871564.44},{"trial":5,"action":1,"button_pressed":0,"time_out":false,"dwell_time":47.151123046875,"response_time":1689021871980.55},{"trial":5,"action":1,"button_pressed":10,"time_out":false,"dwell_time":63.2900390625,"response_time":1689021872496.6},{"trial":5,"action":1,"button_pressed":5,"time_out":false,"dwell_time":47.175048828125,"response_time":1689021872980.19},{"trial":5,"action":1,"button_pressed":4,"time_out":false,"dwell_time":63.916015625,"response_time":1689021873563.59},{"trial":5,"action":1,"button_pressed":1,"time_out":false,"dwell_time":64.0341796875,"response_time":1689021873980.14},{"trial":5,"action":1,"button_pressed":2,"time_out":false,"dwell_time":64.81103515625,"response_time":1689021874446.66},{"trial":5,"action":9,"button_pressed":-1,"time_out":false,"dwell_time":80.60498046875,"response_time":1689021875596.03},{"trial":6,"action":1,"button_pressed":10,"time_out":false,"dwell_time":81.366943359375,"response_time":1689021899838.49},{"trial":6,"action":1,"button_pressed":2,"time_out":false,"dwell_time":98.27099609375,"response_time":1689021900504.85},{"trial":6,"action":1,"button_pressed":1,"time_out":false,"dwell_time":47.8740234375,"response_time":1689021901171.64},{"trial":6,"action":1,"button_pressed":9,"time_out":false,"dwell_time":63.298095703125,"response_time":1689021902370.12},{"trial":6,"action":1,"button_pressed":8,"time_out":false,"dwell_time":81.3330078125,"response_time":1689021902904.03},{"trial":6,"action":1,"button_pressed":11,"time_out":false,"dwell_time":63.970947265625,"response_time":1689021903587.06},{"trial":6,"action":1,"button_pressed":4,"time_out":false,"dwell_time":81.31689453125,"response_time":1689021904203.57},{"trial":6,"action":1,"button_pressed":5,"time_out":false,"dwell_time":80.635009765625,"response_time":1689021904636.74},{"trial":6,"action":9,"button_pressed":-1,"time_out":false,"dwell_time":16.81787109375,"response_time":1689021906402.4},{"trial":7,"action":1,"button_pressed":10,"time_out":false,"dwell_time":80.77197265625,"response_time":1689021932661},{"trial":7,"action":1,"button_pressed":8,"time_out":false,"dwell_time":81.2900390625,"response_time":1689021933160.68},{"trial":7,"action":1,"button_pressed":1,"time_out":false,"dwell_time":81.414794921875,"response_time":1689021934910.1},{"trial":7,"action":1,"button_pressed":6,"time_out":false,"dwell_time":98.032958984375,"response_time":1689021939525.31},{"trial":7,"action":1,"button_pressed":0,"time_out":false,"dwell_time":80.780029296875,"response_time":1689021942091.02},{"trial":7,"action":1,"button_pressed":9,"time_out":false,"dwell_time":63.9580078125,"response_time":1689021942423.57},{"trial":7,"action":1,"button_pressed":2,"time_out":false,"dwell_time":64.8828125,"response_time":1689021942824.24},{"trial":7,"action":1,"button_pressed":7,"time_out":false,"dwell_time":31.10888671875,"response_time":1689021943291.19},{"trial":7,"action":9,"button_pressed":-1,"time_out":false,"dwell_time":63.758056640625,"response_time":1689021944456.65},{"trial":8,"action":1,"button_pressed":9,"time_out":false,"dwell_time":79.94921875,"response_time":1689021970514.44},{"trial":8,"action":1,"button_pressed":8,"time_out":false,"dwell_time":114.65283203125,"response_time":1689021971048.35},{"trial":8,"action":1,"button_pressed":2,"time_out":false,"dwell_time":63.8310546875,"response_time":1689021974063.84},{"trial":8,"action":1,"button_pressed":11,"time_out":false,"dwell_time":47.011962890625,"response_time":1689021974780.08},{"trial":8,"action":1,"button_pressed":5,"time_out":false,"dwell_time":64.31494140625,"response_time":1689021980661.81},{"trial":8,"action":1,"button_pressed":6,"time_out":false,"dwell_time":63.911865234375,"response_time":1689021981210.98},{"trial":8,"action":1,"button_pressed":10,"time_out":false,"dwell_time":62.970947265625,"response_time":1689021981577.49},{"trial":8,"action":1,"button_pressed":1,"time_out":false,"dwell_time":47.861083984375,"response_time":1689021982161.01},{"trial":8,"action":9,"button_pressed":-1,"time_out":false,"dwell_time":47.86181640625,"response_time":1689021983094.71},{"trial":9,"action":1,"button_pressed":5,"time_out":false,"dwell_time":47.904052734375,"response_time":1689022003554.78},{"trial":9,"action":1,"button_pressed":3,"time_out":false,"dwell_time":47.5849609375,"response_time":1689022004054.38},{"trial":9,"action":1,"button_pressed":8,"time_out":false,"dwell_time":80.47802734375,"response_time":1689022004570.56},{"trial":9,"action":1,"button_pressed":11,"time_out":false,"dwell_time":79.60498046875,"response_time":1689022005436.08},{"trial":9,"action":1,"button_pressed":7,"time_out":false,"dwell_time":47.5849609375,"response_time":1689022005669.86},{"trial":9,"action":1,"button_pressed":4,"time_out":false,"dwell_time":64.136962890625,"response_time":1689022006252.79},{"trial":9,"action":1,"button_pressed":10,"time_out":false,"dwell_time":81.337158203125,"response_time":1689022006603.32},{"trial":9,"action":9,"button_pressed":-1,"time_out":false,"dwell_time":81.22509765625,"response_time":1689022007769.32},{"trial":10,"action":1,"button_pressed":0,"time_out":false,"dwell_time":48.055908203125,"response_time":1689022030146.16},{"trial":10,"action":1,"button_pressed":8,"time_out":false,"dwell_time":97.791015625,"response_time":1689022030978.49},{"trial":10,"action":1,"button_pressed":3,"time_out":false,"dwell_time":98.25,"response_time":1689022034577.51},{"trial":10,"action":1,"button_pressed":5,"time_out":false,"dwell_time":63.132080078125,"response_time":1689022035043.02},{"trial":10,"action":1,"button_pressed":6,"time_out":false,"dwell_time":63.654052734375,"response_time":1689022035559.82},{"trial":10,"action":1,"button_pressed":7,"time_out":false,"dwell_time":64.677001953125,"response_time":1689022035976.96},{"trial":10,"action":1,"button_pressed":2,"time_out":false,"dwell_time":46.947021484375,"response_time":1689022036526.45},{"trial":10,"action":9,"button_pressed":-1,"time_out":false,"dwell_time":80.89697265625,"response_time":1689022038409.16},{"trial":11,"action":1,"button_pressed":1,"time_out":false,"dwell_time":65.1689453125,"response_time":1689022060868.86},{"trial":11,"action":1,"button_pressed":10,"time_out":false,"dwell_time":80.43896484375,"response_time":1689022061317.7},{"trial":11,"action":1,"button_pressed":0,"time_out":false,"dwell_time":80.794921875,"response_time":1689022061767.81},{"trial":11,"action":1,"button_pressed":2,"time_out":false,"dwell_time":80.01904296875,"response_time":1689022062201.04},{"trial":11,"action":1,"button_pressed":3,"time_out":false,"dwell_time":63.140869140625,"response_time":1689022067682.22},{"trial":11,"action":1,"button_pressed":7,"time_out":false,"dwell_time":64.014892578125,"response_time":1689022068133.05},{"trial":11,"action":1,"button_pressed":9,"time_out":false,"dwell_time":62.780029296875,"response_time":1689022069281.74},{"trial":11,"action":1,"button_pressed":4,"time_out":false,"dwell_time":64.865966796875,"response_time":1689022069582.66},{"trial":11,"action":9,"button_pressed":-1,"time_out":false,"dwell_time":16.751953125,"response_time":1689022070398.56},{"trial":12,"action":1,"button_pressed":6,"time_out":false,"dwell_time":81.4599609375,"response_time":1689022095957.41},{"trial":12,"action":1,"button_pressed":7,"time_out":false,"dwell_time":81.473876953125,"response_time":1689022096273.94},{"trial":12,"action":1,"button_pressed":8,"time_out":false,"dwell_time":98.0791015625,"response_time":1689022096807.05},{"trial":12,"action":1,"button_pressed":10,"time_out":false,"dwell_time":47.108154296875,"response_time":1689022097173.23},{"trial":12,"action":1,"button_pressed":4,"time_out":false,"dwell_time":63.968017578125,"response_time":1689022098288.88},{"trial":12,"action":1,"button_pressed":1,"time_out":false,"dwell_time":80.7958984375,"response_time":1689022098822.99},{"trial":12,"action":1,"button_pressed":11,"time_out":false,"dwell_time":81.537841796875,"response_time":1689022100439.22},{"trial":12,"action":1,"button_pressed":3,"time_out":false,"dwell_time":48.51513671875,"response_time":1689022100889.38},{"trial":12,"action":1,"button_pressed":5,"time_out":false,"dwell_time":47.044921875,"response_time":1689022101355.24},{"trial":12,"action":9,"button_pressed":-1,"time_out":false,"dwell_time":64.65380859375,"response_time":1689022103072.01},{"trial":13,"action":1,"button_pressed":7,"time_out":false,"dwell_time":64.05908203125,"response_time":1689022131628.9},{"trial":13,"action":1,"button_pressed":0,"time_out":false,"dwell_time":64.026123046875,"response_time":1689022132228.66},{"trial":13,"action":1,"button_pressed":4,"time_out":false,"dwell_time":63.199951171875,"response_time":1689022132860.91},{"trial":13,"action":1,"button_pressed":8,"time_out":false,"dwell_time":63.88720703125,"response_time":1689022133210.81},{"trial":13,"action":1,"button_pressed":6,"time_out":false,"dwell_time":80.55810546875,"response_time":1689022139408.92},{"trial":13,"action":1,"button_pressed":2,"time_out":false,"dwell_time":98.116943359375,"response_time":1689022140092.71},{"trial":13,"action":1,"button_pressed":5,"time_out":false,"dwell_time":97.87890625,"response_time":1689022140475.84},{"trial":13,"action":9,"button_pressed":-1,"time_out":false,"dwell_time":81.176025390625,"response_time":1689022144790.83},{"trial":14,"action":1,"button_pressed":4,"time_out":false,"dwell_time":31.448974609375,"response_time":1689022173499.01},{"trial":14,"action":1,"button_pressed":2,"time_out":false,"dwell_time":47.73095703125,"response_time":1689022173881.2},{"trial":14,"action":1,"button_pressed":1,"time_out":false,"dwell_time":80.795166015625,"response_time":1689022174513.94},{"trial":14,"action":1,"button_pressed":7,"time_out":false,"dwell_time":46.856201171875,"response_time":1689022174914.17},{"trial":14,"action":1,"button_pressed":0,"time_out":false,"dwell_time":31.159912109375,"response_time":1689022183511.47},{"trial":14,"action":1,"button_pressed":10,"time_out":false,"dwell_time":47.434814453125,"response_time":1689022183994.39},{"trial":14,"action":1,"button_pressed":8,"time_out":false,"dwell_time":98.02001953125,"response_time":1689022184378.1},{"trial":14,"action":1,"button_pressed":5,"time_out":false,"dwell_time":97.19091796875,"response_time":1689022185477.85},{"trial":14,"action":1,"button_pressed":9,"time_out":false,"dwell_time":64.704833984375,"response_time":1689022186060.92},{"trial":14,"action":9,"button_pressed":-1,"time_out":false,"dwell_time":80.633056640625,"response_time":1689022186827.02}]}