{"meta_data":{"additional_headers":{},"game_name":"Recollect","version":"2.53.01","user_name":"118","organization":"braingamecenter","study":"mpl2_2022_11","session_number":0,"device_id":"74342D95-EE82-45E3-8ADF-48FB3203C5DD"},"data":[{"trial":0,"action":1,"button_pressed":2,"time_out":false,"dwell_time":48.14697265625,"response_time":1689030474091.98},{"trial":0,"action":1,"button_pressed":9,"time_out":false,"dwell_time":46.65380859375,"response_time":1689030474808.06},{"trial":0,"action":9,"button_pressed":-1,"time_out":false,"dwell_time":174.9580078125,"response_time":1689030475668.46},{"trial":1,"action":1,"button_pressed":1,"time_out":false,"dwell_time":81.818115234375,"response_time":1689030485155.22},{"trial":1,"action":1,"button_pressed":6,"time_out":false,"dwell_time":63.13720703125,"response_time":1689030485487.6},{"trial":1,"action":1,"button_pressed":8,"time_out":false,"dwell_time":63.22802734375,"response_time":1689030485904.11},{"trial":1,"action":9,"button_pressed":-1,"time_out":false,"dwell_time":16.553955078125,"response_time":1689030486670.66},{"trial":2,"action":1,"button_pressed":4,"time_out":false,"dwell_time":64.337890625,"response_time":1689030498649.96},{"trial":2,"action":1,"button_pressed":2,"time_out":false,"dwell_time":64.14599609375,"response_time":1689030499366.36},{"trial":2,"action":1,"button_pressed":7,"time_out":false,"dwell_time":63.213134765625,"response_time":1689030499716.14},{"trial":2,"action":1,"button_pressed":3,"time_out":false,"dwell_time":63.3720703125,"response_time":1689030500249.37},{"trial":2,"action":9,"button_pressed":-1,"time_out":false,"dwell_time":97.31298828125,"response_time":1689030501749.29},{"trial":3,"action":1,"button_pressed":3,"time_out":false,"dwell_time":98.148193359375,"response_time":1689030516594.88},{"trial":3,"action":1,"button_pressed":6,"time_out":false,"dwell_time":30.9599609375,"response_time":1689030516911.57},{"trial":3,"action":1,"button_pressed":8,"time_out":false,"dwell_time":80.56103515625,"response_time":1689030517310.37},{"trial":3,"action":1,"button_pressed":11,"time_out":false,"dwell_time":48.6298828125,"response_time":1689030517728.07},{"trial":3,"action":1,"button_pressed":0,"time_out":false,"dwell_time":30.483154296875,"response_time":1689030518293.92},{"trial":3,"action":9,"button_pressed":-1,"time_out":false,"dwell_time":181.1708984375,"response_time":1689030519076.83},{"trial":4,"action":1,"button_pressed":7,"time_out":false,"dwell_time":98.3251953125,"response_time":1689030534805.48},{"trial":4,"action":1,"button_pressed":4,"time_out":false,"dwell_time":79.8310546875,"response_time":1689030535171.08},{"trial":4,"action":1,"button_pressed":11,"time_out":false,"dwell_time":63.299072265625,"response_time":1689030535887.76},{"trial":4,"action":1,"button_pressed":3,"time_out":false,"dwell_time":81.489013671875,"response_time":1689030536304.86},{"trial":4,"action":1,"button_pressed":10,"time_out":false,"dwell_time":79.919921875,"response_time":1689030536887.29},{"trial":4,"action":9,"button_pressed":-1,"time_out":false,"dwell_time":265.231201171875,"response_time":1689030538038.09},{"trial":5,"action":1,"button_pressed":8,"time_out":false,"dwell_time":114.22607421875,"response_time":1689030555347.97},{"trial":5,"action":1,"button_pressed":11,"time_out":false,"dwell_time":81.469970703125,"response_time":1689030555698.38},{"trial":5,"action":1,"button_pressed":4,"time_out":false,"dwell_time":63.319091796875,"response_time":1689030557447.02},{"trial":5,"action":1,"button_pressed":1,"time_out":false,"dwell_time":64.541015625,"response_time":1689030558397.36},{"trial":5,"action":1,"button_pressed":10,"time_out":false,"dwell_time":97.2548828125,"response_time":1689030558796.64},{"trial":5,"action":9,"button_pressed":-1,"time_out":false,"dwell_time":16.612060546875,"response_time":1689030561629.24},{"trial":6,"action":1,"button_pressed":7,"time_out":false,"dwell_time":80.098876953125,"response_time":1689030578590.29},{"trial":6,"action":1,"button_pressed":3,"time_out":false,"dwell_time":114.76806640625,"response_time":1689030579140.66},{"trial":6,"action":1,"button_pressed":8,"time_out":false,"dwell_time":79.72412109375,"response_time":1689030579539.69},{"trial":6,"action":1,"button_pressed":0,"time_out":false,"dwell_time":80.805908203125,"response_time":1689030579923.06},{"trial":6,"action":1,"button_pressed":4,"time_out":false,"dwell_time":79.947998046875,"response_time":1689030580356.18},{"trial":6,"action":1,"button_pressed":1,"time_out":false,"dwell_time":64.032958984375,"response_time":1689030580855.96},{"trial":6,"action":9,"button_pressed":-1,"time_out":false,"dwell_time":181.376953125,"response_time":1689030581789.55},{"trial":7,"action":1,"button_pressed":1,"time_out":false,"dwell_time":81.091064453125,"response_time":1689030601715.94},{"trial":7,"action":1,"button_pressed":9,"time_out":false,"dwell_time":80.294921875,"response_time":1689030602232.64},{"trial":7,"action":1,"button_pressed":7,"time_out":false,"dwell_time":97.2109375,"response_time":1689030602815.46},{"trial":7,"action":1,"button_pressed":2,"time_out":false,"dwell_time":97.47802734375,"response_time":1689030605131.32},{"trial":7,"action":1,"button_pressed":8,"time_out":false,"dwell_time":97.544189453125,"response_time":1689030605514.83},{"trial":7,"action":1,"button_pressed":11,"time_out":false,"dwell_time":81.30810546875,"response_time":1689030606431.57},{"trial":7,"action":9,"button_pressed":-1,"time_out":false,"dwell_time":264.587890625,"response_time":1689030607648.35},{"trial":8,"action":9,"button_pressed":-1,"time_out":true,"dwell_time":29019.7229003906,"response_time":1689030636403.48},{"trial":9,"action":1,"button_pressed":0,"time_out":false,"dwell_time":48.257080078125,"response_time":1689030651050.9},{"trial":9,"action":1,"button_pressed":7,"time_out":false,"dwell_time":30.294921875,"response_time":1689030651499.69},{"trial":9,"action":1,"button_pressed":4,"time_out":false,"dwell_time":47.974853515625,"response_time":1689030652166.31},{"trial":9,"action":1,"button_pressed":4,"time_out":false,"dwell_time":64.821044921875,"response_time":1689030653599.28},{"trial":9,"action":1,"button_pressed":4,"time_out":false,"dwell_time":47.342041015625,"response_time":1689030654148.92},{"trial":9,"action":1,"button_pressed":10,"time_out":false,"dwell_time":79.888916015625,"response_time":1689030655331.35},{"trial":9,"action":1,"button_pressed":10,"time_out":false,"dwell_time":48.753173828125,"response_time":1689030656082.42},{"trial":9,"action":1,"button_pressed":1,"time_out":false,"dwell_time":30.4130859375,"response_time":1689030657097.91},{"trial":9,"action":0,"button_pressed":-1,"time_out":false,"dwell_time":114.39697265625,"response_time":1689030659047.79},{"trial":9,"action":1,"button_pressed":0,"time_out":false,"dwell_time":63.902099609375,"response_time":1689030659763.79},{"trial":9,"action":1,"button_pressed":7,"time_out":false,"dwell_time":63.928955078125,"response_time":1689030660913.55},{"trial":9,"action":1,"button_pressed":4,"time_out":false,"dwell_time":63.275146484375,"response_time":1689030661545.91},{"trial":9,"action":1,"button_pressed":10,"time_out":false,"dwell_time":47.869873046875,"response_time":1689030662047.05},{"trial":9,"action":1,"button_pressed":1,"time_out":false,"dwell_time":32.005126953125,"response_time":1689030662630.12},{"trial":9,"action":9,"button_pressed":-1,"time_out":false,"dwell_time":82.0888671875,"response_time":1689030663179.99},{"trial":10,"action":1,"button_pressed":4,"time_out":false,"dwell_time":64.178955078125,"response_time":1689030677690.65},{"trial":10,"action":1,"button_pressed":11,"time_out":false,"dwell_time":96.661865234375,"response_time":1689030678040.52},{"trial":10,"action":1,"button_pressed":5,"time_out":false,"dwell_time":97.47900390625,"response_time":1689030678307.93},{"trial":10,"action":1,"button_pressed":3,"time_out":false,"dwell_time":80.783203125,"response_time":1689030679090.86},{"trial":10,"action":1,"button_pressed":9,"time_out":false,"dwell_time":63.822021484375,"response_time":1689030679773.87},{"trial":10,"action":9,"button_pressed":-1,"time_out":false,"dwell_time":298.56494140625,"response_time":1689030680774.1},{"trial":11,"action":1,"button_pressed":9,"time_out":false,"dwell_time":80.076904296875,"response_time":1689030697850.77},{"trial":11,"action":1,"button_pressed":1,"time_out":false,"dwell_time":97.323974609375,"response_time":1689030698567.74},{"trial":11,"action":1,"button_pressed":2,"time_out":false,"dwell_time":64.786865234375,"response_time":1689030698801.02},{"trial":11,"action":1,"button_pressed":8,"time_out":false,"dwell_time":80.4609375,"response_time":1689030699334.1},{"trial":11,"action":1,"button_pressed":6,"time_out":false,"dwell_time":63.872802734375,"response_time":1689030699767.28},{"trial":11,"action":1,"button_pressed":11,"time_out":false,"dwell_time":81.47021484375,"response_time":1689030700117.42},{"trial":11,"action":9,"button_pressed":-1,"time_out":false,"dwell_time":130.426025390625,"response_time":1689030701099.95},{"trial":12,"action":1,"button_pressed":3,"time_out":false,"dwell_time":81.73388671875,"response_time":1689030721776.91},{"trial":12,"action":1,"button_pressed":0,"time_out":false,"dwell_time":81.468994140625,"response_time":1689030722826.41},{"trial":12,"action":1,"button_pressed":5,"time_out":false,"dwell_time":63.362060546875,"response_time":1689030723575.42},{"trial":12,"action":1,"button_pressed":10,"time_out":false,"dwell_time":80.757080078125,"response_time":1689030724125.35},{"trial":12,"action":1,"button_pressed":4,"time_out":false,"dwell_time":80.7880859375,"response_time":1689030724658.47},{"trial":12,"action":1,"button_pressed":1,"time_out":false,"dwell_time":97.404052734375,"response_time":1689030725091.6},{"trial":12,"action":1,"button_pressed":2,"time_out":false,"dwell_time":81.508056640625,"response_time":1689030725525.53},{"trial":12,"action":9,"button_pressed":-1,"time_out":false,"dwell_time":17.906982421875,"response_time":1689030726709.17},{"trial":13,"action":1,"button_pressed":9,"time_out":false,"dwell_time":63.988037109375,"response_time":1689030746751.24},{"trial":13,"action":1,"button_pressed":7,"time_out":false,"dwell_time":48.76318359375,"response_time":1689030747935.38},{"trial":13,"action":1,"button_pressed":4,"time_out":false,"dwell_time":48.114013671875,"response_time":1689030748567.89},{"trial":13,"action":1,"button_pressed":1,"time_out":false,"dwell_time":47.741943359375,"response_time":1689030749084.16},{"trial":13,"action":1,"button_pressed":11,"time_out":false,"dwell_time":47.60107421875,"response_time":1689030749700.6},{"trial":13,"action":1,"button_pressed":6,"time_out":false,"dwell_time":64.364013671875,"response_time":1689030750167.37},{"trial":13,"action":1,"button_pressed":8,"time_out":false,"dwell_time":47.64306640625,"response_time":1689030750633.71},{"trial":13,"action":9,"button_pressed":-1,"time_out":false,"dwell_time":97.68896484375,"response_time":1689030751499.97},{"trial":14,"action":1,"button_pressed":2,"time_out":false,"dwell_time":48.218017578125,"response_time":1689030776675.12},{"trial":14,"action":1,"button_pressed":8,"time_out":false,"dwell_time":47.154052734375,"response_time":1689030776992.09},{"trial":14,"action":1,"button_pressed":10,"time_out":false,"dwell_time":47.48193359375,"response_time":1689030777324.99},{"trial":14,"action":1,"button_pressed":9,"time_out":false,"dwell_time":64.77685546875,"response_time":1689030777725.15},{"trial":14,"action":1,"button_pressed":4,"time_out":false,"dwell_time":47.009033203125,"response_time":1689030778274.53},{"trial":14,"action":1,"button_pressed":1,"time_out":false,"dwell_time":47.949951171875,"response_time":1689030778724.36},{"trial":14,"action":1,"button_pressed":5,"time_out":false,"dwell_time":46.8349609375,"response_time":1689030781006.94},{"trial":14,"action":9,"button_pressed":-1,"time_out":false,"dwell_time":97.843994140625,"response_time":1689030782006.52},{"trial":15,"action":1,"button_pressed":3,"time_out":false,"dwell_time":81.052978515625,"response_time":1689030804016.59},{"trial":15,"action":1,"button_pressed":1,"time_out":false,"dwell_time":65.07080078125,"response_time":1689030804299.62},{"trial":15,"action":1,"button_pressed":8,"time_out":false,"dwell_time":63.0048828125,"response_time":1689030804981.7},{"trial":15,"action":1,"button_pressed":5,"time_out":false,"dwell_time":47.941162109375,"response_time":1689030805482.93},{"trial":15,"action":1,"button_pressed":7,"time_out":false,"dwell_time":63.968017578125,"response_time":1689030806365.53},{"trial":15,"action":1,"button_pressed":0,"time_out":false,"dwell_time":48.56298828125,"response_time":1689030806965.78},{"trial":15,"action":1,"button_pressed":9,"time_out":false,"dwell_time":47.73583984375,"response_time":1689030807398.26},{"trial":15,"action":1,"button_pressed":10,"time_out":false,"dwell_time":46.945068359375,"response_time":1689030807864.72},{"trial":15,"action":9,"button_pressed":-1,"time_out":false,"dwell_time":16.65185546875,"response_time":1689030808964.05},{"trial":16,"action":1,"button_pressed":7,"time_out":false,"dwell_time":64.906982421875,"response_time":1689030834372.99},{"trial":16,"action":1,"button_pressed":1,"time_out":false,"dwell_time":30.7880859375,"response_time":1689030834672.32},{"trial":16,"action":1,"button_pressed":10,"time_out":false,"dwell_time":31.14501953125,"response_time":1689030835306.38},{"trial":16,"action":1,"button_pressed":0,"time_out":false,"dwell_time":80.8408203125,"response_time":1689030835855.89},{"trial":16,"action":1,"button_pressed":6,"time_out":false,"dwell_time":81.263916015625,"response_time":1689030836272.18},{"trial":16,"action":1,"button_pressed":9,"time_out":false,"dwell_time":63.905029296875,"response_time":1689030836704.74},{"trial":16,"action":1,"button_pressed":8,"time_out":false,"dwell_time":97.881103515625,"response_time":1689030837138.67},{"trial":16,"action":1,"button_pressed":5,"time_out":false,"dwell_time":98.01708984375,"response_time":1689030837705.11},{"trial":16,"action":9,"button_pressed":-1,"time_out":false,"dwell_time":865.06005859375,"response_time":1689030841737.68},{"trial":17,"action":1,"button_pressed":2,"time_out":false,"dwell_time":63.635986328125,"response_time":1689030867078.21},{"trial":17,"action":1,"button_pressed":5,"time_out":false,"dwell_time":47.01904296875,"response_time":1689030867378.22},{"trial":17,"action":1,"button_pressed":7,"time_out":false,"dwell_time":79.013916015625,"response_time":1689030868093.5},{"trial":17,"action":1,"button_pressed":9,"time_out":false,"dwell_time":64.6591796875,"response_time":1689030868878.23},{"trial":17,"action":1,"button_pressed":3,"time_out":false,"dwell_time":81.605224609375,"response_time":1689030869911.17},{"trial":17,"action":1,"button_pressed":10,"time_out":false,"dwell_time":63.3251953125,"response_time":1689030870643.53},{"trial":17,"action":1,"button_pressed":8,"time_out":false,"dwell_time":80.35400390625,"response_time":1689030871126.57},{"trial":17,"action":1,"button_pressed":11,"time_out":false,"dwell_time":98.0029296875,"response_time":1689030871993.71},{"trial":17,"action":1,"button_pressed":0,"time_out":false,"dwell_time":63.305908203125,"response_time":1689030874325.56},{"trial":17,"action":9,"button_pressed":-1,"time_out":false,"dwell_time":265.2939453125,"response_time":1689030875359.7}]}