{"meta_data":{"additional_headers":{},"game_name":"Recollect","version":"2.53.01","user_name":"120","organization":"braingamecenter","study":"mpl2_2022_11","session_number":0,"device_id":"74342D95-EE82-45E3-8ADF-48FB3203C5DD"},"data":[{"trial":0,"action":1,"button_pressed":6,"time_out":false,"dwell_time":30.280029296875,"response_time":1689117539450.29},{"trial":0,"action":1,"button_pressed":10,"time_out":false,"dwell_time":30.34814453125,"response_time":1689117540050.07},{"trial":0,"action":9,"button_pressed":-1,"time_out":false,"dwell_time":40.72314453125,"response_time":1689117541276.44},{"trial":1,"action":1,"button_pressed":9,"time_out":false,"dwell_time":47.863037109375,"response_time":1689117551247.17},{"trial":1,"action":1,"button_pressed":1,"time_out":false,"dwell_time":30.475830078125,"response_time":1689117551879.53},{"trial":1,"action":1,"button_pressed":3,"time_out":false,"dwell_time":48.5,"response_time":1689117552413.26},{"trial":1,"action":9,"button_pressed":-1,"time_out":false,"dwell_time":48.243896484375,"response_time":1689117553096.01},{"trial":2,"action":1,"button_pressed":1,"time_out":false,"dwell_time":47.985107421875,"response_time":1689117565425.79},{"trial":2,"action":1,"button_pressed":6,"time_out":false,"dwell_time":47.555908203125,"response_time":1689117565842.27},{"trial":2,"action":1,"button_pressed":5,"time_out":false,"dwell_time":31.112060546875,"response_time":1689117566257.95},{"trial":2,"action":1,"button_pressed":10,"time_out":false,"dwell_time":30.43212890625,"response_time":1689117566674.56},{"trial":2,"action":9,"button_pressed":-1,"time_out":false,"dwell_time":30.9970703125,"response_time":1689117567557.95},{"trial":3,"action":1,"button_pressed":0,"time_out":false,"dwell_time":48.2421875,"response_time":1689117581936.36},{"trial":3,"action":1,"button_pressed":7,"time_out":false,"dwell_time":47.800048828125,"response_time":1689117582469.99},{"trial":3,"action":1,"button_pressed":10,"time_out":false,"dwell_time":47.885009765625,"response_time":1689117582969.2},{"trial":3,"action":1,"button_pressed":4,"time_out":false,"dwell_time":30.862060546875,"response_time":1689117583486.21},{"trial":3,"action":1,"button_pressed":1,"time_out":false,"dwell_time":31.18798828125,"response_time":1689117584019.46},{"trial":3,"action":9,"button_pressed":-1,"time_out":false,"dwell_time":49.177001953125,"response_time":1689117584719.69},{"trial":4,"action":1,"button_pressed":10,"time_out":false,"dwell_time":63.156005859375,"response_time":1689117602278.97},{"trial":4,"action":1,"button_pressed":2,"time_out":false,"dwell_time":30.593017578125,"response_time":1689117602662.65},{"trial":4,"action":1,"button_pressed":9,"time_out":false,"dwell_time":29.882080078125,"response_time":1689117603112.29},{"trial":4,"action":1,"button_pressed":5,"time_out":false,"dwell_time":31.31103515625,"response_time":1689117603595.63},{"trial":4,"action":1,"button_pressed":0,"time_out":false,"dwell_time":48.489013671875,"response_time":1689117604529.27},{"trial":4,"action":1,"button_pressed":11,"time_out":false,"dwell_time":13.77587890625,"response_time":1689117604944.44},{"trial":4,"action":9,"button_pressed":-1,"time_out":false,"dwell_time":32.51806640625,"response_time":1689117605962.69},{"trial":5,"action":1,"button_pressed":2,"time_out":false,"dwell_time":47.7021484375,"response_time":1689117623055.7},{"trial":5,"action":1,"button_pressed":10,"time_out":false,"dwell_time":64.599853515625,"response_time":1689117623572.45},{"trial":5,"action":1,"button_pressed":7,"time_out":false,"dwell_time":47.701171875,"response_time":1689117624171.99},{"trial":5,"action":1,"button_pressed":3,"time_out":false,"dwell_time":47.85400390625,"response_time":1689117624705.94},{"trial":5,"action":1,"button_pressed":9,"time_out":false,"dwell_time":31.6162109375,"response_time":1689117625672.28},{"trial":5,"action":1,"button_pressed":6,"time_out":false,"dwell_time":47.634033203125,"response_time":1689117627937.44},{"trial":5,"action":9,"button_pressed":-1,"time_out":false,"dwell_time":31.2021484375,"response_time":1689117628554.56},{"trial":6,"action":1,"button_pressed":4,"time_out":false,"dwell_time":64.297119140625,"response_time":1689117640883.57},{"trial":6,"action":1,"button_pressed":2,"time_out":false,"dwell_time":30.541015625,"response_time":1689117641116.47},{"trial":6,"action":1,"button_pressed":7,"time_out":false,"dwell_time":47.748046875,"response_time":1689117641582.92},{"trial":6,"action":1,"button_pressed":3,"time_out":false,"dwell_time":31.280029296875,"response_time":1689117641932.85},{"trial":6,"action":9,"button_pressed":-1,"time_out":false,"dwell_time":48.92919921875,"response_time":1689117642650.42},{"trial":7,"action":1,"button_pressed":3,"time_out":false,"dwell_time":12.948974609375,"response_time":1689117657410.39},{"trial":7,"action":1,"button_pressed":8,"time_out":false,"dwell_time":30.19091796875,"response_time":1689117657910.94},{"trial":7,"action":1,"button_pressed":4,"time_out":false,"dwell_time":47.865966796875,"response_time":1689117658378.18},{"trial":7,"action":1,"button_pressed":10,"time_out":false,"dwell_time":47.06298828125,"response_time":1689117658860.69},{"trial":7,"action":1,"button_pressed":11,"time_out":false,"dwell_time":13.076171875,"response_time":1689117659409.74},{"trial":7,"action":9,"button_pressed":-1,"time_out":false,"dwell_time":16.697998046875,"response_time":1689117660276.58},{"trial":8,"action":1,"button_pressed":8,"time_out":false,"dwell_time":47.817138671875,"response_time":1689117677355.28},{"trial":8,"action":1,"button_pressed":1,"time_out":false,"dwell_time":47.773193359375,"response_time":1689117678021.56},{"trial":8,"action":1,"button_pressed":0,"time_out":false,"dwell_time":47.9580078125,"response_time":1689117678504.86},{"trial":8,"action":1,"button_pressed":3,"time_out":false,"dwell_time":32.074951171875,"response_time":1689117679021.31},{"trial":8,"action":1,"button_pressed":9,"time_out":false,"dwell_time":30.114013671875,"response_time":1689117679870.28},{"trial":8,"action":1,"button_pressed":5,"time_out":false,"dwell_time":30.35009765625,"response_time":1689117680353.4},{"trial":8,"action":9,"button_pressed":-1,"time_out":false,"dwell_time":48.239013671875,"response_time":1689117681136.77},{"trial":9,"action":1,"button_pressed":1,"time_out":false,"dwell_time":64.785888671875,"response_time":1689117698231.11},{"trial":9,"action":1,"button_pressed":9,"time_out":false,"dwell_time":48.02587890625,"response_time":1689117698697.51},{"trial":9,"action":1,"button_pressed":2,"time_out":false,"dwell_time":47.93603515625,"response_time":1689117699330.47},{"trial":9,"action":1,"button_pressed":6,"time_out":false,"dwell_time":48.199951171875,"response_time":1689117700314.06},{"trial":9,"action":1,"button_pressed":8,"time_out":false,"dwell_time":30.973876953125,"response_time":1689117700730.62},{"trial":9,"action":1,"button_pressed":11,"time_out":false,"dwell_time":14.494140625,"response_time":1689117701712.91},{"trial":9,"action":9,"button_pressed":-1,"time_out":false,"dwell_time":13.93603515625,"response_time":1689117702562.78}]}