{"meta_data":{"additional_headers":{},"game_name":"Recollect","version":"2.53.01","user_name":"122","organization":"braingamecenter","study":"mpl2_2022_11","session_number":0,"device_id":"74342D95-EE82-45E3-8ADF-48FB3203C5DD"},"data":[{"trial":0,"action":1,"button_pressed":1,"time_out":false,"dwell_time":47.963134765625,"response_time":1690316687814.78},{"trial":0,"action":1,"button_pressed":5,"time_out":false,"dwell_time":98.10888671875,"response_time":1690316688748},{"trial":0,"action":9,"button_pressed":-1,"time_out":false,"dwell_time":124.2958984375,"response_time":1690316689391.21},{"trial":1,"action":1,"button_pressed":7,"time_out":false,"dwell_time":80.4970703125,"response_time":1690316699044.25},{"trial":1,"action":1,"button_pressed":3,"time_out":false,"dwell_time":81.56396484375,"response_time":1690316699527.7},{"trial":1,"action":1,"button_pressed":2,"time_out":false,"dwell_time":96.46484375,"response_time":1690316699993.34},{"trial":1,"action":9,"button_pressed":-1,"time_out":false,"dwell_time":131.2099609375,"response_time":1690316702010.56},{"trial":2,"action":1,"button_pressed":1,"time_out":false,"dwell_time":131.031982421875,"response_time":1690316714322.89},{"trial":2,"action":1,"button_pressed":6,"time_out":false,"dwell_time":80.469970703125,"response_time":1690316714822.4},{"trial":2,"action":1,"button_pressed":5,"time_out":false,"dwell_time":147.387939453125,"response_time":1690316715421.02},{"trial":2,"action":1,"button_pressed":10,"time_out":false,"dwell_time":80.741943359375,"response_time":1690316716438.22},{"trial":2,"action":9,"button_pressed":-1,"time_out":false,"dwell_time":16.697021484375,"response_time":1690316717404.5},{"trial":3,"action":1,"button_pressed":9,"time_out":false,"dwell_time":80.8818359375,"response_time":1690316732082.79},{"trial":3,"action":1,"button_pressed":0,"time_out":false,"dwell_time":96.763916015625,"response_time":1690316732566.04},{"trial":3,"action":1,"button_pressed":2,"time_out":false,"dwell_time":164.0439453125,"response_time":1690316733032.44},{"trial":3,"action":1,"button_pressed":1,"time_out":false,"dwell_time":81.532958984375,"response_time":1690316734965.71},{"trial":3,"action":1,"button_pressed":6,"time_out":false,"dwell_time":64.325927734375,"response_time":1690316735448.73},{"trial":3,"action":9,"button_pressed":-1,"time_out":false,"dwell_time":114.447998046875,"response_time":1690316736732.23},{"trial":4,"action":1,"button_pressed":0,"time_out":false,"dwell_time":64.156005859375,"response_time":1690316754042.72},{"trial":4,"action":1,"button_pressed":4,"time_out":false,"dwell_time":80.866943359375,"response_time":1690316754558.46},{"trial":4,"action":1,"button_pressed":11,"time_out":false,"dwell_time":63.576904296875,"response_time":1690316755158.93},{"trial":4,"action":1,"button_pressed":3,"time_out":false,"dwell_time":97.421142578125,"response_time":1690316756990.96},{"trial":4,"action":1,"button_pressed":5,"time_out":false,"dwell_time":114.7841796875,"response_time":1690316759774.02},{"trial":4,"action":1,"button_pressed":7,"time_out":false,"dwell_time":46.86181640625,"response_time":1690316760606.81},{"trial":4,"action":9,"button_pressed":-1,"time_out":false,"dwell_time":113.743896484375,"response_time":1690316761556.52},{"trial":5,"action":1,"button_pressed":6,"time_out":false,"dwell_time":80.713134765625,"response_time":1690316781633.58},{"trial":5,"action":1,"button_pressed":10,"time_out":false,"dwell_time":80.669921875,"response_time":1690316782132.47},{"trial":5,"action":1,"button_pressed":11,"time_out":false,"dwell_time":63.94580078125,"response_time":1690316782682.98},{"trial":5,"action":1,"button_pressed":4,"time_out":false,"dwell_time":97.43603515625,"response_time":1690316783298.76},{"trial":5,"action":1,"button_pressed":8,"time_out":false,"dwell_time":63.801025390625,"response_time":1690316785082.21},{"trial":5,"action":1,"button_pressed":3,"time_out":false,"dwell_time":97.80810546875,"response_time":1690316786014.9},{"trial":5,"action":1,"button_pressed":5,"time_out":false,"dwell_time":114.263916015625,"response_time":1690316786581.12},{"trial":5,"action":9,"button_pressed":-1,"time_out":false,"dwell_time":131.159912109375,"response_time":1690316789064.77},{"trial":6,"action":1,"button_pressed":0,"time_out":false,"dwell_time":80.659912109375,"response_time":1690316811922.62},{"trial":6,"action":1,"button_pressed":8,"time_out":false,"dwell_time":63.652099609375,"response_time":1690316812372.44},{"trial":6,"action":1,"button_pressed":6,"time_out":false,"dwell_time":63.64013671875,"response_time":1690316815804.5},{"trial":6,"action":1,"button_pressed":5,"time_out":false,"dwell_time":63.076904296875,"response_time":1690316816637.6},{"trial":6,"action":1,"button_pressed":3,"time_out":false,"dwell_time":80.4970703125,"response_time":1690316821252.72},{"trial":6,"action":1,"button_pressed":1,"time_out":false,"dwell_time":63.177978515625,"response_time":1690316825034.82},{"trial":6,"action":1,"button_pressed":11,"time_out":false,"dwell_time":81.6220703125,"response_time":1690316826318.62},{"trial":6,"action":1,"button_pressed":2,"time_out":false,"dwell_time":64.044921875,"response_time":1690316826918.25},{"trial":6,"action":9,"button_pressed":-1,"time_out":false,"dwell_time":114.27001953125,"response_time":1690316829400.76},{"trial":7,"action":1,"button_pressed":7,"time_out":false,"dwell_time":64.114013671875,"response_time":1690316852509.07},{"trial":7,"action":1,"button_pressed":4,"time_out":false,"dwell_time":114.7529296875,"response_time":1690316853076.21},{"trial":7,"action":1,"button_pressed":5,"time_out":false,"dwell_time":130.919921875,"response_time":1690316854941.62},{"trial":7,"action":1,"button_pressed":9,"time_out":false,"dwell_time":81.35595703125,"response_time":1690316858707.52},{"trial":7,"action":1,"button_pressed":3,"time_out":false,"dwell_time":80.614990234375,"response_time":1690316859506.56},{"trial":7,"action":1,"button_pressed":1,"time_out":false,"dwell_time":97.99609375,"response_time":1690316863622.52},{"trial":7,"action":1,"button_pressed":2,"time_out":false,"dwell_time":97.965087890625,"response_time":1690316864605.6},{"trial":7,"action":1,"button_pressed":10,"time_out":false,"dwell_time":64.2490234375,"response_time":1690316865271.68},{"trial":7,"action":9,"button_pressed":-1,"time_out":false,"dwell_time":115.072021484375,"response_time":1690316866988.62},{"trial":8,"action":1,"button_pressed":7,"time_out":false,"dwell_time":114.12890625,"response_time":1690316884582.52},{"trial":8,"action":1,"button_pressed":3,"time_out":false,"dwell_time":130.708984375,"response_time":1690316885264.69},{"trial":8,"action":1,"button_pressed":8,"time_out":false,"dwell_time":81.23486328125,"response_time":1690316885865.26},{"trial":8,"action":1,"button_pressed":0,"time_out":false,"dwell_time":97.39892578125,"response_time":1690316887914.61},{"trial":8,"action":1,"button_pressed":1,"time_out":false,"dwell_time":114.027099609375,"response_time":1690316888797.55},{"trial":8,"action":1,"button_pressed":4,"time_out":false,"dwell_time":46.66796875,"response_time":1690316890346.57},{"trial":8,"action":9,"button_pressed":-1,"time_out":false,"dwell_time":114.551025390625,"response_time":1690316891862.84},{"trial":9,"action":1,"button_pressed":3,"time_out":false,"dwell_time":80.973876953125,"response_time":1690316909557.4},{"trial":9,"action":1,"button_pressed":4,"time_out":false,"dwell_time":64.29296875,"response_time":1690316909989.62},{"trial":9,"action":1,"button_pressed":7,"time_out":false,"dwell_time":47.463134765625,"response_time":1690316910540.58},{"trial":9,"action":1,"button_pressed":10,"time_out":false,"dwell_time":47.856201171875,"response_time":1690316911123.89},{"trial":9,"action":1,"button_pressed":2,"time_out":false,"dwell_time":63.9599609375,"response_time":1690316911705.78},{"trial":9,"action":1,"button_pressed":9,"time_out":false,"dwell_time":48.247802734375,"response_time":1690316912223.3},{"trial":9,"action":9,"button_pressed":-1,"time_out":false,"dwell_time":81.948974609375,"response_time":1690316913423.03}]}