{"meta_data":{"additional_headers":{},"game_name":"Recollect","version":"2.53.01","user_name":"123","organization":"braingamecenter","study":"mpl2_2022_11","session_number":0,"device_id":"74342D95-EE82-45E3-8ADF-48FB3203C5DD"},"data":[{"trial":0,"action":1,"button_pressed":1,"time_out":false,"dwell_time":48.134765625,"response_time":1690325143675.89},{"trial":0,"action":1,"button_pressed":5,"time_out":false,"dwell_time":80.81494140625,"response_time":1690325144091.17},{"trial":0,"action":9,"button_pressed":-1,"time_out":false,"dwell_time":106.69189453125,"response_time":1690325144784.12},{"trial":1,"action":1,"button_pressed":8,"time_out":false,"dwell_time":64.60205078125,"response_time":1690325154188.49},{"trial":1,"action":1,"button_pressed":11,"time_out":false,"dwell_time":48.2890625,"response_time":1690325155238.9},{"trial":1,"action":1,"button_pressed":5,"time_out":false,"dwell_time":46.821044921875,"response_time":1690325155671.05},{"trial":1,"action":9,"button_pressed":-1,"time_out":false,"dwell_time":65.27587890625,"response_time":1690325156238.18},{"trial":2,"action":1,"button_pressed":9,"time_out":false,"dwell_time":63.8701171875,"response_time":1690325168084.07},{"trial":2,"action":1,"button_pressed":11,"time_out":false,"dwell_time":81.495849609375,"response_time":1690325168267.32},{"trial":2,"action":1,"button_pressed":8,"time_out":false,"dwell_time":63.635986328125,"response_time":1690325168450.4},{"trial":2,"action":1,"button_pressed":0,"time_out":false,"dwell_time":47.787109375,"response_time":1690325168867.45},{"trial":2,"action":9,"button_pressed":-1,"time_out":false,"dwell_time":64.43701171875,"response_time":1690325170399.51},{"trial":3,"action":1,"button_pressed":10,"time_out":false,"dwell_time":64.2158203125,"response_time":1690325184811.19},{"trial":3,"action":1,"button_pressed":5,"time_out":false,"dwell_time":63.3359375,"response_time":1690325185077.55},{"trial":3,"action":1,"button_pressed":3,"time_out":false,"dwell_time":63.321044921875,"response_time":1690325185544.12},{"trial":3,"action":1,"button_pressed":6,"time_out":false,"dwell_time":47.98291015625,"response_time":1690325185928.35},{"trial":3,"action":1,"button_pressed":2,"time_out":false,"dwell_time":64.712158203125,"response_time":1690325186411.25},{"trial":3,"action":9,"button_pressed":-1,"time_out":false,"dwell_time":63.737060546875,"response_time":1690325186977.31},{"trial":4,"action":1,"button_pressed":5,"time_out":false,"dwell_time":47.26220703125,"response_time":1690325203905.39},{"trial":4,"action":1,"button_pressed":10,"time_out":false,"dwell_time":64.217041015625,"response_time":1690325204254.95},{"trial":4,"action":1,"button_pressed":7,"time_out":false,"dwell_time":47.794921875,"response_time":1690325204555.8},{"trial":4,"action":1,"button_pressed":4,"time_out":false,"dwell_time":81.341796875,"response_time":1690325204921.73},{"trial":4,"action":1,"button_pressed":0,"time_out":false,"dwell_time":64.68798828125,"response_time":1690325205221.7},{"trial":4,"action":1,"button_pressed":8,"time_out":false,"dwell_time":48.3720703125,"response_time":1690325205521.99},{"trial":4,"action":9,"button_pressed":-1,"time_out":false,"dwell_time":64.5810546875,"response_time":1690325206838.18},{"trial":5,"action":1,"button_pressed":5,"time_out":false,"dwell_time":64.197998046875,"response_time":1690325226281.69},{"trial":5,"action":1,"button_pressed":3,"time_out":false,"dwell_time":64.77001953125,"response_time":1690325226581.38},{"trial":5,"action":1,"button_pressed":8,"time_out":false,"dwell_time":47.025146484375,"response_time":1690325227447.63},{"trial":5,"action":1,"button_pressed":11,"time_out":false,"dwell_time":64.5400390625,"response_time":1690325227780.94},{"trial":5,"action":1,"button_pressed":7,"time_out":false,"dwell_time":63.659912109375,"response_time":1690325228030.25},{"trial":5,"action":1,"button_pressed":4,"time_out":false,"dwell_time":63.947021484375,"response_time":1690325228446.71},{"trial":5,"action":1,"button_pressed":10,"time_out":false,"dwell_time":47.618896484375,"response_time":1690325228747.78},{"trial":5,"action":9,"button_pressed":-1,"time_out":false,"dwell_time":65.02294921875,"response_time":1690325229514.2},{"trial":6,"action":1,"button_pressed":6,"time_out":false,"dwell_time":64.016845703125,"response_time":1690325251923.23},{"trial":6,"action":1,"button_pressed":0,"time_out":false,"dwell_time":81.34814453125,"response_time":1690325252273},{"trial":6,"action":1,"button_pressed":5,"time_out":false,"dwell_time":81.06201171875,"response_time":1690325252572.55},{"trial":6,"action":1,"button_pressed":10,"time_out":false,"dwell_time":81.177001953125,"response_time":1690325253172.78},{"trial":6,"action":1,"button_pressed":3,"time_out":false,"dwell_time":47.06005859375,"response_time":1690325254055.52},{"trial":6,"action":1,"button_pressed":8,"time_out":false,"dwell_time":63.1708984375,"response_time":1690325254921.42},{"trial":6,"action":1,"button_pressed":1,"time_out":false,"dwell_time":63.946044921875,"response_time":1690325255471.46},{"trial":6,"action":1,"button_pressed":7,"time_out":false,"dwell_time":46.72607421875,"response_time":1690325255771.71},{"trial":6,"action":9,"button_pressed":-1,"time_out":false,"dwell_time":64.43505859375,"response_time":1690325257088.76},{"trial":7,"action":1,"button_pressed":7,"time_out":false,"dwell_time":81.635986328125,"response_time":1690325279597.79},{"trial":7,"action":1,"button_pressed":5,"time_out":false,"dwell_time":114.035888671875,"response_time":1690325280529.96},{"trial":7,"action":1,"button_pressed":3,"time_out":false,"dwell_time":80.751953125,"response_time":1690325281297.06},{"trial":7,"action":1,"button_pressed":4,"time_out":false,"dwell_time":98.004150390625,"response_time":1690325281963.52},{"trial":7,"action":1,"button_pressed":1,"time_out":false,"dwell_time":80.657958984375,"response_time":1690325282563.32},{"trial":7,"action":1,"button_pressed":10,"time_out":false,"dwell_time":62.98095703125,"response_time":1690325283479.58},{"trial":7,"action":1,"button_pressed":2,"time_out":false,"dwell_time":47.086181640625,"response_time":1690325284312.46},{"trial":7,"action":9,"button_pressed":-1,"time_out":false,"dwell_time":48.202880859375,"response_time":1690325284829.38},{"trial":8,"action":1,"button_pressed":7,"time_out":false,"dwell_time":64.153076171875,"response_time":1690325302073.03},{"trial":8,"action":1,"button_pressed":0,"time_out":false,"dwell_time":63.031005859375,"response_time":1690325305205.02},{"trial":8,"action":1,"button_pressed":8,"time_out":false,"dwell_time":80.447021484375,"response_time":1690325305722.79},{"trial":8,"action":1,"button_pressed":3,"time_out":false,"dwell_time":64.80908203125,"response_time":1690325306155.6},{"trial":8,"action":1,"button_pressed":4,"time_out":false,"dwell_time":81.51708984375,"response_time":1690325306505.47},{"trial":8,"action":1,"button_pressed":1,"time_out":false,"dwell_time":64.756103515625,"response_time":1690325306888.7},{"trial":8,"action":9,"button_pressed":-1,"time_out":false,"dwell_time":65.656982421875,"response_time":1690325313153.84},{"trial":9,"action":1,"button_pressed":6,"time_out":false,"dwell_time":80.883056640625,"response_time":1690325330481.2},{"trial":9,"action":1,"button_pressed":5,"time_out":false,"dwell_time":46.872802734375,"response_time":1690325331980.12},{"trial":9,"action":1,"button_pressed":0,"time_out":false,"dwell_time":63.31494140625,"response_time":1690325332546.43},{"trial":9,"action":1,"button_pressed":11,"time_out":false,"dwell_time":64.2880859375,"response_time":1690325332980.07},{"trial":9,"action":1,"button_pressed":8,"time_out":false,"dwell_time":63.805908203125,"response_time":1690325333429.91},{"trial":9,"action":1,"button_pressed":4,"time_out":false,"dwell_time":64.0048828125,"response_time":1690325333813.16},{"trial":9,"action":9,"button_pressed":-1,"time_out":false,"dwell_time":82.219970703125,"response_time":1690325334880.21},{"trial":10,"action":1,"button_pressed":4,"time_out":false,"dwell_time":113.64404296875,"response_time":1690325358704.54},{"trial":10,"action":1,"button_pressed":8,"time_out":false,"dwell_time":97.282958984375,"response_time":1690325359254.16},{"trial":10,"action":1,"button_pressed":5,"time_out":false,"dwell_time":114.16015625,"response_time":1690325359753.99},{"trial":10,"action":1,"button_pressed":6,"time_out":false,"dwell_time":79.705810546875,"response_time":1690325360437.07},{"trial":10,"action":1,"button_pressed":10,"time_out":false,"dwell_time":63.758056640625,"response_time":1690325360871.03},{"trial":10,"action":1,"button_pressed":2,"time_out":false,"dwell_time":96.57080078125,"response_time":1690325361286.8},{"trial":10,"action":1,"button_pressed":9,"time_out":false,"dwell_time":47.052978515625,"response_time":1690325361687.24},{"trial":10,"action":9,"button_pressed":-1,"time_out":false,"dwell_time":48.176025390625,"response_time":1690325363853.89},{"trial":11,"action":1,"button_pressed":1,"time_out":false,"dwell_time":80.4580078125,"response_time":1690325383846.49},{"trial":11,"action":1,"button_pressed":9,"time_out":false,"dwell_time":81.01611328125,"response_time":1690325384213.54},{"trial":11,"action":1,"button_pressed":7,"time_out":false,"dwell_time":64.688232421875,"response_time":1690325384613.35},{"trial":11,"action":1,"button_pressed":5,"time_out":false,"dwell_time":81.444091796875,"response_time":1690325385113.15},{"trial":11,"action":1,"button_pressed":11,"time_out":false,"dwell_time":64.56396484375,"response_time":1690325385562.83},{"trial":11,"action":1,"button_pressed":2,"time_out":false,"dwell_time":64.10009765625,"response_time":1690325386062.73},{"trial":11,"action":1,"button_pressed":3,"time_out":false,"dwell_time":47.72998046875,"response_time":1690325386462.29},{"trial":11,"action":9,"button_pressed":-1,"time_out":false,"dwell_time":64.507080078125,"response_time":1690325386928.87}]}