{"meta_data":{"additional_headers":{},"game_name":"Recollect","version":"2.53.01","user_name":"13","organization":"braingamecenter","study":"mpl2_2022_11","session_number":0,"device_id":"74342D95-EE82-45E3-8ADF-48FB3203C5DD"},"data":[{"trial":0,"action":1,"button_pressed":2,"time_out":false,"dwell_time":82.094970703125,"response_time":1676052911960.63},{"trial":0,"action":1,"button_pressed":9,"time_out":false,"dwell_time":98.454833984375,"response_time":1676052912277},{"trial":0,"action":9,"button_pressed":-1,"time_out":false,"dwell_time":25.90185546875,"response_time":1676052913085.31},{"trial":1,"action":1,"button_pressed":3,"time_out":false,"dwell_time":80.81201171875,"response_time":1676052922740.01},{"trial":1,"action":1,"button_pressed":9,"time_out":false,"dwell_time":80.884033203125,"response_time":1676052923256.08},{"trial":1,"action":1,"button_pressed":7,"time_out":false,"dwell_time":47.43701171875,"response_time":1676052923723.3},{"trial":1,"action":9,"button_pressed":-1,"time_out":false,"dwell_time":80.630126953125,"response_time":1676052924506.11},{"trial":2,"action":1,"button_pressed":3,"time_out":false,"dwell_time":64.4150390625,"response_time":1676052936535.8},{"trial":2,"action":1,"button_pressed":5,"time_out":false,"dwell_time":64.18798828125,"response_time":1676052936851.41},{"trial":2,"action":1,"button_pressed":9,"time_out":false,"dwell_time":80.97509765625,"response_time":1676052937252.17},{"trial":2,"action":1,"button_pressed":2,"time_out":false,"dwell_time":30.8671875,"response_time":1676052937685.09},{"trial":2,"action":9,"button_pressed":-1,"time_out":false,"dwell_time":115.10302734375,"response_time":1676052938152.57},{"trial":3,"action":1,"button_pressed":7,"time_out":false,"dwell_time":64.3671875,"response_time":1676052952780.48},{"trial":3,"action":1,"button_pressed":4,"time_out":false,"dwell_time":81.458984375,"response_time":1676052953030.25},{"trial":3,"action":1,"button_pressed":11,"time_out":false,"dwell_time":64.38818359375,"response_time":1676052953346.83},{"trial":3,"action":1,"button_pressed":3,"time_out":false,"dwell_time":81.81396484375,"response_time":1676052953763.25},{"trial":3,"action":1,"button_pressed":10,"time_out":false,"dwell_time":64.35693359375,"response_time":1676052954195.83},{"trial":3,"action":9,"button_pressed":-1,"time_out":false,"dwell_time":17.070068359375,"response_time":1676052956245.34},{"trial":4,"action":1,"button_pressed":8,"time_out":false,"dwell_time":81.322998046875,"response_time":1676052973606.15},{"trial":4,"action":1,"button_pressed":0,"time_out":false,"dwell_time":80.9580078125,"response_time":1676052973989.88},{"trial":4,"action":1,"button_pressed":1,"time_out":false,"dwell_time":81.751953125,"response_time":1676052974922.86},{"trial":4,"action":1,"button_pressed":9,"time_out":false,"dwell_time":64.402099609375,"response_time":1676052975405.29},{"trial":4,"action":1,"button_pressed":3,"time_out":false,"dwell_time":63.9609375,"response_time":1676052975805.43},{"trial":4,"action":1,"button_pressed":5,"time_out":false,"dwell_time":81.339111328125,"response_time":1676052976422.28},{"trial":4,"action":9,"button_pressed":-1,"time_out":false,"dwell_time":47.859130859375,"response_time":1676052976905.65},{"trial":5,"action":1,"button_pressed":7,"time_out":false,"dwell_time":82.09716796875,"response_time":1676052996649.21},{"trial":5,"action":1,"button_pressed":9,"time_out":false,"dwell_time":48.505859375,"response_time":1676052996999.09},{"trial":5,"action":1,"button_pressed":4,"time_out":false,"dwell_time":65.159912109375,"response_time":1676052997348.6},{"trial":5,"action":1,"button_pressed":1,"time_out":false,"dwell_time":32.31005859375,"response_time":1676052997699.04},{"trial":5,"action":1,"button_pressed":11,"time_out":false,"dwell_time":81.796875,"response_time":1676052998414.94},{"trial":5,"action":1,"button_pressed":6,"time_out":false,"dwell_time":81.694091796875,"response_time":1676052998798.19},{"trial":5,"action":1,"button_pressed":8,"time_out":false,"dwell_time":64.73095703125,"response_time":1676052999048},{"trial":5,"action":9,"button_pressed":-1,"time_out":false,"dwell_time":98.10791015625,"response_time":1676052999830.79},{"trial":6,"action":1,"button_pressed":8,"time_out":false,"dwell_time":47.552001953125,"response_time":1676053021623.61},{"trial":6,"action":1,"button_pressed":6,"time_out":false,"dwell_time":97.705810546875,"response_time":1676053022006.32},{"trial":6,"action":1,"button_pressed":6,"time_out":false,"dwell_time":80.4111328125,"response_time":1676053023206.02},{"trial":6,"action":1,"button_pressed":8,"time_out":false,"dwell_time":48.63916015625,"response_time":1676053023523.54},{"trial":6,"action":1,"button_pressed":8,"time_out":false,"dwell_time":30.756103515625,"response_time":1676053024989.05},{"trial":6,"action":0,"button_pressed":-1,"time_out":false,"dwell_time":82.110107421875,"response_time":1676053027822.05},{"trial":6,"action":1,"button_pressed":5,"time_out":false,"dwell_time":115.080078125,"response_time":1676053029704.43},{"trial":6,"action":1,"button_pressed":3,"time_out":false,"dwell_time":97.81005859375,"response_time":1676053030103.61},{"trial":6,"action":1,"button_pressed":8,"time_out":false,"dwell_time":114.510009765625,"response_time":1676053031153.43},{"trial":6,"action":1,"button_pressed":6,"time_out":false,"dwell_time":147.56201171875,"response_time":1676053031537.25},{"trial":6,"action":1,"button_pressed":7,"time_out":false,"dwell_time":163.595947265625,"response_time":1676053038117.61},{"trial":6,"action":1,"button_pressed":10,"time_out":false,"dwell_time":115.009033203125,"response_time":1676053038951.37},{"trial":6,"action":1,"button_pressed":11,"time_out":false,"dwell_time":81.18212890625,"response_time":1676053039317.3},{"trial":6,"action":9,"button_pressed":-1,"time_out":false,"dwell_time":64.283203125,"response_time":1676053040500.7},{"trial":7,"action":1,"button_pressed":0,"time_out":false,"dwell_time":63.921875,"response_time":1676053055145.35},{"trial":7,"action":1,"button_pressed":7,"time_out":false,"dwell_time":80.943115234375,"response_time":1676053055412.48},{"trial":7,"action":1,"button_pressed":10,"time_out":false,"dwell_time":64.294921875,"response_time":1676053055694.94},{"trial":7,"action":1,"button_pressed":4,"time_out":false,"dwell_time":64.61279296875,"response_time":1676053056028.36},{"trial":7,"action":1,"button_pressed":1,"time_out":false,"dwell_time":64.551025390625,"response_time":1676053056328.09},{"trial":7,"action":9,"button_pressed":-1,"time_out":false,"dwell_time":16.887939453125,"response_time":1676053056994.83},{"trial":8,"action":1,"button_pressed":1,"time_out":false,"dwell_time":81.16796875,"response_time":1676053074156.42},{"trial":8,"action":1,"button_pressed":5,"time_out":false,"dwell_time":131.16796875,"response_time":1676053075539.27},{"trial":8,"action":1,"button_pressed":6,"time_out":false,"dwell_time":63.4521484375,"response_time":1676053076104.86},{"trial":8,"action":1,"button_pressed":9,"time_out":false,"dwell_time":98.322998046875,"response_time":1676053076555.35},{"trial":8,"action":1,"button_pressed":7,"time_out":false,"dwell_time":64.865966796875,"response_time":1676053076955.24},{"trial":8,"action":1,"button_pressed":2,"time_out":false,"dwell_time":65.163818359375,"response_time":1676053077521.77},{"trial":8,"action":9,"button_pressed":-1,"time_out":false,"dwell_time":82.325927734375,"response_time":1676053079171.73},{"trial":9,"action":1,"button_pressed":4,"time_out":false,"dwell_time":64.802978515625,"response_time":1676053096198.67},{"trial":9,"action":1,"button_pressed":11,"time_out":false,"dwell_time":81.572998046875,"response_time":1676053096448.77},{"trial":9,"action":1,"button_pressed":3,"time_out":false,"dwell_time":47.510009765625,"response_time":1676053096748.44},{"trial":9,"action":1,"button_pressed":2,"time_out":false,"dwell_time":63.7822265625,"response_time":1676053097764.3},{"trial":9,"action":1,"button_pressed":10,"time_out":false,"dwell_time":48.11181640625,"response_time":1676053098198.63},{"trial":9,"action":1,"button_pressed":6,"time_out":false,"dwell_time":81.737060546875,"response_time":1676053098531.43},{"trial":9,"action":9,"button_pressed":-1,"time_out":false,"dwell_time":81.281982421875,"response_time":1676053099115.09},{"trial":10,"action":1,"button_pressed":2,"time_out":false,"dwell_time":63.64501953125,"response_time":1676053118690.76},{"trial":10,"action":1,"button_pressed":6,"time_out":false,"dwell_time":64.298095703125,"response_time":1676053118940.5},{"trial":10,"action":1,"button_pressed":9,"time_out":false,"dwell_time":47.468017578125,"response_time":1676053119274.2},{"trial":10,"action":1,"button_pressed":0,"time_out":false,"dwell_time":65.192138671875,"response_time":1676053119674.27},{"trial":10,"action":1,"button_pressed":3,"time_out":false,"dwell_time":80.4228515625,"response_time":1676053120056.94},{"trial":10,"action":1,"button_pressed":10,"time_out":false,"dwell_time":64.119140625,"response_time":1676053120373.38},{"trial":10,"action":1,"button_pressed":7,"time_out":false,"dwell_time":48.06103515625,"response_time":1676053120691.06},{"trial":10,"action":9,"button_pressed":-1,"time_out":false,"dwell_time":17.93896484375,"response_time":1676053121324.39},{"trial":11,"action":1,"button_pressed":7,"time_out":false,"dwell_time":80.41796875,"response_time":1676053143715.81},{"trial":11,"action":1,"button_pressed":5,"time_out":false,"dwell_time":48.197998046875,"response_time":1676053144199.24},{"trial":11,"action":1,"button_pressed":3,"time_out":false,"dwell_time":63.583984375,"response_time":1676053144582.04},{"trial":11,"action":1,"button_pressed":4,"time_out":false,"dwell_time":64.555908203125,"response_time":1676053144899.05},{"trial":11,"action":1,"button_pressed":1,"time_out":false,"dwell_time":64.684814453125,"response_time":1676053145198.67},{"trial":11,"action":1,"button_pressed":10,"time_out":false,"dwell_time":64.51318359375,"response_time":1676053145581.85},{"trial":11,"action":1,"button_pressed":2,"time_out":false,"dwell_time":64.35498046875,"response_time":1676053146432.13},{"trial":11,"action":1,"button_pressed":8,"time_out":false,"dwell_time":13.7890625,"response_time":1676053146832.01},{"trial":11,"action":9,"button_pressed":-1,"time_out":false,"dwell_time":98.678955078125,"response_time":1676053149431.74},{"trial":12,"action":1,"button_pressed":6,"time_out":false,"dwell_time":65.201904296875,"response_time":1676053174306.43},{"trial":12,"action":1,"button_pressed":7,"time_out":false,"dwell_time":80.214111328125,"response_time":1676053174755.28},{"trial":12,"action":1,"button_pressed":8,"time_out":false,"dwell_time":64.141845703125,"response_time":1676053175255.08},{"trial":12,"action":1,"button_pressed":10,"time_out":false,"dwell_time":48.401123046875,"response_time":1676053175873.03},{"trial":12,"action":1,"button_pressed":3,"time_out":false,"dwell_time":81.053955078125,"response_time":1676053176488.02},{"trial":12,"action":1,"button_pressed":11,"time_out":false,"dwell_time":130.847900390625,"response_time":1676053182203.57},{"trial":12,"action":1,"button_pressed":1,"time_out":false,"dwell_time":48.140869140625,"response_time":1676053182752.98},{"trial":12,"action":1,"button_pressed":9,"time_out":false,"dwell_time":63.512939453125,"response_time":1676053183719.08},{"trial":12,"action":9,"button_pressed":-1,"time_out":false,"dwell_time":50.48193359375,"response_time":1676053184336.57},{"trial":13,"action":1,"button_pressed":2,"time_out":false,"dwell_time":30.906005859375,"response_time":1676053210993.78},{"trial":13,"action":1,"button_pressed":6,"time_out":false,"dwell_time":113.8330078125,"response_time":1676053211393.18},{"trial":13,"action":1,"button_pressed":3,"time_out":false,"dwell_time":81.087890625,"response_time":1676053211792.85},{"trial":13,"action":1,"button_pressed":0,"time_out":false,"dwell_time":98.527099609375,"response_time":1676053212193.59},{"trial":13,"action":1,"button_pressed":4,"time_out":false,"dwell_time":80.778076171875,"response_time":1676053215042.15},{"trial":13,"action":1,"button_pressed":7,"time_out":false,"dwell_time":148.506103515625,"response_time":1676053215909},{"trial":13,"action":1,"button_pressed":10,"time_out":false,"dwell_time":80.156005859375,"response_time":1676053216824.58},{"trial":13,"action":1,"button_pressed":9,"time_out":false,"dwell_time":97.05810546875,"response_time":1676053221106.57},{"trial":13,"action":1,"button_pressed":5,"time_out":false,"dwell_time":64.745849609375,"response_time":1676053221307.12},{"trial":13,"action":9,"button_pressed":-1,"time_out":false,"dwell_time":81.304931640625,"response_time":1676053222023.86}]}