{"meta_data":{"additional_headers":{},"game_name":"Recollect","version":"2.53.01","user_name":"14","organization":"braingamecenter","study":"mpl2_2022_11","session_number":0,"device_id":"74342D95-EE82-45E3-8ADF-48FB3203C5DD"},"data":[{"trial":0,"action":1,"button_pressed":1,"time_out":false,"dwell_time":31.071044921875,"response_time":1676065303405.87},{"trial":0,"action":1,"button_pressed":5,"time_out":false,"dwell_time":30.8330078125,"response_time":1676065303672.38},{"trial":0,"action":9,"button_pressed":-1,"time_out":false,"dwell_time":59.22705078125,"response_time":1676065304149.87},{"trial":1,"action":1,"button_pressed":3,"time_out":false,"dwell_time":47.594970703125,"response_time":1676065313669.11},{"trial":1,"action":1,"button_pressed":9,"time_out":false,"dwell_time":48.955810546875,"response_time":1676065313936.24},{"trial":1,"action":1,"button_pressed":7,"time_out":false,"dwell_time":31.52099609375,"response_time":1676065314235.5},{"trial":1,"action":9,"button_pressed":-1,"time_out":false,"dwell_time":49.25,"response_time":1676065314686.56},{"trial":2,"action":1,"button_pressed":11,"time_out":false,"dwell_time":49.194091796875,"response_time":1676065326665.57},{"trial":2,"action":1,"button_pressed":0,"time_out":false,"dwell_time":65.153076171875,"response_time":1676065326981.56},{"trial":2,"action":1,"button_pressed":4,"time_out":false,"dwell_time":65.153076171875,"response_time":1676065327331.38},{"trial":2,"action":1,"button_pressed":1,"time_out":false,"dwell_time":48.31689453125,"response_time":1676065327615.18},{"trial":2,"action":9,"button_pressed":-1,"time_out":false,"dwell_time":31.958984375,"response_time":1676065327964.89},{"trial":3,"action":1,"button_pressed":11,"time_out":false,"dwell_time":48.176025390625,"response_time":1676065342543.52},{"trial":3,"action":1,"button_pressed":1,"time_out":false,"dwell_time":64.491943359375,"response_time":1676065342825.63},{"trial":3,"action":1,"button_pressed":9,"time_out":false,"dwell_time":98.31982421875,"response_time":1676065343109.5},{"trial":3,"action":1,"button_pressed":7,"time_out":false,"dwell_time":32.349853515625,"response_time":1676065343793.18},{"trial":3,"action":1,"button_pressed":4,"time_out":false,"dwell_time":48.239013671875,"response_time":1676065344159.66},{"trial":3,"action":9,"button_pressed":-1,"time_out":false,"dwell_time":32.7060546875,"response_time":1676065344576.73},{"trial":4,"action":1,"button_pressed":6,"time_out":false,"dwell_time":30.94091796875,"response_time":1676065361453.51},{"trial":4,"action":1,"button_pressed":0,"time_out":false,"dwell_time":64.3330078125,"response_time":1676065361753.3},{"trial":4,"action":1,"button_pressed":5,"time_out":false,"dwell_time":49.177978515625,"response_time":1676065362420.37},{"trial":4,"action":1,"button_pressed":11,"time_out":false,"dwell_time":31.62890625,"response_time":1676065362903.64},{"trial":4,"action":1,"button_pressed":4,"time_out":false,"dwell_time":64.447021484375,"response_time":1676065363302.27},{"trial":4,"action":1,"button_pressed":8,"time_out":false,"dwell_time":47.53515625,"response_time":1676065363536.02},{"trial":4,"action":9,"button_pressed":-1,"time_out":false,"dwell_time":47.651123046875,"response_time":1676065364019.57},{"trial":5,"action":1,"button_pressed":10,"time_out":false,"dwell_time":64.152099609375,"response_time":1676065381130.26},{"trial":5,"action":1,"button_pressed":2,"time_out":false,"dwell_time":64.664794921875,"response_time":1676065381463.02},{"trial":5,"action":1,"button_pressed":9,"time_out":false,"dwell_time":48.150146484375,"response_time":1676065381830.58},{"trial":5,"action":1,"button_pressed":5,"time_out":false,"dwell_time":48.39501953125,"response_time":1676065382179.91},{"trial":5,"action":1,"button_pressed":11,"time_out":false,"dwell_time":64.846923828125,"response_time":1676065382829.63},{"trial":5,"action":1,"button_pressed":0,"time_out":false,"dwell_time":64.9658203125,"response_time":1676065383212.74},{"trial":5,"action":9,"button_pressed":-1,"time_out":false,"dwell_time":65.863037109375,"response_time":1676065383564.37},{"trial":6,"action":1,"button_pressed":11,"time_out":false,"dwell_time":31.726806640625,"response_time":1676065403389.59},{"trial":6,"action":1,"button_pressed":4,"time_out":false,"dwell_time":63.56494140625,"response_time":1676065403705.59},{"trial":6,"action":1,"button_pressed":3,"time_out":false,"dwell_time":31.627197265625,"response_time":1676065403989.4},{"trial":6,"action":1,"button_pressed":10,"time_out":false,"dwell_time":63.662109375,"response_time":1676065404305.38},{"trial":6,"action":1,"button_pressed":2,"time_out":false,"dwell_time":48.405029296875,"response_time":1676065404673.24},{"trial":6,"action":1,"button_pressed":8,"time_out":false,"dwell_time":48.754150390625,"response_time":1676065404989.56},{"trial":6,"action":1,"button_pressed":1,"time_out":false,"dwell_time":31.73388671875,"response_time":1676065405355.71},{"trial":6,"action":9,"button_pressed":-1,"time_out":false,"dwell_time":64.779052734375,"response_time":1676065405972.03},{"trial":7,"action":1,"button_pressed":1,"time_out":false,"dwell_time":231.152099609375,"response_time":1676065428431.62},{"trial":7,"action":1,"button_pressed":10,"time_out":false,"dwell_time":48.02685546875,"response_time":1676065429464.88},{"trial":7,"action":1,"button_pressed":0,"time_out":false,"dwell_time":97.875,"response_time":1676065429813.79},{"trial":7,"action":1,"button_pressed":3,"time_out":false,"dwell_time":81.151123046875,"response_time":1676065430064.35},{"trial":7,"action":1,"button_pressed":2,"time_out":false,"dwell_time":80.97900390625,"response_time":1676065430480.95},{"trial":7,"action":1,"button_pressed":7,"time_out":false,"dwell_time":64.275146484375,"response_time":1676065431014.13},{"trial":7,"action":1,"button_pressed":4,"time_out":false,"dwell_time":64.47705078125,"response_time":1676065431463.91},{"trial":7,"action":9,"button_pressed":-1,"time_out":false,"dwell_time":64.762939453125,"response_time":1676065433530.16},{"trial":8,"action":1,"button_pressed":11,"time_out":false,"dwell_time":65.39599609375,"response_time":1676065455839.34},{"trial":8,"action":1,"button_pressed":3,"time_out":false,"dwell_time":63.820068359375,"response_time":1676065456171.83},{"trial":8,"action":1,"button_pressed":7,"time_out":false,"dwell_time":65.06494140625,"response_time":1676065456805.63},{"trial":8,"action":1,"button_pressed":4,"time_out":false,"dwell_time":63.726806640625,"response_time":1676065457188.11},{"trial":8,"action":1,"button_pressed":10,"time_out":false,"dwell_time":47.7509765625,"response_time":1676065457438.94},{"trial":8,"action":1,"button_pressed":2,"time_out":false,"dwell_time":81.091064453125,"response_time":1676065457755.21},{"trial":8,"action":1,"button_pressed":1,"time_out":false,"dwell_time":64.257080078125,"response_time":1676065458071.76},{"trial":8,"action":9,"button_pressed":-1,"time_out":false,"dwell_time":64.968017578125,"response_time":1676065458471.43},{"trial":9,"action":1,"button_pressed":7,"time_out":false,"dwell_time":48.883056640625,"response_time":1676065475416.62},{"trial":9,"action":1,"button_pressed":3,"time_out":false,"dwell_time":47.6279296875,"response_time":1676065475815.76},{"trial":9,"action":1,"button_pressed":10,"time_out":false,"dwell_time":64.827880859375,"response_time":1676065476165.68},{"trial":9,"action":1,"button_pressed":4,"time_out":false,"dwell_time":63.745849609375,"response_time":1676065476414.94},{"trial":9,"action":1,"button_pressed":2,"time_out":false,"dwell_time":97.778076171875,"response_time":1676065476698.96},{"trial":9,"action":1,"button_pressed":9,"time_out":false,"dwell_time":30.662109375,"response_time":1676065477664.95},{"trial":9,"action":9,"button_pressed":-1,"time_out":false,"dwell_time":64.657958984375,"response_time":1676065479181.72},{"trial":10,"action":1,"button_pressed":9,"time_out":false,"dwell_time":81.922119140625,"response_time":1676065496076.01},{"trial":10,"action":1,"button_pressed":1,"time_out":false,"dwell_time":64.4951171875,"response_time":1676065496525.03},{"trial":10,"action":1,"button_pressed":8,"time_out":false,"dwell_time":47.31005859375,"response_time":1676065496975.34},{"trial":10,"action":1,"button_pressed":2,"time_out":false,"dwell_time":48.769775390625,"response_time":1676065497392.59},{"trial":10,"action":1,"button_pressed":6,"time_out":false,"dwell_time":63.679931640625,"response_time":1676065497808.02},{"trial":10,"action":1,"button_pressed":11,"time_out":false,"dwell_time":47.47802734375,"response_time":1676065498124.43},{"trial":10,"action":9,"button_pressed":-1,"time_out":false,"dwell_time":64.077880859375,"response_time":1676065498908}]}