{"meta_data":{"additional_headers":{},"game_name":"Recollect","version":"2.53.01","user_name":"15","organization":"braingamecenter","study":"mpl2_2022_11","session_number":0,"device_id":"74342D95-EE82-45E3-8ADF-48FB3203C5DD"},"data":[{"trial":0,"action":1,"button_pressed":10,"time_out":false,"dwell_time":81.153076171875,"response_time":1676309540638.44},{"trial":0,"action":1,"button_pressed":7,"time_out":false,"dwell_time":64.143798828125,"response_time":1676309541021.45},{"trial":0,"action":9,"button_pressed":-1,"time_out":false,"dwell_time":27.908935546875,"response_time":1676309541681.76},{"trial":1,"action":1,"button_pressed":1,"time_out":false,"dwell_time":81.091796875,"response_time":1676309551967.95},{"trial":1,"action":1,"button_pressed":6,"time_out":false,"dwell_time":97.212158203125,"response_time":1676309552267.12},{"trial":1,"action":1,"button_pressed":8,"time_out":false,"dwell_time":164.89599609375,"response_time":1676309552800.94},{"trial":1,"action":9,"button_pressed":-1,"time_out":false,"dwell_time":16.929931640625,"response_time":1676309553533.53},{"trial":2,"action":1,"button_pressed":10,"time_out":false,"dwell_time":30.720947265625,"response_time":1676309566379.51},{"trial":2,"action":1,"button_pressed":3,"time_out":false,"dwell_time":115.2568359375,"response_time":1676309566863.03},{"trial":2,"action":1,"button_pressed":6,"time_out":false,"dwell_time":63.887939453125,"response_time":1676309567162.43},{"trial":2,"action":1,"button_pressed":8,"time_out":false,"dwell_time":64.117919921875,"response_time":1676309567579.21},{"trial":2,"action":9,"button_pressed":-1,"time_out":false,"dwell_time":115.3740234375,"response_time":1676309568312.73},{"trial":3,"action":1,"button_pressed":1,"time_out":false,"dwell_time":64.40087890625,"response_time":1676309583374.07},{"trial":3,"action":1,"button_pressed":10,"time_out":false,"dwell_time":48.35107421875,"response_time":1676309583757.21},{"trial":3,"action":1,"button_pressed":0,"time_out":false,"dwell_time":47.487060546875,"response_time":1676309584056.85},{"trial":3,"action":1,"button_pressed":9,"time_out":false,"dwell_time":64.406005859375,"response_time":1676309584306.37},{"trial":3,"action":1,"button_pressed":5,"time_out":false,"dwell_time":81.86279296875,"response_time":1676309584757.04},{"trial":3,"action":9,"button_pressed":-1,"time_out":false,"dwell_time":81.86279296875,"response_time":1676309585423.79},{"trial":4,"action":1,"button_pressed":4,"time_out":false,"dwell_time":47.4609375,"response_time":1676309602700.8},{"trial":4,"action":1,"button_pressed":11,"time_out":false,"dwell_time":64.279052734375,"response_time":1676309603616.64},{"trial":4,"action":1,"button_pressed":3,"time_out":false,"dwell_time":48.531005859375,"response_time":1676309603967.66},{"trial":4,"action":1,"button_pressed":10,"time_out":false,"dwell_time":47.27197265625,"response_time":1676309604450.12},{"trial":4,"action":1,"button_pressed":2,"time_out":false,"dwell_time":64.237060546875,"response_time":1676309604833.55},{"trial":4,"action":1,"button_pressed":6,"time_out":false,"dwell_time":64.43896484375,"response_time":1676309605216.44},{"trial":4,"action":9,"button_pressed":-1,"time_out":false,"dwell_time":82.569091796875,"response_time":1676309606218.16},{"trial":5,"action":1,"button_pressed":1,"time_out":false,"dwell_time":64.511962890625,"response_time":1676309623777.48},{"trial":5,"action":1,"button_pressed":6,"time_out":false,"dwell_time":80.2939453125,"response_time":1676309624093.42},{"trial":5,"action":1,"button_pressed":9,"time_out":false,"dwell_time":81.822998046875,"response_time":1676309624360.56},{"trial":5,"action":1,"button_pressed":7,"time_out":false,"dwell_time":48.10595703125,"response_time":1676309625144.05},{"trial":5,"action":1,"button_pressed":2,"time_out":false,"dwell_time":47.532958984375,"response_time":1676309625659.99},{"trial":5,"action":1,"button_pressed":2,"time_out":false,"dwell_time":64.642822265625,"response_time":1676309626625.89},{"trial":5,"action":1,"button_pressed":7,"time_out":false,"dwell_time":47.31787109375,"response_time":1676309627342.67},{"trial":5,"action":1,"button_pressed":5,"time_out":false,"dwell_time":47.548828125,"response_time":1676309628492.29},{"trial":5,"action":1,"button_pressed":5,"time_out":false,"dwell_time":47.611083984375,"response_time":1676309629675.29},{"trial":5,"action":1,"button_pressed":5,"time_out":false,"dwell_time":81.77099609375,"response_time":1676309630291.86},{"trial":5,"action":0,"button_pressed":-1,"time_out":false,"dwell_time":64.489990234375,"response_time":1676309631191.12},{"trial":5,"action":1,"button_pressed":1,"time_out":false,"dwell_time":64.5419921875,"response_time":1676309631907.46},{"trial":5,"action":1,"button_pressed":6,"time_out":false,"dwell_time":81.64306640625,"response_time":1676309632257.9},{"trial":5,"action":1,"button_pressed":9,"time_out":false,"dwell_time":63.626953125,"response_time":1676309632523.79},{"trial":5,"action":1,"button_pressed":5,"time_out":false,"dwell_time":48.3701171875,"response_time":1676309632924.19},{"trial":5,"action":1,"button_pressed":7,"time_out":false,"dwell_time":48.205810546875,"response_time":1676309633474.01},{"trial":5,"action":1,"button_pressed":2,"time_out":false,"dwell_time":48.225830078125,"response_time":1676309634041.16},{"trial":5,"action":9,"button_pressed":-1,"time_out":false,"dwell_time":64.108154296875,"response_time":1676309634656.99},{"trial":6,"action":1,"button_pressed":6,"time_out":false,"dwell_time":63.701904296875,"response_time":1676309647169.18},{"trial":6,"action":1,"button_pressed":8,"time_out":false,"dwell_time":81.10595703125,"response_time":1676309647535.68},{"trial":6,"action":1,"button_pressed":11,"time_out":false,"dwell_time":47.0400390625,"response_time":1676309647985.87},{"trial":6,"action":1,"button_pressed":7,"time_out":false,"dwell_time":47.2890625,"response_time":1676309648202.51},{"trial":6,"action":9,"button_pressed":-1,"time_out":false,"dwell_time":64.114990234375,"response_time":1676309648835.68},{"trial":7,"action":1,"button_pressed":2,"time_out":false,"dwell_time":64.492919921875,"response_time":1676309663497.79},{"trial":7,"action":1,"button_pressed":6,"time_out":false,"dwell_time":81.81005859375,"response_time":1676309663930.88},{"trial":7,"action":1,"button_pressed":7,"time_out":false,"dwell_time":47.347900390625,"response_time":1676309664230.61},{"trial":7,"action":1,"button_pressed":0,"time_out":false,"dwell_time":48.215087890625,"response_time":1676309664647.07},{"trial":7,"action":1,"button_pressed":8,"time_out":false,"dwell_time":64.9091796875,"response_time":1676309665113.76},{"trial":7,"action":9,"button_pressed":-1,"time_out":false,"dwell_time":81.373046875,"response_time":1676309665780.73},{"trial":8,"action":1,"button_pressed":8,"time_out":false,"dwell_time":47.72607421875,"response_time":1676309682941.34},{"trial":8,"action":1,"button_pressed":0,"time_out":false,"dwell_time":47.37890625,"response_time":1676309683424.11},{"trial":8,"action":1,"button_pressed":1,"time_out":false,"dwell_time":81.73486328125,"response_time":1676309683891.09},{"trial":8,"action":1,"button_pressed":9,"time_out":false,"dwell_time":98.321044921875,"response_time":1676309684324.07},{"trial":8,"action":1,"button_pressed":3,"time_out":false,"dwell_time":64.3798828125,"response_time":1676309684673.24},{"trial":8,"action":1,"button_pressed":5,"time_out":false,"dwell_time":81.031005859375,"response_time":1676309685157.24},{"trial":8,"action":9,"button_pressed":-1,"time_out":false,"dwell_time":98.141845703125,"response_time":1676309685724.09},{"trial":9,"action":1,"button_pressed":11,"time_out":false,"dwell_time":48.2109375,"response_time":1676309705950.93},{"trial":9,"action":1,"button_pressed":4,"time_out":false,"dwell_time":81.858154296875,"response_time":1676309706433.46},{"trial":9,"action":1,"button_pressed":3,"time_out":false,"dwell_time":82.591064453125,"response_time":1676309706833.44},{"trial":9,"action":1,"button_pressed":10,"time_out":false,"dwell_time":97.64794921875,"response_time":1676309707249.95},{"trial":9,"action":1,"button_pressed":2,"time_out":false,"dwell_time":80.281982421875,"response_time":1676309707648.96},{"trial":9,"action":1,"button_pressed":8,"time_out":false,"dwell_time":79.60693359375,"response_time":1676309708031.63},{"trial":9,"action":1,"button_pressed":1,"time_out":false,"dwell_time":65.14111328125,"response_time":1676309708482.68},{"trial":9,"action":9,"button_pressed":-1,"time_out":false,"dwell_time":82.191162109375,"response_time":1676309708883.01},{"trial":10,"action":1,"button_pressed":5,"time_out":false,"dwell_time":48.31396484375,"response_time":1676309731425.03},{"trial":10,"action":1,"button_pressed":6,"time_out":false,"dwell_time":81.511962890625,"response_time":1676309731924.61},{"trial":10,"action":1,"button_pressed":1,"time_out":false,"dwell_time":64.43798828125,"response_time":1676309732573.92},{"trial":10,"action":0,"button_pressed":-1,"time_out":false,"dwell_time":64.696044921875,"response_time":1676309734174.48},{"trial":10,"action":1,"button_pressed":5,"time_out":false,"dwell_time":64.27001953125,"response_time":1676309734657.25},{"trial":10,"action":1,"button_pressed":6,"time_out":false,"dwell_time":47.248046875,"response_time":1676309735173.54},{"trial":10,"action":1,"button_pressed":11,"time_out":false,"dwell_time":63.69287109375,"response_time":1676309735456.4},{"trial":10,"action":1,"button_pressed":1,"time_out":false,"dwell_time":64.509033203125,"response_time":1676309735889.64},{"trial":10,"action":1,"button_pressed":10,"time_out":false,"dwell_time":47.30810546875,"response_time":1676309736323.16},{"trial":10,"action":1,"button_pressed":4,"time_out":false,"dwell_time":48.23095703125,"response_time":1676309736656.43},{"trial":10,"action":1,"button_pressed":7,"time_out":false,"dwell_time":47.5458984375,"response_time":1676309737056.38},{"trial":10,"action":1,"button_pressed":0,"time_out":false,"dwell_time":31.683837890625,"response_time":1676309737472.86},{"trial":10,"action":9,"button_pressed":-1,"time_out":false,"dwell_time":81.447998046875,"response_time":1676309738122.78},{"trial":11,"action":1,"button_pressed":5,"time_out":false,"dwell_time":48.489990234375,"response_time":1676309761282.59},{"trial":11,"action":1,"button_pressed":6,"time_out":false,"dwell_time":97.544921875,"response_time":1676309762798.02},{"trial":11,"action":1,"button_pressed":3,"time_out":false,"dwell_time":97.72607421875,"response_time":1676309764564.07},{"trial":11,"action":1,"button_pressed":7,"time_out":false,"dwell_time":81.142822265625,"response_time":1676309765146.62},{"trial":11,"action":1,"button_pressed":1,"time_out":false,"dwell_time":64.79296875,"response_time":1676309765480.05},{"trial":11,"action":1,"button_pressed":9,"time_out":false,"dwell_time":81.72900390625,"response_time":1676309765946.99},{"trial":11,"action":1,"button_pressed":0,"time_out":false,"dwell_time":81.237060546875,"response_time":1676309766462.91},{"trial":11,"action":1,"button_pressed":10,"time_out":false,"dwell_time":64.286865234375,"response_time":1676309767029.86},{"trial":11,"action":9,"button_pressed":-1,"time_out":false,"dwell_time":98.95703125,"response_time":1676309767846.9}]}