{"meta_data":{"additional_headers":{},"game_name":"Recollect","version":"2.53.01","user_name":"18","organization":"braingamecenter","study":"mpl2_2022_11","session_number":0,"device_id":"74342D95-EE82-45E3-8ADF-48FB3203C5DD"},"data":[{"trial":0,"action":1,"button_pressed":6,"time_out":false,"dwell_time":81.16796875,"response_time":1676419304625.51},{"trial":0,"action":1,"button_pressed":10,"time_out":false,"dwell_time":81.101806640625,"response_time":1676419305091.89},{"trial":0,"action":9,"button_pressed":-1,"time_out":false,"dwell_time":90.98388671875,"response_time":1676419305984.12},{"trial":1,"action":1,"button_pressed":4,"time_out":false,"dwell_time":81.279052734375,"response_time":1676419315621.09},{"trial":1,"action":1,"button_pressed":7,"time_out":false,"dwell_time":81.655029296875,"response_time":1676419316388.11},{"trial":1,"action":1,"button_pressed":10,"time_out":false,"dwell_time":80.904052734375,"response_time":1676419317020.63},{"trial":1,"action":9,"button_pressed":-1,"time_out":false,"dwell_time":115.498046875,"response_time":1676419318987.6},{"trial":2,"action":1,"button_pressed":0,"time_out":false,"dwell_time":63.85986328125,"response_time":1676419331166.05},{"trial":2,"action":1,"button_pressed":10,"time_out":false,"dwell_time":64.18994140625,"response_time":1676419331832.94},{"trial":2,"action":1,"button_pressed":2,"time_out":false,"dwell_time":98.533935546875,"response_time":1676419332449.58},{"trial":2,"action":1,"button_pressed":6,"time_out":false,"dwell_time":64.1689453125,"response_time":1676419333065.24},{"trial":2,"action":9,"button_pressed":-1,"time_out":false,"dwell_time":82.805908203125,"response_time":1676419334249.94},{"trial":3,"action":1,"button_pressed":10,"time_out":false,"dwell_time":81.925048828125,"response_time":1676419349010.82},{"trial":3,"action":1,"button_pressed":5,"time_out":false,"dwell_time":64.327880859375,"response_time":1676419349493.74},{"trial":3,"action":1,"button_pressed":3,"time_out":false,"dwell_time":64.412109375,"response_time":1676419350043.63},{"trial":3,"action":1,"button_pressed":6,"time_out":false,"dwell_time":47.973876953125,"response_time":1676419350377.27},{"trial":3,"action":1,"button_pressed":2,"time_out":false,"dwell_time":63.341064453125,"response_time":1676419351125.57},{"trial":3,"action":9,"button_pressed":-1,"time_out":false,"dwell_time":98.48095703125,"response_time":1676419352142.95},{"trial":4,"action":1,"button_pressed":11,"time_out":false,"dwell_time":64.337890625,"response_time":1676419369470.69},{"trial":4,"action":1,"button_pressed":8,"time_out":false,"dwell_time":81.7548828125,"response_time":1676419370037.14},{"trial":4,"action":1,"button_pressed":6,"time_out":false,"dwell_time":48.0390625,"response_time":1676419370520.7},{"trial":4,"action":1,"button_pressed":4,"time_out":false,"dwell_time":81.440185546875,"response_time":1676419370919.61},{"trial":4,"action":1,"button_pressed":1,"time_out":false,"dwell_time":64.591064453125,"response_time":1676419371319.41},{"trial":4,"action":1,"button_pressed":10,"time_out":false,"dwell_time":64.576904296875,"response_time":1676419371802.57},{"trial":4,"action":9,"button_pressed":-1,"time_out":false,"dwell_time":64.25,"response_time":1676419373052.71},{"trial":5,"action":1,"button_pressed":0,"time_out":false,"dwell_time":131.966064453125,"response_time":1676419393895.97},{"trial":5,"action":1,"button_pressed":8,"time_out":false,"dwell_time":80.881103515625,"response_time":1676419394395.81},{"trial":5,"action":1,"button_pressed":5,"time_out":false,"dwell_time":131.76806640625,"response_time":1676419395028.87},{"trial":5,"action":1,"button_pressed":6,"time_out":false,"dwell_time":131.802978515625,"response_time":1676419397428.17},{"trial":5,"action":1,"button_pressed":9,"time_out":false,"dwell_time":98.31298828125,"response_time":1676419397944.6},{"trial":5,"action":1,"button_pressed":2,"time_out":false,"dwell_time":81.841064453125,"response_time":1676419398727.62},{"trial":5,"action":1,"button_pressed":10,"time_out":false,"dwell_time":48.906005859375,"response_time":1676419399344.56},{"trial":5,"action":9,"button_pressed":-1,"time_out":false,"dwell_time":81.595947265625,"response_time":1676419400677.54},{"trial":6,"action":1,"button_pressed":4,"time_out":false,"dwell_time":65.189208984375,"response_time":1676419420403.95},{"trial":6,"action":1,"button_pressed":2,"time_out":false,"dwell_time":65.1328125,"response_time":1676419420803.66},{"trial":6,"action":1,"button_pressed":6,"time_out":false,"dwell_time":64.0400390625,"response_time":1676419421370.17},{"trial":6,"action":1,"button_pressed":8,"time_out":false,"dwell_time":98.296875,"response_time":1676419421819.99},{"trial":6,"action":1,"button_pressed":1,"time_out":false,"dwell_time":63.39697265625,"response_time":1676419422352.51},{"trial":6,"action":1,"button_pressed":9,"time_out":false,"dwell_time":64.260986328125,"response_time":1676419422786.36},{"trial":6,"action":1,"button_pressed":0,"time_out":false,"dwell_time":64.532958984375,"response_time":1676419423168.94},{"trial":6,"action":9,"button_pressed":-1,"time_out":false,"dwell_time":82.128173828125,"response_time":1676419423819.84},{"trial":7,"action":1,"button_pressed":2,"time_out":false,"dwell_time":80.5048828125,"response_time":1676419446428.22},{"trial":7,"action":1,"button_pressed":10,"time_out":false,"dwell_time":97.669921875,"response_time":1676419447045.38},{"trial":7,"action":1,"button_pressed":8,"time_out":false,"dwell_time":96.862060546875,"response_time":1676419449210.68},{"trial":7,"action":1,"button_pressed":8,"time_out":false,"dwell_time":81.34814453125,"response_time":1676419450527.33},{"trial":7,"action":0,"button_pressed":-1,"time_out":false,"dwell_time":47.661865234375,"response_time":1676419453076.51},{"trial":7,"action":1,"button_pressed":2,"time_out":false,"dwell_time":64.238037109375,"response_time":1676419454059.53},{"trial":7,"action":1,"button_pressed":10,"time_out":false,"dwell_time":80.721923828125,"response_time":1676419454575.31},{"trial":7,"action":1,"button_pressed":8,"time_out":false,"dwell_time":64.889892578125,"response_time":1676419454975.77},{"trial":7,"action":1,"button_pressed":9,"time_out":false,"dwell_time":64,"response_time":1676419455441.71},{"trial":7,"action":1,"button_pressed":1,"time_out":false,"dwell_time":81.093017578125,"response_time":1676419455941.59},{"trial":7,"action":1,"button_pressed":4,"time_out":false,"dwell_time":47.7138671875,"response_time":1676419456675.36},{"trial":7,"action":1,"button_pressed":0,"time_out":false,"dwell_time":63.674072265625,"response_time":1676419456957.79},{"trial":7,"action":1,"button_pressed":5,"time_out":false,"dwell_time":63.56494140625,"response_time":1676419457341.14},{"trial":7,"action":9,"button_pressed":-1,"time_out":false,"dwell_time":66.357177734375,"response_time":1676419457826.24},{"trial":8,"action":1,"button_pressed":0,"time_out":false,"dwell_time":64.777099609375,"response_time":1676419483166.18},{"trial":8,"action":1,"button_pressed":5,"time_out":false,"dwell_time":47.43896484375,"response_time":1676419483732.88},{"trial":8,"action":1,"button_pressed":6,"time_out":false,"dwell_time":63.473876953125,"response_time":1676419486764.64},{"trial":8,"action":1,"button_pressed":8,"time_out":false,"dwell_time":80.987060546875,"response_time":1676419488331.73},{"trial":8,"action":1,"button_pressed":4,"time_out":false,"dwell_time":81.027099609375,"response_time":1676419488947.35},{"trial":8,"action":1,"button_pressed":2,"time_out":false,"dwell_time":63.6669921875,"response_time":1676419489463.75},{"trial":8,"action":1,"button_pressed":7,"time_out":false,"dwell_time":81.090087890625,"response_time":1676419492463.09},{"trial":8,"action":1,"button_pressed":3,"time_out":false,"dwell_time":64.52099609375,"response_time":1676419492863.6},{"trial":8,"action":9,"button_pressed":-1,"time_out":false,"dwell_time":65.0361328125,"response_time":1676419493380.38},{"trial":9,"action":1,"button_pressed":10,"time_out":false,"dwell_time":48.06884765625,"response_time":1676419510608.13},{"trial":9,"action":1,"button_pressed":2,"time_out":false,"dwell_time":47.343017578125,"response_time":1676419510973.82},{"trial":9,"action":1,"button_pressed":9,"time_out":false,"dwell_time":64.2509765625,"response_time":1676419511390.59},{"trial":9,"action":1,"button_pressed":5,"time_out":false,"dwell_time":64.490966796875,"response_time":1676419511756.52},{"trial":9,"action":1,"button_pressed":11,"time_out":false,"dwell_time":64.62109375,"response_time":1676419513056.7},{"trial":9,"action":1,"button_pressed":0,"time_out":false,"dwell_time":30.655029296875,"response_time":1676419513439.8},{"trial":9,"action":9,"button_pressed":-1,"time_out":false,"dwell_time":48.525146484375,"response_time":1676419513790.71},{"trial":10,"action":1,"button_pressed":6,"time_out":false,"dwell_time":64.60302734375,"response_time":1676419533399.84},{"trial":10,"action":1,"button_pressed":11,"time_out":false,"dwell_time":64.745849609375,"response_time":1676419534233.18},{"trial":10,"action":0,"button_pressed":-1,"time_out":false,"dwell_time":63.965087890625,"response_time":1676419536815.2},{"trial":10,"action":1,"button_pressed":6,"time_out":false,"dwell_time":63.204833984375,"response_time":1676419537530.49},{"trial":10,"action":1,"button_pressed":10,"time_out":false,"dwell_time":81.409912109375,"response_time":1676419537982},{"trial":10,"action":1,"button_pressed":11,"time_out":false,"dwell_time":64.85986328125,"response_time":1676419538448.34},{"trial":10,"action":1,"button_pressed":4,"time_out":false,"dwell_time":63.77294921875,"response_time":1676419538980.95},{"trial":10,"action":1,"button_pressed":8,"time_out":false,"dwell_time":81.054931640625,"response_time":1676419539481.62},{"trial":10,"action":1,"button_pressed":3,"time_out":false,"dwell_time":48.3798828125,"response_time":1676419539831.83},{"trial":10,"action":1,"button_pressed":5,"time_out":false,"dwell_time":65.139892578125,"response_time":1676419540214.58},{"trial":10,"action":9,"button_pressed":-1,"time_out":false,"dwell_time":65.002197265625,"response_time":1676419540948.3},{"trial":11,"action":1,"button_pressed":7,"time_out":false,"dwell_time":80.9619140625,"response_time":1676419563289.56},{"trial":11,"action":1,"button_pressed":4,"time_out":false,"dwell_time":47.3251953125,"response_time":1676419564439.47},{"trial":11,"action":1,"button_pressed":3,"time_out":false,"dwell_time":65.050048828125,"response_time":1676419565022.95},{"trial":11,"action":1,"button_pressed":5,"time_out":false,"dwell_time":47.239013671875,"response_time":1676419565539.08},{"trial":11,"action":1,"button_pressed":1,"time_out":false,"dwell_time":47.3330078125,"response_time":1676419566055.69},{"trial":11,"action":1,"button_pressed":10,"time_out":false,"dwell_time":63.458984375,"response_time":1676419566605.38},{"trial":11,"action":1,"button_pressed":2,"time_out":false,"dwell_time":81.93994140625,"response_time":1676419567139.36},{"trial":11,"action":1,"button_pressed":9,"time_out":false,"dwell_time":31.18603515625,"response_time":1676419571071.31},{"trial":11,"action":9,"button_pressed":-1,"time_out":false,"dwell_time":132.97314453125,"response_time":1676419574187.07},{"trial":12,"action":1,"button_pressed":6,"time_out":false,"dwell_time":64.30810546875,"response_time":1676419596662.62},{"trial":12,"action":1,"button_pressed":0,"time_out":false,"dwell_time":80.73193359375,"response_time":1676419597128.96},{"trial":12,"action":1,"button_pressed":8,"time_out":false,"dwell_time":98.197021484375,"response_time":1676419599528.18},{"trial":12,"action":1,"button_pressed":3,"time_out":false,"dwell_time":30.7119140625,"response_time":1676419600111.1},{"trial":12,"action":1,"button_pressed":5,"time_out":false,"dwell_time":81.847900390625,"response_time":1676419600728.01},{"trial":12,"action":1,"button_pressed":10,"time_out":false,"dwell_time":47.18115234375,"response_time":1676419601310.72},{"trial":12,"action":1,"button_pressed":1,"time_out":false,"dwell_time":64.7890625,"response_time":1676419601894.01},{"trial":12,"action":1,"button_pressed":7,"time_out":false,"dwell_time":30.487060546875,"response_time":1676419602426.86},{"trial":12,"action":9,"button_pressed":-1,"time_out":false,"dwell_time":81.489013671875,"response_time":1676419603777.37}]}