{"meta_data":{"additional_headers":{},"game_name":"Recollect","version":"2.53.01","user_name":"1cog2","organization":"braingamecenter","study":"MPL_2020_10","session_number":0,"device_id":"5D058FBB-ECD0-4D46-BF5F-BB154308C3EF"},"data":[{"trial":0,"action":1,"button_pressed":8,"time_out":false,"dwell_time":32.649169921875,"response_time":1668821356933},{"trial":0,"action":1,"button_pressed":0,"time_out":false,"dwell_time":65.427978515625,"response_time":1668821357598.95},{"trial":0,"action":9,"button_pressed":-1,"time_out":false,"dwell_time":42.718017578125,"response_time":1668821358109.36},{"trial":1,"action":1,"button_pressed":6,"time_out":false,"dwell_time":64.648193359375,"response_time":1668821367645.23},{"trial":1,"action":1,"button_pressed":5,"time_out":false,"dwell_time":49.658935546875,"response_time":1668821368161.54},{"trial":1,"action":1,"button_pressed":4,"time_out":false,"dwell_time":82.385009765625,"response_time":1668821368611.79},{"trial":1,"action":9,"button_pressed":-1,"time_out":false,"dwell_time":47.998046875,"response_time":1668821369178.01},{"trial":2,"action":1,"button_pressed":3,"time_out":false,"dwell_time":47.7939453125,"response_time":1668821381339.85},{"trial":2,"action":1,"button_pressed":5,"time_out":false,"dwell_time":64.718017578125,"response_time":1668821381923.22},{"trial":2,"action":1,"button_pressed":9,"time_out":false,"dwell_time":65.276123046875,"response_time":1668821382556.18},{"trial":2,"action":1,"button_pressed":2,"time_out":false,"dwell_time":31.719970703125,"response_time":1668821383072.48},{"trial":2,"action":9,"button_pressed":-1,"time_out":false,"dwell_time":65.635009765625,"response_time":1668821383606.23},{"trial":3,"action":1,"button_pressed":2,"time_out":false,"dwell_time":82.05908203125,"response_time":1668821398450.42},{"trial":3,"action":1,"button_pressed":6,"time_out":false,"dwell_time":98.600830078125,"response_time":1668821399416.67},{"trial":3,"action":1,"button_pressed":7,"time_out":false,"dwell_time":99.02490234375,"response_time":1668821399800.18},{"trial":3,"action":1,"button_pressed":0,"time_out":false,"dwell_time":82.053955078125,"response_time":1668821400382.98},{"trial":3,"action":1,"button_pressed":8,"time_out":false,"dwell_time":48.52197265625,"response_time":1668821400849.96},{"trial":3,"action":9,"button_pressed":-1,"time_out":false,"dwell_time":64.986083984375,"response_time":1668821401482.35},{"trial":4,"action":1,"button_pressed":2,"time_out":false,"dwell_time":31.69384765625,"response_time":1668821418660.07},{"trial":4,"action":1,"button_pressed":6,"time_out":false,"dwell_time":65.29296875,"response_time":1668821419309.28},{"trial":4,"action":1,"button_pressed":10,"time_out":false,"dwell_time":47.596923828125,"response_time":1668821419708.9},{"trial":4,"action":1,"button_pressed":7,"time_out":false,"dwell_time":98.669921875,"response_time":1668821420325.51},{"trial":4,"action":1,"button_pressed":9,"time_out":false,"dwell_time":65.18798828125,"response_time":1668821420775.35},{"trial":4,"action":1,"button_pressed":3,"time_out":false,"dwell_time":47.617919921875,"response_time":1668821421141.7},{"trial":4,"action":9,"button_pressed":-1,"time_out":false,"dwell_time":82.52001953125,"response_time":1668821422092.16},{"trial":5,"action":1,"button_pressed":10,"time_out":false,"dwell_time":47.8828125,"response_time":1668821441834.21},{"trial":5,"action":1,"button_pressed":1,"time_out":false,"dwell_time":64.69482421875,"response_time":1668821442416.75},{"trial":5,"action":1,"button_pressed":2,"time_out":false,"dwell_time":48.343994140625,"response_time":1668821442950.98},{"trial":5,"action":1,"button_pressed":7,"time_out":false,"dwell_time":64.6728515625,"response_time":1668821443616.24},{"trial":5,"action":1,"button_pressed":6,"time_out":false,"dwell_time":48.162841796875,"response_time":1668821444000.48},{"trial":5,"action":1,"button_pressed":0,"time_out":false,"dwell_time":47.77197265625,"response_time":1668821444449.73},{"trial":5,"action":1,"button_pressed":4,"time_out":false,"dwell_time":63.93896484375,"response_time":1668821444765.8},{"trial":5,"action":9,"button_pressed":-1,"time_out":false,"dwell_time":31.993896484375,"response_time":1668821445300.5},{"trial":6,"action":1,"button_pressed":4,"time_out":false,"dwell_time":64.759033203125,"response_time":1668821467624.78},{"trial":6,"action":1,"button_pressed":11,"time_out":false,"dwell_time":66.2900390625,"response_time":1668821468190.54},{"trial":6,"action":1,"button_pressed":7,"time_out":false,"dwell_time":81.27880859375,"response_time":1668821468491.12},{"trial":6,"action":1,"button_pressed":0,"time_out":false,"dwell_time":81.716064453125,"response_time":1668821469023.82},{"trial":6,"action":1,"button_pressed":2,"time_out":false,"dwell_time":64.79296875,"response_time":1668821469506.74},{"trial":6,"action":1,"button_pressed":1,"time_out":false,"dwell_time":81.261962890625,"response_time":1668821470240.47},{"trial":6,"action":1,"button_pressed":9,"time_out":false,"dwell_time":48.428955078125,"response_time":1668821470989.85},{"trial":6,"action":9,"button_pressed":-1,"time_out":false,"dwell_time":81.71484375,"response_time":1668821471723.82},{"trial":7,"action":1,"button_pressed":0,"time_out":false,"dwell_time":65.769775390625,"response_time":1668821494215.04},{"trial":7,"action":1,"button_pressed":8,"time_out":false,"dwell_time":48.338134765625,"response_time":1668821494631.11},{"trial":7,"action":1,"button_pressed":6,"time_out":false,"dwell_time":82.10400390625,"response_time":1668821495964.28},{"trial":7,"action":1,"button_pressed":3,"time_out":false,"dwell_time":65.656005859375,"response_time":1668821496280.86},{"trial":7,"action":1,"button_pressed":5,"time_out":false,"dwell_time":97.970947265625,"response_time":1668821496714},{"trial":7,"action":1,"button_pressed":9,"time_out":false,"dwell_time":30.969970703125,"response_time":1668821497246.82},{"trial":7,"action":1,"button_pressed":7,"time_out":false,"dwell_time":47.806884765625,"response_time":1668821497696.85},{"trial":7,"action":1,"button_pressed":2,"time_out":false,"dwell_time":49.197998046875,"response_time":1668821499013.59},{"trial":7,"action":9,"button_pressed":-1,"time_out":false,"dwell_time":64.865966796875,"response_time":1668821499946.32},{"trial":8,"action":1,"button_pressed":4,"time_out":false,"dwell_time":48.4111328125,"response_time":1668821517056.96},{"trial":8,"action":1,"button_pressed":11,"time_out":false,"dwell_time":65.640869140625,"response_time":1668821517573.07},{"trial":8,"action":1,"button_pressed":3,"time_out":false,"dwell_time":64.838134765625,"response_time":1668821517973.14},{"trial":8,"action":1,"button_pressed":2,"time_out":false,"dwell_time":98.043212890625,"response_time":1668821518306.2},{"trial":8,"action":1,"button_pressed":10,"time_out":false,"dwell_time":64.547119140625,"response_time":1668821519255.58},{"trial":8,"action":1,"button_pressed":6,"time_out":false,"dwell_time":48.06396484375,"response_time":1668821520255.5},{"trial":8,"action":1,"button_pressed":10,"time_out":false,"dwell_time":65.4169921875,"response_time":1668821521188.36},{"trial":8,"action":1,"button_pressed":6,"time_out":false,"dwell_time":64.489990234375,"response_time":1668821525120.27},{"trial":8,"action":9,"button_pressed":-1,"time_out":false,"dwell_time":48.592041015625,"response_time":1668821532968.05},{"trial":9,"action":1,"button_pressed":8,"time_out":false,"dwell_time":82.47216796875,"response_time":1668821550094.6},{"trial":9,"action":1,"button_pressed":0,"time_out":false,"dwell_time":14.092041015625,"response_time":1668821550543.55},{"trial":9,"action":1,"button_pressed":1,"time_out":false,"dwell_time":65.47412109375,"response_time":1668821551110.53},{"trial":9,"action":1,"button_pressed":9,"time_out":false,"dwell_time":65.151123046875,"response_time":1668821551576.65},{"trial":9,"action":1,"button_pressed":3,"time_out":false,"dwell_time":82.328125,"response_time":1668821551977},{"trial":9,"action":1,"button_pressed":5,"time_out":false,"dwell_time":64.501220703125,"response_time":1668821552359.95},{"trial":9,"action":9,"button_pressed":-1,"time_out":false,"dwell_time":14.120849609375,"response_time":1668821553375.9},{"trial":10,"action":1,"button_pressed":5,"time_out":false,"dwell_time":64.058837890625,"response_time":1668821572718.56},{"trial":10,"action":1,"button_pressed":3,"time_out":false,"dwell_time":30.93701171875,"response_time":1668821573235.34},{"trial":10,"action":1,"button_pressed":8,"time_out":false,"dwell_time":31.79296875,"response_time":1668821573719.26},{"trial":10,"action":1,"button_pressed":11,"time_out":false,"dwell_time":82.3779296875,"response_time":1668821574418.62},{"trial":10,"action":1,"button_pressed":7,"time_out":false,"dwell_time":64.14208984375,"response_time":1668821574651.41},{"trial":10,"action":1,"button_pressed":4,"time_out":false,"dwell_time":48.4970703125,"response_time":1668821575118.71},{"trial":10,"action":1,"button_pressed":10,"time_out":false,"dwell_time":31.8251953125,"response_time":1668821575484.63},{"trial":10,"action":9,"button_pressed":-1,"time_out":false,"dwell_time":65.387939453125,"response_time":1668821576201.02},{"trial":11,"action":1,"button_pressed":6,"time_out":false,"dwell_time":48.51318359375,"response_time":1668821598293.56},{"trial":11,"action":1,"button_pressed":5,"time_out":false,"dwell_time":64.55419921875,"response_time":1668821599209.43},{"trial":11,"action":1,"button_pressed":3,"time_out":false,"dwell_time":81.10791015625,"response_time":1668821599709.01},{"trial":11,"action":1,"button_pressed":0,"time_out":false,"dwell_time":64.8818359375,"response_time":1668821599992.59},{"trial":11,"action":1,"button_pressed":10,"time_out":false,"dwell_time":64.488037109375,"response_time":1668821600474.63},{"trial":11,"action":1,"button_pressed":8,"time_out":false,"dwell_time":64.786865234375,"response_time":1668821600758.26},{"trial":11,"action":1,"button_pressed":1,"time_out":false,"dwell_time":65.258056640625,"response_time":1668821601258.51},{"trial":11,"action":1,"button_pressed":7,"time_out":false,"dwell_time":48.426025390625,"response_time":1668821601591.54},{"trial":11,"action":9,"button_pressed":-1,"time_out":false,"dwell_time":47.60986328125,"response_time":1668821602224.87},{"trial":12,"action":1,"button_pressed":7,"time_out":false,"dwell_time":82.1259765625,"response_time":1668821624833.34},{"trial":12,"action":1,"button_pressed":5,"time_out":false,"dwell_time":64.512939453125,"response_time":1668821626065.2},{"trial":12,"action":1,"button_pressed":3,"time_out":false,"dwell_time":65.286865234375,"response_time":1668821626432.49},{"trial":12,"action":1,"button_pressed":4,"time_out":false,"dwell_time":48.607177734375,"response_time":1668821626866.34},{"trial":12,"action":1,"button_pressed":1,"time_out":false,"dwell_time":64.382080078125,"response_time":1668821627998.42},{"trial":12,"action":1,"button_pressed":8,"time_out":false,"dwell_time":81.3828125,"response_time":1668821628514.41},{"trial":12,"action":1,"button_pressed":2,"time_out":false,"dwell_time":47.511962890625,"response_time":1668821628831.36},{"trial":12,"action":1,"button_pressed":10,"time_out":false,"dwell_time":48.31787109375,"response_time":1668821629298.57},{"trial":12,"action":9,"button_pressed":-1,"time_out":false,"dwell_time":48.9140625,"response_time":1668821630014.78}]}