{"meta_data":{"additional_headers":{},"game_name":"Recollect","version":"2.53.01","user_name":"21","organization":"braingamecenter","study":"mpl2_2022_11","session_number":0,"device_id":"74342D95-EE82-45E3-8ADF-48FB3203C5DD"},"data":[{"trial":0,"action":1,"button_pressed":5,"time_out":false,"dwell_time":164.3740234375,"response_time":1676502296785.37},{"trial":0,"action":1,"button_pressed":3,"time_out":false,"dwell_time":48.156005859375,"response_time":1676502297402.87},{"trial":0,"action":9,"button_pressed":-1,"time_out":false,"dwell_time":107.927001953125,"response_time":1676502298145.11},{"trial":1,"action":1,"button_pressed":10,"time_out":false,"dwell_time":63.718017578125,"response_time":1676502307748.41},{"trial":1,"action":1,"button_pressed":0,"time_out":false,"dwell_time":115.112060546875,"response_time":1676502308315.44},{"trial":1,"action":1,"button_pressed":6,"time_out":false,"dwell_time":64.379150390625,"response_time":1676502308731.43},{"trial":1,"action":9,"button_pressed":-1,"time_out":false,"dwell_time":98.30908203125,"response_time":1676502309515.79},{"trial":2,"action":1,"button_pressed":10,"time_out":false,"dwell_time":64.338134765625,"response_time":1676502321677.74},{"trial":2,"action":1,"button_pressed":3,"time_out":false,"dwell_time":98.259033203125,"response_time":1676502322060.87},{"trial":2,"action":1,"button_pressed":6,"time_out":false,"dwell_time":80.746826171875,"response_time":1676502322343.44},{"trial":2,"action":1,"button_pressed":8,"time_out":false,"dwell_time":64.219970703125,"response_time":1676502322760.67},{"trial":2,"action":9,"button_pressed":-1,"time_out":false,"dwell_time":48.031982421875,"response_time":1676502323477.45},{"trial":3,"action":1,"button_pressed":6,"time_out":false,"dwell_time":48.85693359375,"response_time":1676502338039.54},{"trial":3,"action":1,"button_pressed":3,"time_out":false,"dwell_time":80.48583984375,"response_time":1676502338388.28},{"trial":3,"action":1,"button_pressed":8,"time_out":false,"dwell_time":48.094970703125,"response_time":1676502338738.67},{"trial":3,"action":1,"button_pressed":11,"time_out":false,"dwell_time":64.27490234375,"response_time":1676502339204.62},{"trial":3,"action":1,"button_pressed":0,"time_out":false,"dwell_time":49.034912109375,"response_time":1676502339788.83},{"trial":3,"action":9,"button_pressed":-1,"time_out":false,"dwell_time":98.04296875,"response_time":1676502340588.66},{"trial":4,"action":1,"button_pressed":4,"time_out":false,"dwell_time":64.27392578125,"response_time":1676502357782.36},{"trial":4,"action":1,"button_pressed":11,"time_out":false,"dwell_time":97.80615234375,"response_time":1676502358264.92},{"trial":4,"action":1,"button_pressed":3,"time_out":false,"dwell_time":64.419189453125,"response_time":1676502358947.93},{"trial":4,"action":1,"button_pressed":2,"time_out":false,"dwell_time":80.72802734375,"response_time":1676502359448.27},{"trial":4,"action":1,"button_pressed":10,"time_out":false,"dwell_time":64.215087890625,"response_time":1676502360931.3},{"trial":4,"action":1,"button_pressed":6,"time_out":false,"dwell_time":47.347900390625,"response_time":1676502361347.67},{"trial":4,"action":9,"button_pressed":-1,"time_out":false,"dwell_time":64.06591796875,"response_time":1676502362130.8},{"trial":5,"action":1,"button_pressed":11,"time_out":false,"dwell_time":97.39892578125,"response_time":1676502381741.31},{"trial":5,"action":1,"button_pressed":7,"time_out":false,"dwell_time":63.486083984375,"response_time":1676502382190.34},{"trial":5,"action":1,"button_pressed":0,"time_out":false,"dwell_time":98.56396484375,"response_time":1676502384040.42},{"trial":5,"action":1,"button_pressed":3,"time_out":false,"dwell_time":97.89306640625,"response_time":1676502384689.55},{"trial":5,"action":1,"button_pressed":9,"time_out":false,"dwell_time":48.046875,"response_time":1676502390272.07},{"trial":5,"action":1,"button_pressed":6,"time_out":false,"dwell_time":97.595947265625,"response_time":1676502390604.94},{"trial":5,"action":1,"button_pressed":5,"time_out":false,"dwell_time":64.39013671875,"response_time":1676502391021.39},{"trial":5,"action":9,"button_pressed":-1,"time_out":false,"dwell_time":81.505859375,"response_time":1676502391820.93},{"trial":6,"action":1,"button_pressed":9,"time_out":false,"dwell_time":115.319091796875,"response_time":1676502412314.61},{"trial":6,"action":1,"button_pressed":7,"time_out":false,"dwell_time":80.30615234375,"response_time":1676502412763.52},{"trial":6,"action":1,"button_pressed":1,"time_out":false,"dwell_time":81.901123046875,"response_time":1676502413380.66},{"trial":6,"action":1,"button_pressed":5,"time_out":false,"dwell_time":97.06298828125,"response_time":1676502414079.76},{"trial":6,"action":1,"button_pressed":11,"time_out":false,"dwell_time":130.426025390625,"response_time":1676502415262.77},{"trial":6,"action":1,"button_pressed":3,"time_out":false,"dwell_time":63.799072265625,"response_time":1676502416345.68},{"trial":6,"action":1,"button_pressed":4,"time_out":false,"dwell_time":48.537109375,"response_time":1676502416613.04},{"trial":6,"action":9,"button_pressed":-1,"time_out":false,"dwell_time":98.99609375,"response_time":1676502418312.86},{"trial":7,"action":1,"button_pressed":3,"time_out":false,"dwell_time":364.45703125,"response_time":1676502435472.7},{"trial":7,"action":1,"button_pressed":8,"time_out":false,"dwell_time":81.0048828125,"response_time":1676502436289.02},{"trial":7,"action":1,"button_pressed":4,"time_out":false,"dwell_time":64.364013671875,"response_time":1676502436756.21},{"trial":7,"action":1,"button_pressed":10,"time_out":false,"dwell_time":64.9208984375,"response_time":1676502437206.03},{"trial":7,"action":1,"button_pressed":11,"time_out":false,"dwell_time":48.112060546875,"response_time":1676502437656.4},{"trial":7,"action":9,"button_pressed":-1,"time_out":false,"dwell_time":99.347900390625,"response_time":1676502438639.87},{"trial":8,"action":1,"button_pressed":1,"time_out":false,"dwell_time":31.02099609375,"response_time":1676502455849.78},{"trial":8,"action":1,"button_pressed":9,"time_out":false,"dwell_time":48.766845703125,"response_time":1676502456266.77},{"trial":8,"action":1,"button_pressed":5,"time_out":false,"dwell_time":47.591064453125,"response_time":1676502456699.32},{"trial":8,"action":1,"button_pressed":6,"time_out":false,"dwell_time":65.061767578125,"response_time":1676502457266.04},{"trial":8,"action":1,"button_pressed":7,"time_out":false,"dwell_time":47.2080078125,"response_time":1676502457599},{"trial":8,"action":1,"button_pressed":2,"time_out":false,"dwell_time":31.381103515625,"response_time":1676502458349.47},{"trial":8,"action":9,"button_pressed":-1,"time_out":false,"dwell_time":48.548828125,"response_time":1676502459065.69},{"trial":9,"action":1,"button_pressed":8,"time_out":false,"dwell_time":64.22509765625,"response_time":1676502479308.81},{"trial":9,"action":1,"button_pressed":5,"time_out":false,"dwell_time":82.0009765625,"response_time":1676502479675.36},{"trial":9,"action":1,"button_pressed":6,"time_out":false,"dwell_time":47.236083984375,"response_time":1676502480274.85},{"trial":9,"action":1,"button_pressed":10,"time_out":false,"dwell_time":114.0869140625,"response_time":1676502484756.34},{"trial":9,"action":1,"button_pressed":2,"time_out":false,"dwell_time":147.81494140625,"response_time":1676502485740.12},{"trial":9,"action":1,"button_pressed":9,"time_out":false,"dwell_time":80.9658203125,"response_time":1676502487972.7},{"trial":9,"action":1,"button_pressed":11,"time_out":false,"dwell_time":47.35009765625,"response_time":1676502488339.02},{"trial":9,"action":9,"button_pressed":-1,"time_out":false,"dwell_time":148.135986328125,"response_time":1676502489522.57},{"trial":10,"action":1,"button_pressed":11,"time_out":false,"dwell_time":114.635986328125,"response_time":1676502509482.33},{"trial":10,"action":1,"button_pressed":3,"time_out":false,"dwell_time":64.14599609375,"response_time":1676502510748.06},{"trial":10,"action":1,"button_pressed":4,"time_out":false,"dwell_time":64.39794921875,"response_time":1676502511114.22},{"trial":10,"action":1,"button_pressed":10,"time_out":false,"dwell_time":63.547119140625,"response_time":1676502511664.03},{"trial":10,"action":1,"button_pressed":8,"time_out":false,"dwell_time":148.392822265625,"response_time":1676502513231.04},{"trial":10,"action":1,"button_pressed":2,"time_out":false,"dwell_time":114.575927734375,"response_time":1676502514013.45},{"trial":10,"action":1,"button_pressed":1,"time_out":false,"dwell_time":63.907958984375,"response_time":1676502514596.58},{"trial":10,"action":9,"button_pressed":-1,"time_out":false,"dwell_time":16.991943359375,"response_time":1676502517245.74}]}