{"meta_data":{"additional_headers":{},"game_name":"Recollect","version":"2.53.01","user_name":"22","organization":"braingamecenter","study":"mpl2_2022_11","session_number":0,"device_id":"74342D95-EE82-45E3-8ADF-48FB3203C5DD"},"data":[{"trial":0,"action":1,"button_pressed":4,"time_out":false,"dwell_time":48.314208984375,"response_time":1676515834059.16},{"trial":0,"action":1,"button_pressed":11,"time_out":false,"dwell_time":48.245849609375,"response_time":1676515834592.24},{"trial":0,"action":9,"button_pressed":-1,"time_out":false,"dwell_time":74.022216796875,"response_time":1676515835301.9},{"trial":1,"action":1,"button_pressed":0,"time_out":false,"dwell_time":48.255126953125,"response_time":1676515844522.93},{"trial":1,"action":1,"button_pressed":10,"time_out":false,"dwell_time":47.995849609375,"response_time":1676515845039.48},{"trial":1,"action":1,"button_pressed":11,"time_out":false,"dwell_time":32.1220703125,"response_time":1676515845672.48},{"trial":1,"action":9,"button_pressed":-1,"time_out":false,"dwell_time":64.992919921875,"response_time":1676515846338.45},{"trial":2,"action":1,"button_pressed":1,"time_out":false,"dwell_time":32.0400390625,"response_time":1676515857918.12},{"trial":2,"action":1,"button_pressed":6,"time_out":false,"dwell_time":65.0419921875,"response_time":1676515858301.11},{"trial":2,"action":1,"button_pressed":5,"time_out":false,"dwell_time":48.324951171875,"response_time":1676515858800.93},{"trial":2,"action":1,"button_pressed":10,"time_out":false,"dwell_time":31.119140625,"response_time":1676515859418},{"trial":2,"action":9,"button_pressed":-1,"time_out":false,"dwell_time":48.723876953125,"response_time":1676515860068.25},{"trial":3,"action":1,"button_pressed":8,"time_out":false,"dwell_time":64.60888671875,"response_time":1676515874646.15},{"trial":3,"action":1,"button_pressed":4,"time_out":false,"dwell_time":64.6220703125,"response_time":1676515875095.71},{"trial":3,"action":1,"button_pressed":1,"time_out":false,"dwell_time":48.47802734375,"response_time":1676515875512.81},{"trial":3,"action":1,"button_pressed":5,"time_out":false,"dwell_time":48.39306640625,"response_time":1676515875978.59},{"trial":3,"action":1,"button_pressed":3,"time_out":false,"dwell_time":31.575927734375,"response_time":1676515876444.97},{"trial":3,"action":9,"button_pressed":-1,"time_out":false,"dwell_time":31.197998046875,"response_time":1676515876945.33},{"trial":4,"action":1,"button_pressed":8,"time_out":false,"dwell_time":64.7958984375,"response_time":1676515893739.58},{"trial":4,"action":1,"button_pressed":0,"time_out":false,"dwell_time":47.882080078125,"response_time":1676515894256.17},{"trial":4,"action":1,"button_pressed":1,"time_out":false,"dwell_time":48.10693359375,"response_time":1676515894656.32},{"trial":4,"action":1,"button_pressed":9,"time_out":false,"dwell_time":48.23681640625,"response_time":1676515895088.92},{"trial":4,"action":1,"button_pressed":3,"time_out":false,"dwell_time":65.305908203125,"response_time":1676515895538.96},{"trial":4,"action":1,"button_pressed":5,"time_out":false,"dwell_time":48.682861328125,"response_time":1676515895939.17},{"trial":4,"action":9,"button_pressed":-1,"time_out":false,"dwell_time":32.125,"response_time":1676515896405.56},{"trial":5,"action":1,"button_pressed":1,"time_out":false,"dwell_time":65.151123046875,"response_time":1676515915582.34},{"trial":5,"action":1,"button_pressed":9,"time_out":false,"dwell_time":48.044189453125,"response_time":1676515916082.56},{"trial":5,"action":1,"button_pressed":7,"time_out":false,"dwell_time":48.862060546875,"response_time":1676515916465.81},{"trial":5,"action":1,"button_pressed":2,"time_out":false,"dwell_time":64.950927734375,"response_time":1676515916915.03},{"trial":5,"action":1,"button_pressed":5,"time_out":false,"dwell_time":48.8388671875,"response_time":1676515917282.63},{"trial":5,"action":1,"button_pressed":11,"time_out":false,"dwell_time":48.761962890625,"response_time":1676515917731.96},{"trial":5,"action":1,"button_pressed":6,"time_out":false,"dwell_time":31.27099609375,"response_time":1676515918081.1},{"trial":5,"action":9,"button_pressed":-1,"time_out":false,"dwell_time":65.489990234375,"response_time":1676515919031.63},{"trial":6,"action":1,"button_pressed":2,"time_out":false,"dwell_time":64.97314453125,"response_time":1676515942289.9},{"trial":6,"action":1,"button_pressed":9,"time_out":false,"dwell_time":48.195068359375,"response_time":1676515943922.69},{"trial":6,"action":1,"button_pressed":6,"time_out":false,"dwell_time":48.10302734375,"response_time":1676515944573.26},{"trial":6,"action":1,"button_pressed":0,"time_out":false,"dwell_time":48.819091796875,"response_time":1676515944972.98},{"trial":6,"action":1,"button_pressed":3,"time_out":false,"dwell_time":31.543212890625,"response_time":1676515945322.9},{"trial":6,"action":1,"button_pressed":10,"time_out":false,"dwell_time":30.4677734375,"response_time":1676515945605.53},{"trial":6,"action":1,"button_pressed":7,"time_out":false,"dwell_time":31.3759765625,"response_time":1676515946022.68},{"trial":6,"action":9,"button_pressed":-1,"time_out":false,"dwell_time":66.70703125,"response_time":1676515947223.47},{"trial":7,"action":1,"button_pressed":0,"time_out":false,"dwell_time":65.47900390625,"response_time":1676515961850.7},{"trial":7,"action":1,"button_pressed":7,"time_out":false,"dwell_time":14.0048828125,"response_time":1676515963032.99},{"trial":7,"action":1,"button_pressed":10,"time_out":false,"dwell_time":47.43212890625,"response_time":1676515963532.93},{"trial":7,"action":1,"button_pressed":4,"time_out":false,"dwell_time":49.238037109375,"response_time":1676515963967.04},{"trial":7,"action":1,"button_pressed":1,"time_out":false,"dwell_time":48.968017578125,"response_time":1676515964449.9},{"trial":7,"action":9,"button_pressed":-1,"time_out":false,"dwell_time":65.4609375,"response_time":1676515964949.73},{"trial":8,"action":1,"button_pressed":10,"time_out":false,"dwell_time":30.93408203125,"response_time":1676515981926.94},{"trial":8,"action":1,"button_pressed":2,"time_out":false,"dwell_time":81.882080078125,"response_time":1676515982310.3},{"trial":8,"action":1,"button_pressed":9,"time_out":false,"dwell_time":64.36181640625,"response_time":1676515982660.17},{"trial":8,"action":1,"button_pressed":5,"time_out":false,"dwell_time":64.257080078125,"response_time":1676515983076.6},{"trial":8,"action":1,"button_pressed":11,"time_out":false,"dwell_time":31.31005859375,"response_time":1676515983542.95},{"trial":8,"action":1,"button_pressed":0,"time_out":false,"dwell_time":30.632080078125,"response_time":1676515983976.08},{"trial":8,"action":9,"button_pressed":-1,"time_out":false,"dwell_time":65.423828125,"response_time":1676515984393.35},{"trial":9,"action":1,"button_pressed":5,"time_out":false,"dwell_time":47.721923828125,"response_time":1676516003603.11},{"trial":9,"action":1,"button_pressed":3,"time_out":false,"dwell_time":48.115966796875,"response_time":1676516004070.09},{"trial":9,"action":1,"button_pressed":8,"time_out":false,"dwell_time":30.699951171875,"response_time":1676516004452.73},{"trial":9,"action":1,"button_pressed":11,"time_out":false,"dwell_time":49.017822265625,"response_time":1676516004969.89},{"trial":9,"action":1,"button_pressed":7,"time_out":false,"dwell_time":48.259033203125,"response_time":1676516005369.92},{"trial":9,"action":1,"button_pressed":4,"time_out":false,"dwell_time":32.265869140625,"response_time":1676516005852.89},{"trial":9,"action":1,"button_pressed":10,"time_out":false,"dwell_time":30.68310546875,"response_time":1676516006352.1},{"trial":9,"action":9,"button_pressed":-1,"time_out":false,"dwell_time":48.548095703125,"response_time":1676516007652.7},{"trial":10,"action":1,"button_pressed":2,"time_out":false,"dwell_time":31.0009765625,"response_time":1676516029411.29},{"trial":10,"action":1,"button_pressed":4,"time_out":false,"dwell_time":48.911865234375,"response_time":1676516029844.9},{"trial":10,"action":1,"button_pressed":11,"time_out":false,"dwell_time":48.35498046875,"response_time":1676516030227.55},{"trial":10,"action":1,"button_pressed":6,"time_out":false,"dwell_time":47.785888671875,"response_time":1676516030494.74},{"trial":10,"action":1,"button_pressed":0,"time_out":false,"dwell_time":30.866943359375,"response_time":1676516032043.65},{"trial":10,"action":1,"button_pressed":10,"time_out":false,"dwell_time":31.39404296875,"response_time":1676516032394.1},{"trial":10,"action":1,"button_pressed":5,"time_out":false,"dwell_time":47.4208984375,"response_time":1676516032726.6},{"trial":10,"action":1,"button_pressed":3,"time_out":false,"dwell_time":48.963134765625,"response_time":1676516033093.86},{"trial":10,"action":9,"button_pressed":-1,"time_out":false,"dwell_time":48.68896484375,"response_time":1676516033444.37},{"trial":11,"action":1,"button_pressed":0,"time_out":false,"dwell_time":65.092041015625,"response_time":1676516055569.63},{"trial":11,"action":1,"button_pressed":8,"time_out":false,"dwell_time":30.822998046875,"response_time":1676516055952.43},{"trial":11,"action":1,"button_pressed":9,"time_out":false,"dwell_time":48.761962890625,"response_time":1676516056386.11},{"trial":11,"action":1,"button_pressed":5,"time_out":false,"dwell_time":47.837890625,"response_time":1676516057769.01},{"trial":11,"action":1,"button_pressed":3,"time_out":false,"dwell_time":48.081787109375,"response_time":1676516058202.18},{"trial":11,"action":1,"button_pressed":7,"time_out":false,"dwell_time":48.305908203125,"response_time":1676516059118.72},{"trial":11,"action":1,"button_pressed":2,"time_out":false,"dwell_time":31.030029296875,"response_time":1676516059601.22},{"trial":11,"action":9,"button_pressed":-1,"time_out":false,"dwell_time":14.277099609375,"response_time":1676516060384.64}]}