{"meta_data":{"additional_headers":{},"game_name":"Recollect","version":"2.53.01","user_name":"23","organization":"braingamecenter","study":"mpl2_2022_11","session_number":0,"device_id":"74342D95-EE82-45E3-8ADF-48FB3203C5DD"},"data":[{"trial":0,"action":1,"button_pressed":11,"time_out":false,"dwell_time":48.384033203125,"response_time":1676576844251.83},{"trial":0,"action":1,"button_pressed":8,"time_out":false,"dwell_time":47.505859375,"response_time":1676576844700.97},{"trial":0,"action":9,"button_pressed":-1,"time_out":false,"dwell_time":41.919189453125,"response_time":1676576845478.63},{"trial":1,"action":1,"button_pressed":1,"time_out":false,"dwell_time":65.263916015625,"response_time":1676576855147.77},{"trial":1,"action":1,"button_pressed":6,"time_out":false,"dwell_time":48.4150390625,"response_time":1676576855414.58},{"trial":1,"action":1,"button_pressed":8,"time_out":false,"dwell_time":48.173095703125,"response_time":1676576855813.9},{"trial":1,"action":9,"button_pressed":-1,"time_out":false,"dwell_time":31.171875,"response_time":1676576856297.49},{"trial":2,"action":1,"button_pressed":4,"time_out":false,"dwell_time":64.488037109375,"response_time":1676576868426.72},{"trial":2,"action":1,"button_pressed":2,"time_out":false,"dwell_time":64.58203125,"response_time":1676576868726.07},{"trial":2,"action":1,"button_pressed":7,"time_out":false,"dwell_time":31.678955078125,"response_time":1676576869226.3},{"trial":2,"action":1,"button_pressed":3,"time_out":false,"dwell_time":48.89697265625,"response_time":1676576870226.55},{"trial":2,"action":9,"button_pressed":-1,"time_out":false,"dwell_time":32.049072265625,"response_time":1676576871326.73},{"trial":3,"action":1,"button_pressed":2,"time_out":false,"dwell_time":31.7529296875,"response_time":1676576885721.08},{"trial":3,"action":1,"button_pressed":6,"time_out":false,"dwell_time":48.3291015625,"response_time":1676576886203.98},{"trial":3,"action":1,"button_pressed":7,"time_out":false,"dwell_time":47.9580078125,"response_time":1676576886537.22},{"trial":3,"action":1,"button_pressed":0,"time_out":false,"dwell_time":65.161865234375,"response_time":1676576887070.56},{"trial":3,"action":1,"button_pressed":8,"time_out":false,"dwell_time":48.870849609375,"response_time":1676576887470.97},{"trial":3,"action":9,"button_pressed":-1,"time_out":false,"dwell_time":65.532958984375,"response_time":1676576887937.46},{"trial":4,"action":1,"button_pressed":2,"time_out":false,"dwell_time":49.116943359375,"response_time":1676576905098.69},{"trial":4,"action":1,"button_pressed":6,"time_out":false,"dwell_time":47.98095703125,"response_time":1676576905714.3},{"trial":4,"action":1,"button_pressed":10,"time_out":false,"dwell_time":47.761962890625,"response_time":1676576906163.59},{"trial":4,"action":1,"button_pressed":7,"time_out":false,"dwell_time":81.530029296875,"response_time":1676576907414.16},{"trial":4,"action":1,"button_pressed":3,"time_out":false,"dwell_time":64.138916015625,"response_time":1676576908163.58},{"trial":4,"action":1,"button_pressed":9,"time_out":false,"dwell_time":47.787109375,"response_time":1676576908680.59},{"trial":4,"action":9,"button_pressed":-1,"time_out":false,"dwell_time":116.011962890625,"response_time":1676576911530.18},{"trial":5,"action":1,"button_pressed":4,"time_out":false,"dwell_time":47.471923828125,"response_time":1676576928923.5},{"trial":5,"action":1,"button_pressed":11,"time_out":false,"dwell_time":48.27490234375,"response_time":1676576929373.26},{"trial":5,"action":1,"button_pressed":3,"time_out":false,"dwell_time":47.429931640625,"response_time":1676576929889.69},{"trial":5,"action":1,"button_pressed":2,"time_out":false,"dwell_time":64.17919921875,"response_time":1676576930305.87},{"trial":5,"action":1,"button_pressed":10,"time_out":false,"dwell_time":30.761962890625,"response_time":1676576930756.06},{"trial":5,"action":1,"button_pressed":6,"time_out":false,"dwell_time":48.66796875,"response_time":1676576931156.61},{"trial":5,"action":9,"button_pressed":-1,"time_out":false,"dwell_time":31.10302734375,"response_time":1676576931639.55},{"trial":6,"action":1,"button_pressed":4,"time_out":false,"dwell_time":49.06201171875,"response_time":1676576951300.16},{"trial":6,"action":1,"button_pressed":2,"time_out":false,"dwell_time":47.7060546875,"response_time":1676576951616.22},{"trial":6,"action":1,"button_pressed":6,"time_out":false,"dwell_time":48.7060546875,"response_time":1676576952033.18},{"trial":6,"action":1,"button_pressed":8,"time_out":false,"dwell_time":47.93896484375,"response_time":1676576952482.97},{"trial":6,"action":1,"button_pressed":1,"time_out":false,"dwell_time":48.0400390625,"response_time":1676576953016.12},{"trial":6,"action":1,"button_pressed":9,"time_out":false,"dwell_time":48.153076171875,"response_time":1676576953448.58},{"trial":6,"action":1,"button_pressed":0,"time_out":false,"dwell_time":47.976806640625,"response_time":1676576953882.6},{"trial":6,"action":9,"button_pressed":-1,"time_out":false,"dwell_time":16.93408203125,"response_time":1676576954331.57},{"trial":7,"action":1,"button_pressed":11,"time_out":false,"dwell_time":64.97509765625,"response_time":1676576976641.47},{"trial":7,"action":1,"button_pressed":3,"time_out":false,"dwell_time":98.62109375,"response_time":1676576977041.24},{"trial":7,"action":1,"button_pressed":9,"time_out":false,"dwell_time":64.941162109375,"response_time":1676576977374.38},{"trial":7,"action":1,"button_pressed":7,"time_out":false,"dwell_time":48.130126953125,"response_time":1676576977774.74},{"trial":7,"action":1,"button_pressed":4,"time_out":false,"dwell_time":65.20703125,"response_time":1676576979340.47},{"trial":7,"action":1,"button_pressed":2,"time_out":false,"dwell_time":48.491943359375,"response_time":1676576979874.43},{"trial":7,"action":1,"button_pressed":10,"time_out":false,"dwell_time":48.923095703125,"response_time":1676576980390.65},{"trial":7,"action":1,"button_pressed":1,"time_out":false,"dwell_time":48.972900390625,"response_time":1676576980857.12},{"trial":7,"action":9,"button_pressed":-1,"time_out":false,"dwell_time":48.47998046875,"response_time":1676576982540.34},{"trial":8,"action":1,"button_pressed":8,"time_out":false,"dwell_time":48.2080078125,"response_time":1676577008114.97},{"trial":8,"action":1,"button_pressed":10,"time_out":false,"dwell_time":48.21484375,"response_time":1676577008714.81},{"trial":8,"action":1,"button_pressed":4,"time_out":false,"dwell_time":64.501953125,"response_time":1676577014761.64},{"trial":8,"action":1,"button_pressed":4,"time_out":false,"dwell_time":64.494873046875,"response_time":1676577016061.13},{"trial":8,"action":1,"button_pressed":4,"time_out":false,"dwell_time":48.283935546875,"response_time":1676577017011.14},{"trial":8,"action":1,"button_pressed":4,"time_out":false,"dwell_time":48.281005859375,"response_time":1676577017595.06},{"trial":8,"action":1,"button_pressed":4,"time_out":false,"dwell_time":31.76806640625,"response_time":1676577017944.43},{"trial":8,"action":1,"button_pressed":4,"time_out":false,"dwell_time":48.137939453125,"response_time":1676577018327.4},{"trial":8,"action":1,"button_pressed":4,"time_out":false,"dwell_time":65.2578125,"response_time":1676577019494.01},{"trial":8,"action":1,"button_pressed":6,"time_out":false,"dwell_time":30.483154296875,"response_time":1676577020676.69},{"trial":8,"action":1,"button_pressed":6,"time_out":false,"dwell_time":63.908935546875,"response_time":1676577021459.65},{"trial":8,"action":1,"button_pressed":6,"time_out":false,"dwell_time":81.8330078125,"response_time":1676577021909.97},{"trial":8,"action":0,"button_pressed":-1,"time_out":false,"dwell_time":47.64404296875,"response_time":1676577023242.76},{"trial":8,"action":1,"button_pressed":8,"time_out":false,"dwell_time":48.781982421875,"response_time":1676577025292.64},{"trial":8,"action":1,"button_pressed":10,"time_out":false,"dwell_time":48.276123046875,"response_time":1676577025741.83},{"trial":8,"action":1,"button_pressed":4,"time_out":false,"dwell_time":49.04296875,"response_time":1676577026359.03},{"trial":8,"action":0,"button_pressed":-1,"time_out":false,"dwell_time":31.80078125,"response_time":1676577028241.29},{"trial":8,"action":1,"button_pressed":8,"time_out":false,"dwell_time":48.10595703125,"response_time":1676577028657.53},{"trial":8,"action":1,"button_pressed":10,"time_out":false,"dwell_time":48.744140625,"response_time":1676577029057.99},{"trial":8,"action":1,"button_pressed":0,"time_out":false,"dwell_time":48.885986328125,"response_time":1676577029941.01},{"trial":8,"action":1,"button_pressed":6,"time_out":false,"dwell_time":47.35595703125,"response_time":1676577030673.55},{"trial":8,"action":1,"button_pressed":1,"time_out":false,"dwell_time":48.072998046875,"response_time":1676577033923.14},{"trial":8,"action":1,"button_pressed":2,"time_out":false,"dwell_time":64.72998046875,"response_time":1676577034322.08},{"trial":8,"action":1,"button_pressed":5,"time_out":false,"dwell_time":64.89306640625,"response_time":1676577034555.45},{"trial":8,"action":1,"button_pressed":7,"time_out":false,"dwell_time":48.125,"response_time":1676577035088.72},{"trial":8,"action":9,"button_pressed":-1,"time_out":false,"dwell_time":16.865966796875,"response_time":1676577036304.73},{"trial":9,"action":1,"button_pressed":3,"time_out":false,"dwell_time":63.843017578125,"response_time":1676577064078.85},{"trial":9,"action":1,"button_pressed":4,"time_out":false,"dwell_time":48.239990234375,"response_time":1676577064713.07},{"trial":9,"action":1,"button_pressed":7,"time_out":false,"dwell_time":64.432861328125,"response_time":1676577065461.71},{"trial":9,"action":9,"button_pressed":-1,"time_out":true,"dwell_time":10077.6088867188,"response_time":1676577075474.88},{"trial":10,"action":1,"button_pressed":11,"time_out":false,"dwell_time":48.30517578125,"response_time":1676577095335.8},{"trial":10,"action":1,"button_pressed":4,"time_out":false,"dwell_time":65.217041015625,"response_time":1676577095819.08},{"trial":10,"action":1,"button_pressed":3,"time_out":false,"dwell_time":48.10302734375,"response_time":1676577096119.46},{"trial":10,"action":1,"button_pressed":2,"time_out":false,"dwell_time":48.111083984375,"response_time":1676577096485.32},{"trial":10,"action":1,"button_pressed":10,"time_out":false,"dwell_time":48.468994140625,"response_time":1676577097352.72},{"trial":10,"action":1,"button_pressed":8,"time_out":false,"dwell_time":48.064208984375,"response_time":1676577097702.33},{"trial":10,"action":1,"button_pressed":1,"time_out":false,"dwell_time":31.037109375,"response_time":1676577098084.93},{"trial":10,"action":9,"button_pressed":-1,"time_out":false,"dwell_time":64.81689453125,"response_time":1676577098718.55},{"trial":11,"action":1,"button_pressed":2,"time_out":false,"dwell_time":31.049072265625,"response_time":1676577118361.66},{"trial":11,"action":1,"button_pressed":6,"time_out":false,"dwell_time":31.39111328125,"response_time":1676577118778.05},{"trial":11,"action":1,"button_pressed":9,"time_out":false,"dwell_time":31.454833984375,"response_time":1676577119194.56},{"trial":11,"action":1,"button_pressed":0,"time_out":false,"dwell_time":48.359130859375,"response_time":1676577119994.28},{"trial":11,"action":1,"button_pressed":3,"time_out":false,"dwell_time":48.244140625,"response_time":1676577121377.15},{"trial":11,"action":1,"button_pressed":10,"time_out":false,"dwell_time":48.300048828125,"response_time":1676577121877.12},{"trial":11,"action":1,"button_pressed":7,"time_out":false,"dwell_time":48.877197265625,"response_time":1676577122277.64},{"trial":11,"action":9,"button_pressed":-1,"time_out":false,"dwell_time":49.307861328125,"response_time":1676577123144.57},{"trial":12,"action":1,"button_pressed":10,"time_out":false,"dwell_time":30.736083984375,"response_time":1676577146852.37},{"trial":12,"action":1,"button_pressed":3,"time_out":false,"dwell_time":63.807861328125,"response_time":1676577150184.24},{"trial":12,"action":1,"button_pressed":4,"time_out":false,"dwell_time":64.31884765625,"response_time":1676577150700.59},{"trial":12,"action":1,"button_pressed":7,"time_out":false,"dwell_time":47.958984375,"response_time":1676577151668.13},{"trial":12,"action":1,"button_pressed":5,"time_out":false,"dwell_time":81.798828125,"response_time":1676577154483.47},{"trial":12,"action":1,"button_pressed":1,"time_out":false,"dwell_time":48.159912109375,"response_time":1676577154999.75},{"trial":12,"action":1,"button_pressed":2,"time_out":false,"dwell_time":48.23486328125,"response_time":1676577155466.84},{"trial":12,"action":1,"button_pressed":8,"time_out":false,"dwell_time":48.676025390625,"response_time":1676577156083.32},{"trial":12,"action":9,"button_pressed":-1,"time_out":false,"dwell_time":97.35791015625,"response_time":1676577157732.05},{"trial":13,"action":1,"button_pressed":0,"time_out":false,"dwell_time":48.9140625,"response_time":1676577181758.25},{"trial":13,"action":1,"button_pressed":5,"time_out":false,"dwell_time":48.623046875,"response_time":1676577182674.83},{"trial":13,"action":1,"button_pressed":6,"time_out":false,"dwell_time":48.5859375,"response_time":1676577183540.99},{"trial":13,"action":1,"button_pressed":8,"time_out":false,"dwell_time":30.68505859375,"response_time":1676577188372.15},{"trial":13,"action":1,"button_pressed":9,"time_out":false,"dwell_time":47.240966796875,"response_time":1676577189405.01},{"trial":13,"action":1,"button_pressed":1,"time_out":false,"dwell_time":97.11083984375,"response_time":1676577198451.77},{"trial":13,"action":1,"button_pressed":7,"time_out":false,"dwell_time":98.1240234375,"response_time":1676577199318.82},{"trial":13,"action":1,"button_pressed":2,"time_out":false,"dwell_time":14.125,"response_time":1676577199868.28},{"trial":13,"action":9,"button_pressed":-1,"time_out":false,"dwell_time":16.990966796875,"response_time":1676577201584.2}]}