{"meta_data":{"additional_headers":{},"game_name":"Recollect","version":"2.53.01","user_name":"24","organization":"braingamecenter","study":"mpl2_2022_11","session_number":0,"device_id":"74342D95-EE82-45E3-8ADF-48FB3203C5DD"},"data":[{"trial":0,"action":1,"button_pressed":3,"time_out":false,"dwell_time":48.178955078125,"response_time":1676592057287.6},{"trial":0,"action":1,"button_pressed":2,"time_out":false,"dwell_time":65.076904296875,"response_time":1676592057520.2},{"trial":0,"action":9,"button_pressed":-1,"time_out":false,"dwell_time":56.8720703125,"response_time":1676592057912.76},{"trial":1,"action":1,"button_pressed":5,"time_out":false,"dwell_time":81.1748046875,"response_time":1676592067116.64},{"trial":1,"action":1,"button_pressed":8,"time_out":false,"dwell_time":64.684814453125,"response_time":1676592067600.21},{"trial":1,"action":1,"button_pressed":0,"time_out":false,"dwell_time":48.4169921875,"response_time":1676592068083.41},{"trial":1,"action":9,"button_pressed":-1,"time_out":false,"dwell_time":63.71484375,"response_time":1676592068483.13},{"trial":2,"action":1,"button_pressed":3,"time_out":false,"dwell_time":65.318115234375,"response_time":1676592080396.24},{"trial":2,"action":1,"button_pressed":5,"time_out":false,"dwell_time":47.702880859375,"response_time":1676592080812.59},{"trial":2,"action":1,"button_pressed":9,"time_out":false,"dwell_time":81.903076171875,"response_time":1676592081429.32},{"trial":2,"action":1,"button_pressed":2,"time_out":false,"dwell_time":30.918212890625,"response_time":1676592081912.14},{"trial":2,"action":9,"button_pressed":-1,"time_out":false,"dwell_time":47.81103515625,"response_time":1676592082312.39},{"trial":3,"action":1,"button_pressed":6,"time_out":false,"dwell_time":64.2568359375,"response_time":1676592096607.47},{"trial":3,"action":1,"button_pressed":3,"time_out":false,"dwell_time":48.3349609375,"response_time":1676592096990.51},{"trial":3,"action":1,"button_pressed":8,"time_out":false,"dwell_time":47.949951171875,"response_time":1676592097340.94},{"trial":3,"action":1,"button_pressed":11,"time_out":false,"dwell_time":64.299072265625,"response_time":1676592097723.75},{"trial":3,"action":1,"button_pressed":0,"time_out":false,"dwell_time":65.072998046875,"response_time":1676592098190.21},{"trial":3,"action":9,"button_pressed":-1,"time_out":false,"dwell_time":48.700927734375,"response_time":1676592098557.12},{"trial":4,"action":1,"button_pressed":11,"time_out":false,"dwell_time":47.333984375,"response_time":1676592115651.21},{"trial":4,"action":1,"button_pressed":6,"time_out":false,"dwell_time":65.087890625,"response_time":1676592116117.87},{"trial":4,"action":1,"button_pressed":8,"time_out":false,"dwell_time":47.9912109375,"response_time":1676592116701.38},{"trial":4,"action":1,"button_pressed":3,"time_out":false,"dwell_time":48.206787109375,"response_time":1676592118550.74},{"trial":4,"action":1,"button_pressed":10,"time_out":false,"dwell_time":48.113037109375,"response_time":1676592119050.66},{"trial":4,"action":1,"button_pressed":10,"time_out":false,"dwell_time":64.8310546875,"response_time":1676592120432.81},{"trial":4,"action":1,"button_pressed":10,"time_out":false,"dwell_time":47.6181640625,"response_time":1676592120982.79},{"trial":4,"action":1,"button_pressed":10,"time_out":false,"dwell_time":48.1591796875,"response_time":1676592121432.54},{"trial":4,"action":0,"button_pressed":-1,"time_out":false,"dwell_time":47.8271484375,"response_time":1676592122232.56},{"trial":4,"action":1,"button_pressed":11,"time_out":false,"dwell_time":64.3271484375,"response_time":1676592122964.92},{"trial":4,"action":1,"button_pressed":6,"time_out":false,"dwell_time":64.1669921875,"response_time":1676592123365.28},{"trial":4,"action":1,"button_pressed":8,"time_out":false,"dwell_time":63.695068359375,"response_time":1676592123798.05},{"trial":4,"action":1,"button_pressed":10,"time_out":false,"dwell_time":64.6318359375,"response_time":1676592124248.38},{"trial":4,"action":1,"button_pressed":3,"time_out":false,"dwell_time":31.591064453125,"response_time":1676592124931.35},{"trial":4,"action":1,"button_pressed":10,"time_out":false,"dwell_time":48.48291015625,"response_time":1676592126315.36},{"trial":4,"action":0,"button_pressed":-1,"time_out":false,"dwell_time":63.864013671875,"response_time":1676592126897.09},{"trial":4,"action":1,"button_pressed":11,"time_out":false,"dwell_time":48.10498046875,"response_time":1676592127414.54},{"trial":4,"action":1,"button_pressed":6,"time_out":false,"dwell_time":48.178955078125,"response_time":1676592127897.03},{"trial":4,"action":1,"button_pressed":10,"time_out":false,"dwell_time":81.708984375,"response_time":1676592128747.1},{"trial":4,"action":1,"button_pressed":8,"time_out":false,"dwell_time":80.968017578125,"response_time":1676592129796.69},{"trial":4,"action":1,"button_pressed":1,"time_out":false,"dwell_time":48.47412109375,"response_time":1676592130329.7},{"trial":4,"action":0,"button_pressed":-1,"time_out":false,"dwell_time":48.4150390625,"response_time":1676592131829.21},{"trial":4,"action":1,"button_pressed":11,"time_out":false,"dwell_time":64.508056640625,"response_time":1676592132295.21},{"trial":4,"action":1,"button_pressed":6,"time_out":false,"dwell_time":81.650146484375,"response_time":1676592132812.33},{"trial":4,"action":1,"button_pressed":9,"time_out":false,"dwell_time":80.98583984375,"response_time":1676592133644.65},{"trial":4,"action":1,"button_pressed":8,"time_out":false,"dwell_time":48.9609375,"response_time":1676592134345.69},{"trial":4,"action":1,"button_pressed":1,"time_out":false,"dwell_time":31.473876953125,"response_time":1676592134995.37},{"trial":4,"action":1,"button_pressed":10,"time_out":false,"dwell_time":47.5771484375,"response_time":1676592135427.86},{"trial":4,"action":9,"button_pressed":-1,"time_out":false,"dwell_time":50.40087890625,"response_time":1676592167794.34},{"trial":5,"action":1,"button_pressed":5,"time_out":false,"dwell_time":14.799072265625,"response_time":1676592184836.2},{"trial":5,"action":1,"button_pressed":7,"time_out":false,"dwell_time":64.401123046875,"response_time":1676592186319.56},{"trial":5,"action":1,"button_pressed":6,"time_out":false,"dwell_time":65.362060546875,"response_time":1676592188468.94},{"trial":5,"action":1,"button_pressed":9,"time_out":false,"dwell_time":65.405029296875,"response_time":1676592188868.69},{"trial":5,"action":1,"button_pressed":0,"time_out":false,"dwell_time":65.261962890625,"response_time":1676592189951.77},{"trial":5,"action":1,"button_pressed":8,"time_out":false,"dwell_time":48.427001953125,"response_time":1676592190335.52},{"trial":5,"action":9,"button_pressed":-1,"time_out":false,"dwell_time":65.111083984375,"response_time":1676592191317.85},{"trial":6,"action":1,"button_pressed":8,"time_out":false,"dwell_time":64.23193359375,"response_time":1676592203697.06},{"trial":6,"action":1,"button_pressed":1,"time_out":false,"dwell_time":48.4990234375,"response_time":1676592204214.59},{"trial":6,"action":1,"button_pressed":3,"time_out":false,"dwell_time":48.493896484375,"response_time":1676592204830.24},{"trial":6,"action":1,"button_pressed":11,"time_out":false,"dwell_time":48.614990234375,"response_time":1676592206712.98},{"trial":6,"action":9,"button_pressed":-1,"time_out":false,"dwell_time":16.803955078125,"response_time":1676592207345.72},{"trial":7,"action":1,"button_pressed":7,"time_out":false,"dwell_time":64.875,"response_time":1676592221607.62},{"trial":7,"action":1,"button_pressed":4,"time_out":false,"dwell_time":80.5380859375,"response_time":1676592222374},{"trial":7,"action":1,"button_pressed":11,"time_out":false,"dwell_time":65.448974609375,"response_time":1676592224240.77},{"trial":7,"action":1,"button_pressed":3,"time_out":false,"dwell_time":31.216064453125,"response_time":1676592224690.52},{"trial":7,"action":1,"button_pressed":10,"time_out":false,"dwell_time":47.8798828125,"response_time":1676592225040.82},{"trial":7,"action":9,"button_pressed":-1,"time_out":false,"dwell_time":64.36083984375,"response_time":1676592225756.83},{"trial":8,"action":1,"button_pressed":1,"time_out":false,"dwell_time":31.27001953125,"response_time":1676592242617.88},{"trial":8,"action":1,"button_pressed":5,"time_out":false,"dwell_time":47.8759765625,"response_time":1676592243167.75},{"trial":8,"action":1,"button_pressed":6,"time_out":false,"dwell_time":47.725830078125,"response_time":1676592244767.17},{"trial":8,"action":1,"button_pressed":7,"time_out":false,"dwell_time":47.679931640625,"response_time":1676592245333.64},{"trial":8,"action":1,"button_pressed":11,"time_out":false,"dwell_time":64.631103515625,"response_time":1676592245832.95},{"trial":8,"action":1,"button_pressed":2,"time_out":false,"dwell_time":49.218994140625,"response_time":1676592246399.96},{"trial":8,"action":9,"button_pressed":-1,"time_out":false,"dwell_time":32.328125,"response_time":1676592247033.55},{"trial":9,"action":1,"button_pressed":0,"time_out":false,"dwell_time":114.781982421875,"response_time":1676592264460.24},{"trial":9,"action":1,"button_pressed":4,"time_out":false,"dwell_time":98.531005859375,"response_time":1676592265060.56},{"trial":9,"action":1,"button_pressed":11,"time_out":false,"dwell_time":47.6220703125,"response_time":1676592266426.78},{"trial":9,"action":1,"button_pressed":3,"time_out":false,"dwell_time":64.6279296875,"response_time":1676592266942.72},{"trial":9,"action":1,"button_pressed":5,"time_out":false,"dwell_time":64.5830078125,"response_time":1676592267426.47},{"trial":9,"action":1,"button_pressed":7,"time_out":false,"dwell_time":48.602783203125,"response_time":1676592267976.25},{"trial":9,"action":9,"button_pressed":-1,"time_out":false,"dwell_time":81.7880859375,"response_time":1676592269009.94},{"trial":10,"action":1,"button_pressed":0,"time_out":false,"dwell_time":64.166015625,"response_time":1676592288985.69},{"trial":10,"action":1,"button_pressed":2,"time_out":false,"dwell_time":81.160888671875,"response_time":1676592289452.63},{"trial":10,"action":1,"button_pressed":4,"time_out":false,"dwell_time":47.7158203125,"response_time":1676592289868.97},{"trial":10,"action":1,"button_pressed":11,"time_out":false,"dwell_time":47.903076171875,"response_time":1676592290768.79},{"trial":10,"action":1,"button_pressed":3,"time_out":false,"dwell_time":47.613037109375,"response_time":1676592291501.78},{"trial":10,"action":1,"button_pressed":3,"time_out":false,"dwell_time":65.0439453125,"response_time":1676592292068.13},{"trial":10,"action":1,"button_pressed":10,"time_out":false,"dwell_time":48.18701171875,"response_time":1676592293301.73},{"trial":10,"action":1,"button_pressed":7,"time_out":false,"dwell_time":31.68896484375,"response_time":1676592294384.61},{"trial":10,"action":9,"button_pressed":-1,"time_out":false,"dwell_time":63.989013671875,"response_time":1676592294817.2},{"trial":11,"action":1,"button_pressed":0,"time_out":false,"dwell_time":81.56494140625,"response_time":1676592314910.27},{"trial":11,"action":1,"button_pressed":3,"time_out":false,"dwell_time":63.87109375,"response_time":1676592315993.09},{"trial":11,"action":1,"button_pressed":4,"time_out":false,"dwell_time":63.846923828125,"response_time":1676592316392.99},{"trial":11,"action":1,"button_pressed":8,"time_out":false,"dwell_time":97.919921875,"response_time":1676592316976.79},{"trial":11,"action":1,"button_pressed":8,"time_out":false,"dwell_time":64.89208984375,"response_time":1676592318259.18},{"trial":11,"action":0,"button_pressed":-1,"time_out":false,"dwell_time":48.68701171875,"response_time":1676592319875.77},{"trial":11,"action":1,"button_pressed":0,"time_out":false,"dwell_time":47.718017578125,"response_time":1676592320375.6},{"trial":11,"action":1,"button_pressed":3,"time_out":false,"dwell_time":31.01318359375,"response_time":1676592320608.73},{"trial":11,"action":1,"button_pressed":4,"time_out":false,"dwell_time":48.670166015625,"response_time":1676592320859.6},{"trial":11,"action":1,"button_pressed":8,"time_out":false,"dwell_time":65.375,"response_time":1676592321125.38},{"trial":11,"action":1,"button_pressed":5,"time_out":false,"dwell_time":48.282958984375,"response_time":1676592321408.37},{"trial":11,"action":1,"button_pressed":7,"time_out":false,"dwell_time":31.619140625,"response_time":1676592322058.12},{"trial":11,"action":1,"button_pressed":2,"time_out":false,"dwell_time":14.117919921875,"response_time":1676592322541.28},{"trial":11,"action":9,"button_pressed":-1,"time_out":false,"dwell_time":31.7939453125,"response_time":1676592322942.21}]}