{"meta_data":{"additional_headers":{},"game_name":"Recollect","version":"2.53.01","user_name":"28","organization":"braingamecenter","study":"mpl2_2022_11","session_number":0,"device_id":"74342D95-EE82-45E3-8ADF-48FB3203C5DD"},"data":[{"trial":0,"action":1,"button_pressed":2,"time_out":false,"dwell_time":64.81298828125,"response_time":1677029216733.44},{"trial":0,"action":1,"button_pressed":9,"time_out":false,"dwell_time":62.919921875,"response_time":1677029217331.87},{"trial":0,"action":9,"button_pressed":-1,"time_out":false,"dwell_time":77.117919921875,"response_time":1677029218394.16},{"trial":1,"action":1,"button_pressed":1,"time_out":false,"dwell_time":64.634033203125,"response_time":1677029228196.14},{"trial":1,"action":1,"button_pressed":6,"time_out":false,"dwell_time":64.109130859375,"response_time":1677029228612.5},{"trial":1,"action":1,"button_pressed":8,"time_out":false,"dwell_time":64.3740234375,"response_time":1677029229162.38},{"trial":1,"action":9,"button_pressed":-1,"time_out":false,"dwell_time":48.138916015625,"response_time":1677029229796.28},{"trial":2,"action":1,"button_pressed":7,"time_out":false,"dwell_time":30.741943359375,"response_time":1677029242107.99},{"trial":2,"action":1,"button_pressed":9,"time_out":false,"dwell_time":47.468994140625,"response_time":1677029242557.67},{"trial":2,"action":1,"button_pressed":0,"time_out":false,"dwell_time":63.7861328125,"response_time":1677029243090.38},{"trial":2,"action":1,"button_pressed":4,"time_out":false,"dwell_time":48.35400390625,"response_time":1677029243440.91},{"trial":2,"action":9,"button_pressed":-1,"time_out":false,"dwell_time":65.508056640625,"response_time":1677029245074.09},{"trial":3,"action":1,"button_pressed":0,"time_out":false,"dwell_time":48.349853515625,"response_time":1677029259736.1},{"trial":3,"action":1,"button_pressed":7,"time_out":false,"dwell_time":64.026123046875,"response_time":1677029260735.15},{"trial":3,"action":1,"button_pressed":10,"time_out":false,"dwell_time":81.650146484375,"response_time":1677029261851.49},{"trial":3,"action":1,"button_pressed":4,"time_out":false,"dwell_time":80.4619140625,"response_time":1677029262350.67},{"trial":3,"action":1,"button_pressed":1,"time_out":false,"dwell_time":64.93798828125,"response_time":1677029262901.14},{"trial":3,"action":9,"button_pressed":-1,"time_out":false,"dwell_time":65.010986328125,"response_time":1677029263584.16},{"trial":4,"action":1,"button_pressed":9,"time_out":false,"dwell_time":65.197021484375,"response_time":1677029281028.71},{"trial":4,"action":1,"button_pressed":1,"time_out":false,"dwell_time":15.533935546875,"response_time":1677029281445.43},{"trial":4,"action":1,"button_pressed":2,"time_out":false,"dwell_time":81.08203125,"response_time":1677029282993.88},{"trial":4,"action":1,"button_pressed":8,"time_out":false,"dwell_time":64.125,"response_time":1677029283560.83},{"trial":4,"action":1,"button_pressed":6,"time_out":false,"dwell_time":64.6220703125,"response_time":1677029284260.31},{"trial":4,"action":1,"button_pressed":11,"time_out":false,"dwell_time":48.736083984375,"response_time":1677029284577.82},{"trial":4,"action":9,"button_pressed":-1,"time_out":false,"dwell_time":81.576904296875,"response_time":1677029285593.75},{"trial":5,"action":1,"button_pressed":2,"time_out":false,"dwell_time":81.361083984375,"response_time":1677029305536.63},{"trial":5,"action":1,"button_pressed":9,"time_out":false,"dwell_time":80.8779296875,"response_time":1677029307319.83},{"trial":5,"action":1,"button_pressed":6,"time_out":false,"dwell_time":63.114013671875,"response_time":1677029307868.48},{"trial":5,"action":1,"button_pressed":0,"time_out":false,"dwell_time":80.98388671875,"response_time":1677029308869.29},{"trial":5,"action":1,"button_pressed":3,"time_out":false,"dwell_time":48.89697265625,"response_time":1677029310269.26},{"trial":5,"action":1,"button_pressed":10,"time_out":false,"dwell_time":48.841064453125,"response_time":1677029311885.44},{"trial":5,"action":1,"button_pressed":7,"time_out":false,"dwell_time":31.385986328125,"response_time":1677029312551.83},{"trial":5,"action":9,"button_pressed":-1,"time_out":false,"dwell_time":82.260009765625,"response_time":1677029314034.68},{"trial":6,"action":1,"button_pressed":4,"time_out":false,"dwell_time":64.203857421875,"response_time":1677029333594.28},{"trial":6,"action":1,"button_pressed":2,"time_out":false,"dwell_time":63.897216796875,"response_time":1677029333993.79},{"trial":6,"action":1,"button_pressed":6,"time_out":false,"dwell_time":81.0390625,"response_time":1677029334794.11},{"trial":6,"action":1,"button_pressed":8,"time_out":false,"dwell_time":80.841064453125,"response_time":1677029336210.27},{"trial":6,"action":1,"button_pressed":1,"time_out":false,"dwell_time":47.321044921875,"response_time":1677029336809.85},{"trial":6,"action":1,"button_pressed":9,"time_out":false,"dwell_time":63.612060546875,"response_time":1677029337925.76},{"trial":6,"action":1,"button_pressed":3,"time_out":false,"dwell_time":47.39501953125,"response_time":1677029341841.56},{"trial":6,"action":9,"button_pressed":-1,"time_out":false,"dwell_time":81.183837890625,"response_time":1677029344174.2},{"trial":7,"action":1,"button_pressed":2,"time_out":false,"dwell_time":64.489990234375,"response_time":1677029359302.16},{"trial":7,"action":1,"button_pressed":6,"time_out":false,"dwell_time":63.921875,"response_time":1677029359869.16},{"trial":7,"action":1,"button_pressed":7,"time_out":false,"dwell_time":64.364013671875,"response_time":1677029360351.78},{"trial":7,"action":1,"button_pressed":0,"time_out":false,"dwell_time":64.764892578125,"response_time":1677029360918.34},{"trial":7,"action":1,"button_pressed":8,"time_out":false,"dwell_time":80.177978515625,"response_time":1677029361318.05},{"trial":7,"action":9,"button_pressed":-1,"time_out":false,"dwell_time":47.658203125,"response_time":1677029361985.35},{"trial":8,"action":1,"button_pressed":6,"time_out":false,"dwell_time":81.6240234375,"response_time":1677029379762.78},{"trial":8,"action":1,"button_pressed":5,"time_out":false,"dwell_time":63.5791015625,"response_time":1677029380378.4},{"trial":8,"action":1,"button_pressed":0,"time_out":false,"dwell_time":47.966064453125,"response_time":1677029381429.2},{"trial":8,"action":1,"button_pressed":4,"time_out":false,"dwell_time":81.01708984375,"response_time":1677029383344.13},{"trial":8,"action":1,"button_pressed":11,"time_out":false,"dwell_time":64.27001953125,"response_time":1677029383777.99},{"trial":8,"action":1,"button_pressed":8,"time_out":false,"dwell_time":30.623779296875,"response_time":1677029384260.9},{"trial":8,"action":9,"button_pressed":-1,"time_out":false,"dwell_time":147.93505859375,"response_time":1677029386427.41},{"trial":9,"action":1,"button_pressed":11,"time_out":false,"dwell_time":81.281982421875,"response_time":1677029403787.99},{"trial":9,"action":1,"button_pressed":8,"time_out":false,"dwell_time":65.0048828125,"response_time":1677029404287.86},{"trial":9,"action":1,"button_pressed":6,"time_out":false,"dwell_time":47.574951171875,"response_time":1677029404804.29},{"trial":9,"action":1,"button_pressed":4,"time_out":false,"dwell_time":81.038818359375,"response_time":1677029405287.58},{"trial":9,"action":1,"button_pressed":1,"time_out":false,"dwell_time":48.197998046875,"response_time":1677029405837.11},{"trial":9,"action":1,"button_pressed":10,"time_out":false,"dwell_time":64.153076171875,"response_time":1677029406369.78},{"trial":9,"action":9,"button_pressed":-1,"time_out":false,"dwell_time":64.761962890625,"response_time":1677029407086.71},{"trial":10,"action":1,"button_pressed":10,"time_out":false,"dwell_time":63.708984375,"response_time":1677029427063.12},{"trial":10,"action":1,"button_pressed":1,"time_out":false,"dwell_time":81.7880859375,"response_time":1677029427763.39},{"trial":10,"action":1,"button_pressed":2,"time_out":false,"dwell_time":65.1240234375,"response_time":1677029428479.89},{"trial":10,"action":1,"button_pressed":7,"time_out":false,"dwell_time":48.10400390625,"response_time":1677029429929.92},{"trial":10,"action":1,"button_pressed":6,"time_out":false,"dwell_time":30.6669921875,"response_time":1677029430412.25},{"trial":10,"action":1,"button_pressed":0,"time_out":false,"dwell_time":64.4189453125,"response_time":1677029431344.89},{"trial":10,"action":1,"button_pressed":4,"time_out":false,"dwell_time":64.56787109375,"response_time":1677029431678.21},{"trial":10,"action":9,"button_pressed":-1,"time_out":false,"dwell_time":47.89990234375,"response_time":1677029432212.17},{"trial":11,"action":1,"button_pressed":4,"time_out":false,"dwell_time":97.114990234375,"response_time":1677029456785.98},{"trial":11,"action":1,"button_pressed":11,"time_out":false,"dwell_time":80.232177734375,"response_time":1677029458435.92},{"trial":11,"action":1,"button_pressed":7,"time_out":false,"dwell_time":30.346923828125,"response_time":1677029458802.81},{"trial":11,"action":1,"button_pressed":2,"time_out":false,"dwell_time":47.431884765625,"response_time":1677029459552.57},{"trial":11,"action":1,"button_pressed":1,"time_out":false,"dwell_time":64.591064453125,"response_time":1677029461984.84},{"trial":11,"action":1,"button_pressed":3,"time_out":false,"dwell_time":80.178955078125,"response_time":1677029463100.91},{"trial":11,"action":1,"button_pressed":9,"time_out":false,"dwell_time":81.4169921875,"response_time":1677029465034.39},{"trial":11,"action":1,"button_pressed":8,"time_out":false,"dwell_time":80.921875,"response_time":1677029466634.05},{"trial":11,"action":9,"button_pressed":-1,"time_out":false,"dwell_time":16.865966796875,"response_time":1677029467533.06},{"trial":12,"action":1,"button_pressed":4,"time_out":false,"dwell_time":48.4912109375,"response_time":1677029496840.99},{"trial":12,"action":1,"button_pressed":9,"time_out":false,"dwell_time":81.52392578125,"response_time":1677029497440.31},{"trial":12,"action":1,"button_pressed":7,"time_out":false,"dwell_time":47.900146484375,"response_time":1677029498440.44},{"trial":12,"action":1,"button_pressed":2,"time_out":false,"dwell_time":63.699951171875,"response_time":1677029499272.43},{"trial":12,"action":1,"button_pressed":1,"time_out":false,"dwell_time":81.76904296875,"response_time":1677029500289.42},{"trial":12,"action":1,"button_pressed":10,"time_out":false,"dwell_time":113.510986328125,"response_time":1677029501405.07},{"trial":12,"action":1,"button_pressed":0,"time_out":false,"dwell_time":64.078125,"response_time":1677029506886.39},{"trial":12,"action":1,"button_pressed":3,"time_out":false,"dwell_time":63.93701171875,"response_time":1677029507453.31},{"trial":12,"action":9,"button_pressed":-1,"time_out":false,"dwell_time":82.200927734375,"response_time":1677029507904.95}]}