{"meta_data":{"additional_headers":{},"game_name":"Recollect","version":"2.53.01","user_name":"29","organization":"braingamecenter","study":"mpl2_2022_11","session_number":0,"device_id":"74342D95-EE82-45E3-8ADF-48FB3203C5DD"},"data":[{"trial":0,"action":1,"button_pressed":7,"time_out":false,"dwell_time":48.119873046875,"response_time":1677090905132.37},{"trial":0,"action":1,"button_pressed":4,"time_out":false,"dwell_time":65.208984375,"response_time":1677090905664.98},{"trial":0,"action":9,"button_pressed":-1,"time_out":false,"dwell_time":109.56591796875,"response_time":1677090906259.3},{"trial":1,"action":1,"button_pressed":7,"time_out":false,"dwell_time":49.0458984375,"response_time":1677090915978.95},{"trial":1,"action":1,"button_pressed":3,"time_out":false,"dwell_time":48.065185546875,"response_time":1677090916494.55},{"trial":1,"action":1,"button_pressed":2,"time_out":false,"dwell_time":63.742919921875,"response_time":1677090917027.4},{"trial":1,"action":9,"button_pressed":-1,"time_out":false,"dwell_time":115.302001953125,"response_time":1677090917544.7},{"trial":2,"action":1,"button_pressed":3,"time_out":false,"dwell_time":82.071044921875,"response_time":1677090929890.61},{"trial":2,"action":1,"button_pressed":5,"time_out":false,"dwell_time":81.11181640625,"response_time":1677090930340.32},{"trial":2,"action":1,"button_pressed":9,"time_out":false,"dwell_time":64.572998046875,"response_time":1677090930790.5},{"trial":2,"action":1,"button_pressed":2,"time_out":false,"dwell_time":82.02685546875,"response_time":1677090931256.83},{"trial":2,"action":9,"button_pressed":-1,"time_out":false,"dwell_time":98.583984375,"response_time":1677090931923.35},{"trial":3,"action":1,"button_pressed":4,"time_out":false,"dwell_time":80.929931640625,"response_time":1677090946501.09},{"trial":3,"action":1,"button_pressed":11,"time_out":false,"dwell_time":81.776123046875,"response_time":1677090947051.49},{"trial":3,"action":1,"button_pressed":5,"time_out":false,"dwell_time":97.947021484375,"response_time":1677090948583.74},{"trial":3,"action":1,"button_pressed":3,"time_out":false,"dwell_time":97.798095703125,"response_time":1677090949183.46},{"trial":3,"action":1,"button_pressed":9,"time_out":false,"dwell_time":64.0849609375,"response_time":1677090949733.67},{"trial":3,"action":9,"button_pressed":-1,"time_out":false,"dwell_time":97.514892578125,"response_time":1677090950633.39},{"trial":4,"action":1,"button_pressed":3,"time_out":false,"dwell_time":81.52392578125,"response_time":1677090967961.34},{"trial":4,"action":1,"button_pressed":7,"time_out":false,"dwell_time":63.846923828125,"response_time":1677090969476.95},{"trial":4,"action":1,"button_pressed":4,"time_out":false,"dwell_time":81.7138671875,"response_time":1677090970060.53},{"trial":4,"action":1,"button_pressed":10,"time_out":false,"dwell_time":63.68310546875,"response_time":1677090970543.4},{"trial":4,"action":1,"button_pressed":2,"time_out":false,"dwell_time":81.139892578125,"response_time":1677090971192.93},{"trial":4,"action":1,"button_pressed":9,"time_out":false,"dwell_time":81.352783203125,"response_time":1677090971793.04},{"trial":4,"action":9,"button_pressed":-1,"time_out":false,"dwell_time":98.843994140625,"response_time":1677090972560.2},{"trial":5,"action":1,"button_pressed":0,"time_out":false,"dwell_time":98.8310546875,"response_time":1677090992720.02},{"trial":5,"action":1,"button_pressed":6,"time_out":false,"dwell_time":96.56396484375,"response_time":1677090993351.89},{"trial":5,"action":1,"button_pressed":9,"time_out":false,"dwell_time":165.0419921875,"response_time":1677090994185.91},{"trial":5,"action":1,"button_pressed":2,"time_out":false,"dwell_time":97.77880859375,"response_time":1677090994885.75},{"trial":5,"action":1,"button_pressed":3,"time_out":false,"dwell_time":80.677978515625,"response_time":1677090995418.5},{"trial":5,"action":1,"button_pressed":10,"time_out":false,"dwell_time":64.446044921875,"response_time":1677090995818.81},{"trial":5,"action":1,"button_pressed":7,"time_out":false,"dwell_time":64.675048828125,"response_time":1677090996501.51},{"trial":5,"action":9,"button_pressed":-1,"time_out":false,"dwell_time":98.596923828125,"response_time":1677090997351.82},{"trial":6,"action":1,"button_pressed":7,"time_out":false,"dwell_time":131.4150390625,"response_time":1677091018277.85},{"trial":6,"action":1,"button_pressed":11,"time_out":false,"dwell_time":114.385986328125,"response_time":1677091018877.13},{"trial":6,"action":1,"button_pressed":3,"time_out":false,"dwell_time":114.329833984375,"response_time":1677091020593.89},{"trial":6,"action":1,"button_pressed":0,"time_out":false,"dwell_time":80.39501953125,"response_time":1677091021193.04},{"trial":6,"action":1,"button_pressed":9,"time_out":false,"dwell_time":81.110107421875,"response_time":1677091021859.75},{"trial":6,"action":1,"button_pressed":5,"time_out":false,"dwell_time":81.33203125,"response_time":1677091022460.12},{"trial":6,"action":1,"button_pressed":6,"time_out":false,"dwell_time":81.511962890625,"response_time":1677091023043.38},{"trial":6,"action":9,"button_pressed":-1,"time_out":false,"dwell_time":99.994140625,"response_time":1677091024011.08},{"trial":7,"action":1,"button_pressed":3,"time_out":false,"dwell_time":147.255859375,"response_time":1677091039737.11},{"trial":7,"action":1,"button_pressed":8,"time_out":false,"dwell_time":181.626953125,"response_time":1677091041670.28},{"trial":7,"action":1,"button_pressed":4,"time_out":false,"dwell_time":131.033935546875,"response_time":1677091042486.01},{"trial":7,"action":1,"button_pressed":10,"time_out":false,"dwell_time":114.22705078125,"response_time":1677091042953.24},{"trial":7,"action":1,"button_pressed":11,"time_out":false,"dwell_time":64.31005859375,"response_time":1677091043502.25},{"trial":7,"action":9,"button_pressed":-1,"time_out":false,"dwell_time":81.400146484375,"response_time":1677091044336.56},{"trial":8,"action":1,"button_pressed":1,"time_out":false,"dwell_time":115.1240234375,"response_time":1677091063796.47},{"trial":8,"action":1,"button_pressed":9,"time_out":false,"dwell_time":131.80419921875,"response_time":1677091064312.96},{"trial":8,"action":1,"button_pressed":5,"time_out":false,"dwell_time":97.787109375,"response_time":1677091065462.51},{"trial":8,"action":1,"button_pressed":6,"time_out":false,"dwell_time":80.190185546875,"response_time":1677091066161.51},{"trial":8,"action":1,"button_pressed":7,"time_out":false,"dwell_time":64.635986328125,"response_time":1677091066878.96},{"trial":8,"action":1,"button_pressed":0,"time_out":false,"dwell_time":63.9990234375,"response_time":1677091068144.53},{"trial":8,"action":9,"button_pressed":-1,"time_out":false,"dwell_time":81.6201171875,"response_time":1677091068811.92},{"trial":9,"action":1,"button_pressed":7,"time_out":false,"dwell_time":97.676025390625,"response_time":1677091086405.72},{"trial":9,"action":1,"button_pressed":3,"time_out":false,"dwell_time":97.18212890625,"response_time":1677091087071.45},{"trial":9,"action":1,"button_pressed":0,"time_out":false,"dwell_time":98.115966796875,"response_time":1677091087554.83},{"trial":9,"action":0,"button_pressed":-1,"time_out":false,"dwell_time":131.08203125,"response_time":1677091091503.98},{"trial":9,"action":1,"button_pressed":7,"time_out":false,"dwell_time":64.554931640625,"response_time":1677091092387.2},{"trial":9,"action":1,"button_pressed":3,"time_out":false,"dwell_time":81.906005859375,"response_time":1677091093836.63},{"trial":9,"action":1,"button_pressed":8,"time_out":false,"dwell_time":114.906982421875,"response_time":1677091094836.13},{"trial":9,"action":1,"button_pressed":0,"time_out":false,"dwell_time":98.01904296875,"response_time":1677091096418.52},{"trial":9,"action":1,"button_pressed":4,"time_out":false,"dwell_time":81.94580078125,"response_time":1677091096918.91},{"trial":9,"action":1,"button_pressed":1,"time_out":false,"dwell_time":64.4599609375,"response_time":1677091097401.28},{"trial":9,"action":9,"button_pressed":-1,"time_out":false,"dwell_time":81.742919921875,"response_time":1677091098018.33},{"trial":10,"action":1,"button_pressed":7,"time_out":false,"dwell_time":97.842041015625,"response_time":1677091118295.3},{"trial":10,"action":1,"button_pressed":6,"time_out":false,"dwell_time":80.919921875,"response_time":1677091118561.8},{"trial":10,"action":1,"button_pressed":2,"time_out":false,"dwell_time":80.618896484375,"response_time":1677091119043.75},{"trial":10,"action":1,"button_pressed":1,"time_out":false,"dwell_time":82.052978515625,"response_time":1677091119511.68},{"trial":10,"action":1,"button_pressed":9,"time_out":false,"dwell_time":64.01904296875,"response_time":1677091119960.95},{"trial":10,"action":1,"button_pressed":0,"time_out":false,"dwell_time":82.08203125,"response_time":1677091120428.02},{"trial":10,"action":1,"button_pressed":8,"time_out":false,"dwell_time":81.9931640625,"response_time":1677091120777.91},{"trial":10,"action":9,"button_pressed":-1,"time_out":false,"dwell_time":81.35595703125,"response_time":1677091121411.17},{"trial":11,"action":1,"button_pressed":11,"time_out":false,"dwell_time":81.427001953125,"response_time":1677091141704.67},{"trial":11,"action":1,"button_pressed":0,"time_out":false,"dwell_time":80.699951171875,"response_time":1677091142170.49},{"trial":11,"action":1,"button_pressed":8,"time_out":false,"dwell_time":63.47509765625,"response_time":1677091142703.12},{"trial":11,"action":1,"button_pressed":1,"time_out":false,"dwell_time":64.069091796875,"response_time":1677091143170.08},{"trial":11,"action":1,"button_pressed":2,"time_out":false,"dwell_time":63.81689453125,"response_time":1677091143569.71},{"trial":11,"action":1,"button_pressed":9,"time_out":false,"dwell_time":81.81396484375,"response_time":1677091144037},{"trial":11,"action":9,"button_pressed":-1,"time_out":false,"dwell_time":82.4970703125,"response_time":1677091144553.97}]}