{"meta_data":{"additional_headers":{},"game_name":"Recollect","version":"2.53.01","user_name":"2cog2","organization":"braingamecenter","study":"MPL_2020_10","session_number":0,"device_id":"5D058FBB-ECD0-4D46-BF5F-BB154308C3EF"},"data":[{"trial":0,"action":1,"button_pressed":3,"time_out":false,"dwell_time":64.44287109375,"response_time":1669073445944.93},{"trial":0,"action":1,"button_pressed":2,"time_out":false,"dwell_time":48.15185546875,"response_time":1669073446328.47},{"trial":0,"action":9,"button_pressed":-1,"time_out":false,"dwell_time":91.65185546875,"response_time":1669073447021.03},{"trial":1,"action":1,"button_pressed":3,"time_out":false,"dwell_time":65.43701171875,"response_time":1669073457008.08},{"trial":1,"action":1,"button_pressed":9,"time_out":false,"dwell_time":64.4189453125,"response_time":1669073457290.42},{"trial":1,"action":1,"button_pressed":7,"time_out":false,"dwell_time":31.528076171875,"response_time":1669073457807.39},{"trial":1,"action":9,"button_pressed":-1,"time_out":false,"dwell_time":47.583984375,"response_time":1669073458674.16},{"trial":2,"action":1,"button_pressed":2,"time_out":false,"dwell_time":30.989013671875,"response_time":1669073471253.09},{"trial":2,"action":1,"button_pressed":4,"time_out":false,"dwell_time":64.52587890625,"response_time":1669073471585.76},{"trial":2,"action":1,"button_pressed":10,"time_out":false,"dwell_time":81.843017578125,"response_time":1669073471919.72},{"trial":2,"action":1,"button_pressed":5,"time_out":false,"dwell_time":65.0517578125,"response_time":1669073472302.91},{"trial":2,"action":9,"button_pressed":-1,"time_out":false,"dwell_time":48.35791015625,"response_time":1669073473103.45},{"trial":3,"action":1,"button_pressed":0,"time_out":false,"dwell_time":64.837890625,"response_time":1669073487980.57},{"trial":3,"action":1,"button_pressed":7,"time_out":false,"dwell_time":65.055908203125,"response_time":1669073488547.63},{"trial":3,"action":1,"button_pressed":10,"time_out":false,"dwell_time":64.403076171875,"response_time":1669073488996.6},{"trial":3,"action":1,"button_pressed":4,"time_out":false,"dwell_time":47.2890625,"response_time":1669073489446.87},{"trial":3,"action":1,"button_pressed":1,"time_out":false,"dwell_time":81.68701171875,"response_time":1669073489947.14},{"trial":3,"action":9,"button_pressed":-1,"time_out":false,"dwell_time":47.552978515625,"response_time":1669073490713.51},{"trial":4,"action":1,"button_pressed":2,"time_out":false,"dwell_time":47.48583984375,"response_time":1669073508274.31},{"trial":4,"action":1,"button_pressed":6,"time_out":false,"dwell_time":82.0849609375,"response_time":1669073508757.86},{"trial":4,"action":1,"button_pressed":10,"time_out":false,"dwell_time":64.9990234375,"response_time":1669073509040.87},{"trial":4,"action":1,"button_pressed":7,"time_out":false,"dwell_time":48.488037109375,"response_time":1669073509740.65},{"trial":4,"action":1,"button_pressed":9,"time_out":false,"dwell_time":65.281982421875,"response_time":1669073510090.57},{"trial":4,"action":1,"button_pressed":3,"time_out":false,"dwell_time":47.385986328125,"response_time":1669073510423.46},{"trial":4,"action":9,"button_pressed":-1,"time_out":false,"dwell_time":82.408203125,"response_time":1669073511757.15},{"trial":5,"action":1,"button_pressed":7,"time_out":false,"dwell_time":64.381103515625,"response_time":1669073532216.62},{"trial":5,"action":1,"button_pressed":11,"time_out":false,"dwell_time":65.2158203125,"response_time":1669073532449.84},{"trial":5,"action":1,"button_pressed":0,"time_out":false,"dwell_time":63.760986328125,"response_time":1669073532998.91},{"trial":5,"action":1,"button_pressed":3,"time_out":false,"dwell_time":64.321044921875,"response_time":1669073533432.11},{"trial":5,"action":1,"button_pressed":6,"time_out":false,"dwell_time":47.991943359375,"response_time":1669073539297.25},{"trial":5,"action":1,"button_pressed":6,"time_out":false,"dwell_time":81.724853515625,"response_time":1669073540347.2},{"trial":5,"action":1,"button_pressed":6,"time_out":false,"dwell_time":80.951171875,"response_time":1669073542512.49},{"trial":5,"action":0,"button_pressed":-1,"time_out":false,"dwell_time":48.322021484375,"response_time":1669073543813.48},{"trial":5,"action":1,"button_pressed":7,"time_out":false,"dwell_time":81.598876953125,"response_time":1669073544829.04},{"trial":5,"action":1,"button_pressed":11,"time_out":false,"dwell_time":81.840087890625,"response_time":1669073545045.65},{"trial":5,"action":1,"button_pressed":0,"time_out":false,"dwell_time":48.22607421875,"response_time":1669073545562.64},{"trial":5,"action":1,"button_pressed":3,"time_out":false,"dwell_time":48.369873046875,"response_time":1669073545861.87},{"trial":5,"action":1,"button_pressed":10,"time_out":false,"dwell_time":48.128173828125,"response_time":1669073548628.33},{"trial":5,"action":0,"button_pressed":-1,"time_out":false,"dwell_time":48.263916015625,"response_time":1669073550627.72},{"trial":5,"action":1,"button_pressed":7,"time_out":false,"dwell_time":81.817138671875,"response_time":1669073551343.74},{"trial":5,"action":1,"button_pressed":11,"time_out":false,"dwell_time":63.69287109375,"response_time":1669073551576.22},{"trial":5,"action":1,"button_pressed":0,"time_out":false,"dwell_time":48.134033203125,"response_time":1669073552177.06},{"trial":5,"action":1,"button_pressed":6,"time_out":false,"dwell_time":47.926025390625,"response_time":1669073552760.24},{"trial":5,"action":1,"button_pressed":5,"time_out":false,"dwell_time":65.236083984375,"response_time":1669073553242.98},{"trial":5,"action":1,"button_pressed":9,"time_out":false,"dwell_time":48.006103515625,"response_time":1669073553693.35},{"trial":5,"action":9,"button_pressed":-1,"time_out":false,"dwell_time":48.64697265625,"response_time":1669073554510.26},{"trial":6,"action":1,"button_pressed":10,"time_out":false,"dwell_time":64.544921875,"response_time":1669073576168.19},{"trial":6,"action":1,"button_pressed":2,"time_out":false,"dwell_time":65.25,"response_time":1669073577851.57},{"trial":6,"action":1,"button_pressed":1,"time_out":false,"dwell_time":81.80712890625,"response_time":1669073578651.29},{"trial":6,"action":1,"button_pressed":7,"time_out":false,"dwell_time":98.533935546875,"response_time":1669073579134.59},{"trial":6,"action":1,"button_pressed":6,"time_out":false,"dwell_time":98.364013671875,"response_time":1669073579467.77},{"trial":6,"action":1,"button_pressed":4,"time_out":false,"dwell_time":65.130126953125,"response_time":1669073581067.14},{"trial":6,"action":9,"button_pressed":-1,"time_out":false,"dwell_time":47.890869140625,"response_time":1669073582900.11},{"trial":7,"action":1,"button_pressed":9,"time_out":false,"dwell_time":48.35888671875,"response_time":1669073597911.46},{"trial":7,"action":1,"button_pressed":0,"time_out":false,"dwell_time":64.451171875,"response_time":1669073598344.87},{"trial":7,"action":1,"button_pressed":2,"time_out":false,"dwell_time":49.260009765625,"response_time":1669073598595.34},{"trial":7,"action":1,"button_pressed":1,"time_out":false,"dwell_time":64.328125,"response_time":1669073599111.17},{"trial":7,"action":1,"button_pressed":6,"time_out":false,"dwell_time":63.56005859375,"response_time":1669073599360.75},{"trial":7,"action":9,"button_pressed":-1,"time_out":false,"dwell_time":31.219970703125,"response_time":1669073599994.48},{"trial":8,"action":1,"button_pressed":1,"time_out":false,"dwell_time":81.44091796875,"response_time":1669073617238.08},{"trial":8,"action":1,"button_pressed":9,"time_out":false,"dwell_time":64.49609375,"response_time":1669073618404.31},{"trial":8,"action":1,"button_pressed":5,"time_out":false,"dwell_time":47.514892578125,"response_time":1669073618871.19},{"trial":8,"action":1,"button_pressed":6,"time_out":false,"dwell_time":64.030029296875,"response_time":1669073619454.49},{"trial":8,"action":1,"button_pressed":7,"time_out":false,"dwell_time":64.43603515625,"response_time":1669073619770.44},{"trial":8,"action":1,"button_pressed":2,"time_out":false,"dwell_time":47.951171875,"response_time":1669073620287.36},{"trial":8,"action":9,"button_pressed":-1,"time_out":false,"dwell_time":48.616943359375,"response_time":1669073621070.89},{"trial":9,"action":1,"button_pressed":11,"time_out":false,"dwell_time":48.014892578125,"response_time":1669073641130.75},{"trial":9,"action":1,"button_pressed":4,"time_out":false,"dwell_time":48.098876953125,"response_time":1669073641513.76},{"trial":9,"action":1,"button_pressed":3,"time_out":false,"dwell_time":82.2841796875,"response_time":1669073641764.43},{"trial":9,"action":1,"button_pressed":10,"time_out":false,"dwell_time":81.0458984375,"response_time":1669073642063.31},{"trial":9,"action":1,"button_pressed":2,"time_out":false,"dwell_time":65.1259765625,"response_time":1669073642447.14},{"trial":9,"action":1,"button_pressed":8,"time_out":false,"dwell_time":81.80810546875,"response_time":1669073642747.09},{"trial":9,"action":1,"button_pressed":1,"time_out":false,"dwell_time":64.277099609375,"response_time":1669073643162.75},{"trial":9,"action":9,"button_pressed":-1,"time_out":false,"dwell_time":47.98291015625,"response_time":1669073644863.34},{"trial":10,"action":1,"button_pressed":10,"time_out":false,"dwell_time":47.51708984375,"response_time":1669073667672.04},{"trial":10,"action":1,"button_pressed":2,"time_out":false,"dwell_time":47.52490234375,"response_time":1669073668021.84},{"trial":10,"action":1,"button_pressed":1,"time_out":false,"dwell_time":63.68212890625,"response_time":1669073668954.33},{"trial":10,"action":1,"button_pressed":9,"time_out":false,"dwell_time":98.56494140625,"response_time":1669073669288.41},{"trial":10,"action":1,"button_pressed":8,"time_out":false,"dwell_time":82.037109375,"response_time":1669073669588.27},{"trial":10,"action":1,"button_pressed":11,"time_out":false,"dwell_time":64.007080078125,"response_time":1669073670071.32},{"trial":10,"action":1,"button_pressed":4,"time_out":false,"dwell_time":82.623779296875,"response_time":1669073670505.19},{"trial":10,"action":1,"button_pressed":5,"time_out":false,"dwell_time":64.52001953125,"response_time":1669073671419.96},{"trial":10,"action":9,"button_pressed":-1,"time_out":false,"dwell_time":49.507080078125,"response_time":1669073672005},{"trial":11,"action":1,"button_pressed":6,"time_out":false,"dwell_time":63.5048828125,"response_time":1669073697478.24},{"trial":11,"action":1,"button_pressed":7,"time_out":false,"dwell_time":63.4521484375,"response_time":1669073697744.71},{"trial":11,"action":1,"button_pressed":8,"time_out":false,"dwell_time":182,"response_time":1669073701011.31},{"trial":11,"action":1,"button_pressed":10,"time_out":false,"dwell_time":98.80078125,"response_time":1669073701527.91},{"trial":11,"action":1,"button_pressed":1,"time_out":false,"dwell_time":81.1337890625,"response_time":1669073703859.64},{"trial":11,"action":1,"button_pressed":4,"time_out":false,"dwell_time":47.166015625,"response_time":1669073704392.94},{"trial":11,"action":1,"button_pressed":11,"time_out":false,"dwell_time":64.44189453125,"response_time":1669073704860.02},{"trial":11,"action":1,"button_pressed":5,"time_out":false,"dwell_time":48.875,"response_time":1669073705426.78},{"trial":11,"action":9,"button_pressed":-1,"time_out":false,"dwell_time":64.114013671875,"response_time":1669073706359.19},{"trial":12,"action":1,"button_pressed":5,"time_out":false,"dwell_time":48.91796875,"response_time":1669073732151.45},{"trial":12,"action":1,"button_pressed":9,"time_out":false,"dwell_time":63.821044921875,"response_time":1669073732750.47},{"trial":12,"action":1,"button_pressed":3,"time_out":false,"dwell_time":81.177001953125,"response_time":1669073733050.98},{"trial":12,"action":1,"button_pressed":4,"time_out":false,"dwell_time":64.39599609375,"response_time":1669073733283.07},{"trial":12,"action":1,"button_pressed":7,"time_out":false,"dwell_time":64.120849609375,"response_time":1669073733717.35},{"trial":12,"action":1,"button_pressed":10,"time_out":false,"dwell_time":80.64892578125,"response_time":1669073734049.37},{"trial":12,"action":1,"button_pressed":2,"time_out":false,"dwell_time":48.013916015625,"response_time":1669073734449.79},{"trial":12,"action":9,"button_pressed":-1,"time_out":false,"dwell_time":48.56494140625,"response_time":1669073735183.33}]}