{"meta_data":{"additional_headers":{},"game_name":"Recollect","version":"2.53.01","user_name":"30","organization":"braingamecenter","study":"mpl2_2022_11","session_number":0,"device_id":"74342D95-EE82-45E3-8ADF-48FB3203C5DD"},"data":[{"trial":0,"action":1,"button_pressed":7,"time_out":false,"dwell_time":80.43798828125,"response_time":1677107549342.04},{"trial":0,"action":1,"button_pressed":4,"time_out":false,"dwell_time":63.534912109375,"response_time":1677107549525.16},{"trial":0,"action":9,"button_pressed":-1,"time_out":false,"dwell_time":92.078125,"response_time":1677107550303.54},{"trial":1,"action":1,"button_pressed":8,"time_out":false,"dwell_time":131.8271484375,"response_time":1677107560055.89},{"trial":1,"action":1,"button_pressed":11,"time_out":false,"dwell_time":113.404052734375,"response_time":1677107560238.25},{"trial":1,"action":1,"button_pressed":5,"time_out":false,"dwell_time":81.05908203125,"response_time":1677107560672.2},{"trial":1,"action":9,"button_pressed":-1,"time_out":false,"dwell_time":82.046142578125,"response_time":1677107561488.96},{"trial":2,"action":1,"button_pressed":9,"time_out":false,"dwell_time":64.322998046875,"response_time":1677107574534.36},{"trial":2,"action":1,"button_pressed":11,"time_out":false,"dwell_time":48.8251953125,"response_time":1677107574867.96},{"trial":2,"action":1,"button_pressed":8,"time_out":false,"dwell_time":64.224853515625,"response_time":1677107575467.23},{"trial":2,"action":1,"button_pressed":0,"time_out":false,"dwell_time":31.519775390625,"response_time":1677107575917.59},{"trial":2,"action":9,"button_pressed":-1,"time_out":false,"dwell_time":64.1640625,"response_time":1677107576283.57},{"trial":3,"action":1,"button_pressed":6,"time_out":false,"dwell_time":115.007080078125,"response_time":1677107591062.33},{"trial":3,"action":1,"button_pressed":3,"time_out":false,"dwell_time":131.97705078125,"response_time":1677107591278.88},{"trial":3,"action":1,"button_pressed":8,"time_out":false,"dwell_time":163.60986328125,"response_time":1677107591561.39},{"trial":3,"action":1,"button_pressed":11,"time_out":false,"dwell_time":65.05810546875,"response_time":1677107592561.63},{"trial":3,"action":1,"button_pressed":0,"time_out":false,"dwell_time":81.140869140625,"response_time":1677107592961.56},{"trial":3,"action":9,"button_pressed":-1,"time_out":false,"dwell_time":98.14501953125,"response_time":1677107593977.65},{"trial":4,"action":1,"button_pressed":3,"time_out":false,"dwell_time":63.1259765625,"response_time":1677107615236.89},{"trial":4,"action":1,"button_pressed":4,"time_out":false,"dwell_time":97.995849609375,"response_time":1677107615703.45},{"trial":4,"action":1,"button_pressed":7,"time_out":false,"dwell_time":81.578125,"response_time":1677107618003.18},{"trial":4,"action":1,"button_pressed":10,"time_out":false,"dwell_time":63.996826171875,"response_time":1677107618419.13},{"trial":4,"action":1,"button_pressed":2,"time_out":false,"dwell_time":113.998046875,"response_time":1677107618869.32},{"trial":4,"action":1,"button_pressed":9,"time_out":false,"dwell_time":97.154052734375,"response_time":1677107621385.09},{"trial":4,"action":9,"button_pressed":-1,"time_out":false,"dwell_time":64.30419921875,"response_time":1677107621985.28},{"trial":5,"action":1,"button_pressed":4,"time_out":false,"dwell_time":82.046142578125,"response_time":1677107639629.63},{"trial":5,"action":1,"button_pressed":11,"time_out":false,"dwell_time":48.301025390625,"response_time":1677107639995.93},{"trial":5,"action":1,"button_pressed":3,"time_out":false,"dwell_time":48.428955078125,"response_time":1677107640296.61},{"trial":5,"action":1,"button_pressed":5,"time_out":false,"dwell_time":64.31103515625,"response_time":1677107640679.07},{"trial":5,"action":1,"button_pressed":7,"time_out":false,"dwell_time":80.844970703125,"response_time":1677107641128.94},{"trial":5,"action":9,"button_pressed":-1,"time_out":false,"dwell_time":80.8291015625,"response_time":1677107643578.02},{"trial":6,"action":1,"button_pressed":6,"time_out":false,"dwell_time":64.363037109375,"response_time":1677107655740.23},{"trial":6,"action":1,"button_pressed":8,"time_out":false,"dwell_time":47.431884765625,"response_time":1677107656673.61},{"trial":6,"action":1,"button_pressed":11,"time_out":false,"dwell_time":64.81005859375,"response_time":1677107657123.57},{"trial":6,"action":1,"button_pressed":7,"time_out":false,"dwell_time":64.9609375,"response_time":1677107658106.64},{"trial":6,"action":9,"button_pressed":-1,"time_out":false,"dwell_time":47.861083984375,"response_time":1677107658889.95},{"trial":7,"action":1,"button_pressed":0,"time_out":false,"dwell_time":30.93505859375,"response_time":1677107674434.56},{"trial":7,"action":1,"button_pressed":7,"time_out":false,"dwell_time":97.615966796875,"response_time":1677107674967.18},{"trial":7,"action":1,"button_pressed":10,"time_out":false,"dwell_time":65.14794921875,"response_time":1677107675434.34},{"trial":7,"action":1,"button_pressed":4,"time_out":false,"dwell_time":64.6240234375,"response_time":1677107676051},{"trial":7,"action":1,"button_pressed":1,"time_out":false,"dwell_time":63.757080078125,"response_time":1677107676350.19},{"trial":7,"action":9,"button_pressed":-1,"time_out":false,"dwell_time":282.865966796875,"response_time":1677107677052.32},{"trial":8,"action":9,"button_pressed":-1,"time_out":true,"dwell_time":26504.5559082031,"response_time":1677107703274.01},{"trial":9,"action":1,"button_pressed":8,"time_out":false,"dwell_time":63.589111328125,"response_time":1677107721651.86},{"trial":9,"action":1,"button_pressed":4,"time_out":false,"dwell_time":81.676025390625,"response_time":1677107722035.54},{"trial":9,"action":1,"button_pressed":0,"time_out":false,"dwell_time":114.301025390625,"response_time":1677107722518.7},{"trial":9,"action":1,"button_pressed":1,"time_out":false,"dwell_time":97.8359375,"response_time":1677107724500.88},{"trial":9,"action":1,"button_pressed":9,"time_out":false,"dwell_time":81.0849609375,"response_time":1677107724967.39},{"trial":9,"action":1,"button_pressed":5,"time_out":false,"dwell_time":30.578125,"response_time":1677107725484.12},{"trial":9,"action":9,"button_pressed":-1,"time_out":false,"dwell_time":115.44677734375,"response_time":1677107726167.96}]}