{"meta_data":{"additional_headers":{},"game_name":"Recollect","version":"2.53.01","user_name":"34","organization":"braingamecenter","study":"mpl2_2022_11","session_number":0,"device_id":"74342D95-EE82-45E3-8ADF-48FB3203C5DD"},"data":[{"trial":0,"action":1,"button_pressed":1,"time_out":false,"dwell_time":48.35693359375,"response_time":1677463610003.1},{"trial":0,"action":1,"button_pressed":5,"time_out":false,"dwell_time":48.845947265625,"response_time":1677463610620.13},{"trial":0,"action":9,"button_pressed":-1,"time_out":false,"dwell_time":30.428955078125,"response_time":1677463611265.92},{"trial":1,"action":1,"button_pressed":3,"time_out":false,"dwell_time":64.968017578125,"response_time":1677463620849.72},{"trial":1,"action":1,"button_pressed":9,"time_out":false,"dwell_time":65.223876953125,"response_time":1677463621249.55},{"trial":1,"action":1,"button_pressed":7,"time_out":false,"dwell_time":65.18701171875,"response_time":1677463621832.68},{"trial":1,"action":9,"button_pressed":-1,"time_out":false,"dwell_time":31.2421875,"response_time":1677463622582.68},{"trial":2,"action":1,"button_pressed":11,"time_out":false,"dwell_time":63.740966796875,"response_time":1677463634761.14},{"trial":2,"action":1,"button_pressed":0,"time_out":false,"dwell_time":63.656982421875,"response_time":1677463635327.57},{"trial":2,"action":1,"button_pressed":4,"time_out":false,"dwell_time":65.1669921875,"response_time":1677463635711.38},{"trial":2,"action":1,"button_pressed":1,"time_out":false,"dwell_time":64.89404296875,"response_time":1677463636294.46},{"trial":2,"action":9,"button_pressed":-1,"time_out":false,"dwell_time":64.85595703125,"response_time":1677463639793.2},{"trial":3,"action":1,"button_pressed":11,"time_out":false,"dwell_time":63.575927734375,"response_time":1677463654587.93},{"trial":3,"action":1,"button_pressed":1,"time_out":false,"dwell_time":80.89501953125,"response_time":1677463654971.72},{"trial":3,"action":1,"button_pressed":9,"time_out":false,"dwell_time":47.6259765625,"response_time":1677463655305.43},{"trial":3,"action":1,"button_pressed":7,"time_out":false,"dwell_time":63.9189453125,"response_time":1677463655704.8},{"trial":3,"action":1,"button_pressed":4,"time_out":false,"dwell_time":48.97607421875,"response_time":1677463656055.17},{"trial":3,"action":9,"button_pressed":-1,"time_out":false,"dwell_time":65.448974609375,"response_time":1677463656754.85},{"trial":4,"action":1,"button_pressed":6,"time_out":false,"dwell_time":48.057861328125,"response_time":1677463673999.39},{"trial":4,"action":1,"button_pressed":5,"time_out":false,"dwell_time":63.808837890625,"response_time":1677463674431.34},{"trial":4,"action":1,"button_pressed":0,"time_out":false,"dwell_time":64.43701171875,"response_time":1677463674881.08},{"trial":4,"action":1,"button_pressed":11,"time_out":false,"dwell_time":47.64599609375,"response_time":1677463675265},{"trial":4,"action":1,"button_pressed":8,"time_out":false,"dwell_time":64.97900390625,"response_time":1677463675681.49},{"trial":4,"action":1,"button_pressed":4,"time_out":false,"dwell_time":48.1591796875,"response_time":1677463676014.49},{"trial":4,"action":9,"button_pressed":-1,"time_out":false,"dwell_time":65.64208984375,"response_time":1677463676581.81},{"trial":5,"action":1,"button_pressed":11,"time_out":false,"dwell_time":65.017822265625,"response_time":1677463696391.56},{"trial":5,"action":1,"button_pressed":4,"time_out":false,"dwell_time":81.8310546875,"response_time":1677463696841.42},{"trial":5,"action":1,"button_pressed":3,"time_out":false,"dwell_time":81.83203125,"response_time":1677463697257.83},{"trial":5,"action":1,"button_pressed":8,"time_out":false,"dwell_time":63.29296875,"response_time":1677463697656.95},{"trial":5,"action":1,"button_pressed":2,"time_out":false,"dwell_time":63.994873046875,"response_time":1677463698156.97},{"trial":5,"action":1,"button_pressed":10,"time_out":false,"dwell_time":64.844970703125,"response_time":1677463699307.13},{"trial":5,"action":1,"button_pressed":1,"time_out":false,"dwell_time":64.43798828125,"response_time":1677463699823.78},{"trial":5,"action":9,"button_pressed":-1,"time_out":false,"dwell_time":48.530029296875,"response_time":1677463700657.07},{"trial":6,"action":1,"button_pressed":0,"time_out":false,"dwell_time":81.783935546875,"response_time":1677463720700.07},{"trial":6,"action":1,"button_pressed":8,"time_out":false,"dwell_time":63.343994140625,"response_time":1677463721065.86},{"trial":6,"action":1,"button_pressed":5,"time_out":false,"dwell_time":81.802978515625,"response_time":1677463721466.49},{"trial":6,"action":1,"button_pressed":6,"time_out":false,"dwell_time":81.39794921875,"response_time":1677463721982.99},{"trial":6,"action":1,"button_pressed":10,"time_out":false,"dwell_time":63.669921875,"response_time":1677463731695.81},{"trial":6,"action":1,"button_pressed":2,"time_out":false,"dwell_time":47.410888671875,"response_time":1677463732129.34},{"trial":6,"action":1,"button_pressed":4,"time_out":false,"dwell_time":48.2490234375,"response_time":1677463732945.76},{"trial":6,"action":9,"button_pressed":-1,"time_out":false,"dwell_time":65.60107421875,"response_time":1677463733479.77},{"trial":7,"action":1,"button_pressed":4,"time_out":false,"dwell_time":98.35009765625,"response_time":1677463748757.43},{"trial":7,"action":1,"button_pressed":9,"time_out":false,"dwell_time":64.131103515625,"response_time":1677463749057.54},{"trial":7,"action":1,"button_pressed":9,"time_out":false,"dwell_time":48.598876953125,"response_time":1677463751224.36},{"trial":7,"action":1,"button_pressed":9,"time_out":false,"dwell_time":64.2099609375,"response_time":1677463752039.18},{"trial":7,"action":1,"button_pressed":9,"time_out":false,"dwell_time":13.547119140625,"response_time":1677463752805.39},{"trial":7,"action":0,"button_pressed":-1,"time_out":false,"dwell_time":64.464111328125,"response_time":1677463754139.4},{"trial":7,"action":1,"button_pressed":4,"time_out":false,"dwell_time":98.401123046875,"response_time":1677463754772.37},{"trial":7,"action":1,"button_pressed":11,"time_out":false,"dwell_time":49.010986328125,"response_time":1677463755172.61},{"trial":7,"action":1,"button_pressed":5,"time_out":false,"dwell_time":48.634033203125,"response_time":1677463755739.04},{"trial":7,"action":1,"button_pressed":3,"time_out":false,"dwell_time":65.113037109375,"response_time":1677463756221.88},{"trial":7,"action":1,"button_pressed":9,"time_out":false,"dwell_time":31.412109375,"response_time":1677463756488.19},{"trial":7,"action":9,"button_pressed":-1,"time_out":false,"dwell_time":16.95703125,"response_time":1677463757320.92},{"trial":8,"action":1,"button_pressed":11,"time_out":false,"dwell_time":64.722900390625,"response_time":1677463775315.89},{"trial":8,"action":1,"button_pressed":8,"time_out":false,"dwell_time":64.779052734375,"response_time":1677463775698.75},{"trial":8,"action":1,"button_pressed":6,"time_out":false,"dwell_time":81.614990234375,"response_time":1677463776082.31},{"trial":8,"action":1,"button_pressed":4,"time_out":false,"dwell_time":81.77392578125,"response_time":1677463776415.11},{"trial":8,"action":1,"button_pressed":1,"time_out":false,"dwell_time":65.176025390625,"response_time":1677463776831.72},{"trial":8,"action":1,"button_pressed":10,"time_out":false,"dwell_time":47.798828125,"response_time":1677463777231.88},{"trial":8,"action":9,"button_pressed":-1,"time_out":false,"dwell_time":16.919189453125,"response_time":1677463777697.52},{"trial":9,"action":1,"button_pressed":2,"time_out":false,"dwell_time":63.70703125,"response_time":1677463797340.93},{"trial":9,"action":1,"button_pressed":6,"time_out":false,"dwell_time":81.220947265625,"response_time":1677463797874.41},{"trial":9,"action":1,"button_pressed":9,"time_out":false,"dwell_time":63.2978515625,"response_time":1677463798340.58},{"trial":9,"action":1,"button_pressed":0,"time_out":false,"dwell_time":81.235107421875,"response_time":1677463798824.06},{"trial":9,"action":1,"button_pressed":3,"time_out":false,"dwell_time":81.635986328125,"response_time":1677463799224.22},{"trial":9,"action":1,"button_pressed":10,"time_out":false,"dwell_time":64.003173828125,"response_time":1677463799574.09},{"trial":9,"action":1,"button_pressed":7,"time_out":false,"dwell_time":64.345947265625,"response_time":1677463800057.45},{"trial":9,"action":9,"button_pressed":-1,"time_out":false,"dwell_time":48.360107421875,"response_time":1677463800641.32},{"trial":10,"action":1,"button_pressed":1,"time_out":false,"dwell_time":30.81396484375,"response_time":1677463822999.62},{"trial":10,"action":1,"button_pressed":10,"time_out":false,"dwell_time":64.1640625,"response_time":1677463823465.57},{"trial":10,"action":1,"button_pressed":0,"time_out":false,"dwell_time":81.40185546875,"response_time":1677463823949.17},{"trial":10,"action":1,"button_pressed":2,"time_out":false,"dwell_time":64.509033203125,"response_time":1677463824382.27},{"trial":10,"action":1,"button_pressed":7,"time_out":false,"dwell_time":63.9638671875,"response_time":1677463829364.28},{"trial":10,"action":1,"button_pressed":9,"time_out":false,"dwell_time":80.800048828125,"response_time":1677463832629.17},{"trial":10,"action":1,"button_pressed":3,"time_out":false,"dwell_time":63.965087890625,"response_time":1677463832896.19},{"trial":10,"action":1,"button_pressed":4,"time_out":false,"dwell_time":64.958984375,"response_time":1677463833096.4},{"trial":10,"action":9,"button_pressed":-1,"time_out":false,"dwell_time":82.237060546875,"response_time":1677463833431.02},{"trial":11,"action":1,"button_pressed":2,"time_out":false,"dwell_time":30.6669921875,"response_time":1677463855355.66},{"trial":11,"action":1,"button_pressed":11,"time_out":false,"dwell_time":64.26806640625,"response_time":1677463855921.56},{"trial":11,"action":1,"button_pressed":11,"time_out":false,"dwell_time":47.83203125,"response_time":1677463856988.23},{"trial":11,"action":0,"button_pressed":-1,"time_out":false,"dwell_time":64.322021484375,"response_time":1677463857855.19},{"trial":11,"action":1,"button_pressed":2,"time_out":false,"dwell_time":47.294921875,"response_time":1677463858287.85},{"trial":11,"action":1,"button_pressed":4,"time_out":false,"dwell_time":49.092041015625,"response_time":1677463858771.89},{"trial":11,"action":1,"button_pressed":11,"time_out":false,"dwell_time":47.31298828125,"response_time":1677463859371.03},{"trial":11,"action":1,"button_pressed":6,"time_out":false,"dwell_time":31.322998046875,"response_time":1677463859820.78},{"trial":11,"action":1,"button_pressed":5,"time_out":false,"dwell_time":81.569091796875,"response_time":1677463863652.95},{"trial":11,"action":1,"button_pressed":3,"time_out":false,"dwell_time":80.97216796875,"response_time":1677463865368.43},{"trial":11,"action":1,"button_pressed":10,"time_out":false,"dwell_time":81.14013671875,"response_time":1677463866368.27},{"trial":11,"action":1,"button_pressed":8,"time_out":false,"dwell_time":32.081787109375,"response_time":1677463866536.01},{"trial":11,"action":9,"button_pressed":-1,"time_out":false,"dwell_time":48.74609375,"response_time":1677463868335.98}]}