{"meta_data":{"additional_headers":{},"game_name":"Recollect","version":"2.53.01","user_name":"35","organization":"braingamecenter","study":"mpl2_2022_11","session_number":0,"device_id":"74342D95-EE82-45E3-8ADF-48FB3203C5DD"},"data":[{"trial":0,"action":1,"button_pressed":5,"time_out":false,"dwell_time":81.14697265625,"response_time":1677519137969.76},{"trial":0,"action":1,"button_pressed":3,"time_out":false,"dwell_time":81.885009765625,"response_time":1677519138719.51},{"trial":0,"action":9,"button_pressed":-1,"time_out":false,"dwell_time":92.099853515625,"response_time":1677519139497.03},{"trial":1,"action":1,"button_pressed":7,"time_out":false,"dwell_time":64.370849609375,"response_time":1677519149282.8},{"trial":1,"action":1,"button_pressed":3,"time_out":false,"dwell_time":81.572998046875,"response_time":1677519149849.26},{"trial":1,"action":1,"button_pressed":2,"time_out":false,"dwell_time":80.307861328125,"response_time":1677519150415.07},{"trial":1,"action":9,"button_pressed":-1,"time_out":false,"dwell_time":81.553955078125,"response_time":1677519151148.59},{"trial":2,"action":1,"button_pressed":6,"time_out":false,"dwell_time":64.10400390625,"response_time":1677519163428.2},{"trial":2,"action":1,"button_pressed":8,"time_out":false,"dwell_time":65.10888671875,"response_time":1677519164044.75},{"trial":2,"action":1,"button_pressed":11,"time_out":false,"dwell_time":47.330078125,"response_time":1677519164677.55},{"trial":2,"action":1,"button_pressed":7,"time_out":false,"dwell_time":48.132080078125,"response_time":1677519165177.41},{"trial":2,"action":9,"button_pressed":-1,"time_out":false,"dwell_time":81.60498046875,"response_time":1677519166310.48},{"trial":3,"action":1,"button_pressed":4,"time_out":false,"dwell_time":31.011962890625,"response_time":1677519180972.45},{"trial":3,"action":1,"button_pressed":11,"time_out":false,"dwell_time":48.19482421875,"response_time":1677519181706.26},{"trial":3,"action":1,"button_pressed":5,"time_out":false,"dwell_time":64.408203125,"response_time":1677519182355.48},{"trial":3,"action":1,"button_pressed":3,"time_out":false,"dwell_time":81.251953125,"response_time":1677519182888.11},{"trial":3,"action":1,"button_pressed":9,"time_out":false,"dwell_time":64.326904296875,"response_time":1677519183305.1},{"trial":3,"action":9,"button_pressed":-1,"time_out":false,"dwell_time":81.338134765625,"response_time":1677519184171.99},{"trial":4,"action":1,"button_pressed":1,"time_out":false,"dwell_time":63.85205078125,"response_time":1677519201515.38},{"trial":4,"action":1,"button_pressed":9,"time_out":false,"dwell_time":63.64404296875,"response_time":1677519202048.5},{"trial":4,"action":1,"button_pressed":5,"time_out":false,"dwell_time":81.069091796875,"response_time":1677519202715.79},{"trial":4,"action":1,"button_pressed":6,"time_out":false,"dwell_time":81.6640625,"response_time":1677519203248.75},{"trial":4,"action":1,"button_pressed":7,"time_out":false,"dwell_time":48.01513671875,"response_time":1677519203665.76},{"trial":4,"action":1,"button_pressed":0,"time_out":false,"dwell_time":64.494873046875,"response_time":1677519204381.19},{"trial":4,"action":9,"button_pressed":-1,"time_out":false,"dwell_time":48.72412109375,"response_time":1677519205131.73},{"trial":5,"action":1,"button_pressed":7,"time_out":false,"dwell_time":81.970947265625,"response_time":1677519222742.7},{"trial":5,"action":1,"button_pressed":3,"time_out":false,"dwell_time":47.9921875,"response_time":1677519223392.72},{"trial":5,"action":1,"button_pressed":8,"time_out":false,"dwell_time":48.075927734375,"response_time":1677519224092.62},{"trial":5,"action":1,"button_pressed":0,"time_out":false,"dwell_time":48.202880859375,"response_time":1677519224609.07},{"trial":5,"action":1,"button_pressed":4,"time_out":false,"dwell_time":48.239990234375,"response_time":1677519224975.62},{"trial":5,"action":1,"button_pressed":1,"time_out":false,"dwell_time":47.52294921875,"response_time":1677519225458.08},{"trial":5,"action":9,"button_pressed":-1,"time_out":false,"dwell_time":64.298095703125,"response_time":1677519226341.27},{"trial":6,"action":1,"button_pressed":11,"time_out":false,"dwell_time":64.924072265625,"response_time":1677519246534.98},{"trial":6,"action":1,"button_pressed":4,"time_out":false,"dwell_time":47.3427734375,"response_time":1677519247450.97},{"trial":6,"action":1,"button_pressed":10,"time_out":false,"dwell_time":64.18994140625,"response_time":1677519248001.09},{"trial":6,"action":1,"button_pressed":3,"time_out":false,"dwell_time":47.3349609375,"response_time":1677519248467.37},{"trial":6,"action":1,"button_pressed":2,"time_out":false,"dwell_time":64.484130859375,"response_time":1677519249000.13},{"trial":6,"action":1,"button_pressed":8,"time_out":false,"dwell_time":47.18603515625,"response_time":1677519249400.44},{"trial":6,"action":1,"button_pressed":1,"time_out":false,"dwell_time":64.156982421875,"response_time":1677519249950.42},{"trial":6,"action":9,"button_pressed":-1,"time_out":false,"dwell_time":64.031005859375,"response_time":1677519250999.95},{"trial":7,"action":1,"button_pressed":8,"time_out":false,"dwell_time":48.337158203125,"response_time":1677519271410.22},{"trial":7,"action":1,"button_pressed":5,"time_out":false,"dwell_time":81.64306640625,"response_time":1677519271960.13},{"trial":7,"action":1,"button_pressed":3,"time_out":false,"dwell_time":47.2880859375,"response_time":1677519272593.1},{"trial":7,"action":1,"button_pressed":6,"time_out":false,"dwell_time":47.467041015625,"response_time":1677519273126.3},{"trial":7,"action":1,"button_pressed":0,"time_out":false,"dwell_time":64.281005859375,"response_time":1677519273676.1},{"trial":7,"action":1,"button_pressed":1,"time_out":false,"dwell_time":64.217041015625,"response_time":1677519274259.34},{"trial":7,"action":1,"button_pressed":11,"time_out":false,"dwell_time":48.391845703125,"response_time":1677519274709.04},{"trial":7,"action":9,"button_pressed":-1,"time_out":false,"dwell_time":83.509033203125,"response_time":1677519275593.91},{"trial":8,"action":1,"button_pressed":7,"time_out":false,"dwell_time":31.697021484375,"response_time":1677519291271.25},{"trial":8,"action":1,"button_pressed":4,"time_out":false,"dwell_time":48.1728515625,"response_time":1677519292003.47},{"trial":8,"action":1,"button_pressed":3,"time_out":false,"dwell_time":64.34619140625,"response_time":1677519292552.81},{"trial":8,"action":1,"button_pressed":11,"time_out":false,"dwell_time":48.266845703125,"response_time":1677519293069.84},{"trial":8,"action":1,"button_pressed":10,"time_out":false,"dwell_time":48.096923828125,"response_time":1677519293520.35},{"trial":8,"action":9,"button_pressed":-1,"time_out":false,"dwell_time":64.93115234375,"response_time":1677519294302.85},{"trial":9,"action":1,"button_pressed":5,"time_out":false,"dwell_time":48.24609375,"response_time":1677519309214.73},{"trial":9,"action":1,"button_pressed":9,"time_out":false,"dwell_time":64.86279296875,"response_time":1677519309798.03},{"trial":9,"action":1,"button_pressed":6,"time_out":false,"dwell_time":30.607177734375,"response_time":1677519310181},{"trial":9,"action":1,"button_pressed":8,"time_out":false,"dwell_time":47.2099609375,"response_time":1677519310664.16},{"trial":9,"action":1,"button_pressed":7,"time_out":false,"dwell_time":30.909912109375,"response_time":1677519311314.07},{"trial":9,"action":9,"button_pressed":-1,"time_out":false,"dwell_time":98.13916015625,"response_time":1677519312247.62},{"trial":10,"action":1,"button_pressed":11,"time_out":false,"dwell_time":64.485107421875,"response_time":1677519330091.62},{"trial":10,"action":1,"button_pressed":5,"time_out":false,"dwell_time":47.648193359375,"response_time":1677519330774.53},{"trial":10,"action":1,"button_pressed":6,"time_out":false,"dwell_time":47.79296875,"response_time":1677519331358.27},{"trial":10,"action":1,"button_pressed":0,"time_out":false,"dwell_time":48.303955078125,"response_time":1677519331857.47},{"trial":10,"action":1,"button_pressed":9,"time_out":false,"dwell_time":81.489990234375,"response_time":1677519332390.83},{"trial":10,"action":1,"button_pressed":8,"time_out":false,"dwell_time":64.1689453125,"response_time":1677519332807.21},{"trial":10,"action":9,"button_pressed":-1,"time_out":false,"dwell_time":47.754150390625,"response_time":1677519333490.62},{"trial":11,"action":1,"button_pressed":8,"time_out":false,"dwell_time":31.7099609375,"response_time":1677519350718.35},{"trial":11,"action":1,"button_pressed":0,"time_out":false,"dwell_time":30.89013671875,"response_time":1677519351067.92},{"trial":11,"action":1,"button_pressed":1,"time_out":false,"dwell_time":64.4169921875,"response_time":1677519351567.26},{"trial":11,"action":1,"button_pressed":9,"time_out":false,"dwell_time":48.160888671875,"response_time":1677519351951.81},{"trial":11,"action":1,"button_pressed":3,"time_out":false,"dwell_time":48.114013671875,"response_time":1677519352234.85},{"trial":11,"action":1,"button_pressed":5,"time_out":false,"dwell_time":47.5029296875,"response_time":1677519352584.07},{"trial":11,"action":9,"button_pressed":-1,"time_out":false,"dwell_time":64.403076171875,"response_time":1677519353167.61},{"trial":12,"action":1,"button_pressed":10,"time_out":false,"dwell_time":48.287841796875,"response_time":1677519372761.06},{"trial":12,"action":1,"button_pressed":1,"time_out":false,"dwell_time":48.381103515625,"response_time":1677519373527.47},{"trial":12,"action":1,"button_pressed":2,"time_out":false,"dwell_time":65.137939453125,"response_time":1677519374110.79},{"trial":12,"action":1,"button_pressed":6,"time_out":false,"dwell_time":97.551025390625,"response_time":1677519374710.6},{"trial":12,"action":1,"button_pressed":7,"time_out":false,"dwell_time":81.669189453125,"response_time":1677519375093.7},{"trial":12,"action":1,"button_pressed":0,"time_out":false,"dwell_time":47.518798828125,"response_time":1677519375660.03},{"trial":12,"action":9,"button_pressed":-1,"time_out":false,"dwell_time":64.93505859375,"response_time":1677519376326.56},{"trial":13,"action":1,"button_pressed":6,"time_out":false,"dwell_time":31.035888671875,"response_time":1677519396503.64},{"trial":13,"action":1,"button_pressed":10,"time_out":false,"dwell_time":48.867919921875,"response_time":1677519396870.59},{"trial":13,"action":1,"button_pressed":11,"time_out":false,"dwell_time":31.56103515625,"response_time":1677519397203.16},{"trial":13,"action":1,"button_pressed":3,"time_out":false,"dwell_time":48.2568359375,"response_time":1677519398320.2},{"trial":13,"action":1,"button_pressed":5,"time_out":false,"dwell_time":47.512939453125,"response_time":1677519399019.22},{"trial":13,"action":9,"button_pressed":-1,"time_out":false,"dwell_time":81.589111328125,"response_time":1677519399602.38}]}