{"meta_data":{"additional_headers":{},"game_name":"Recollect","version":"2.53.01","user_name":"37","organization":"braingamecenter","study":"mpl2_2022_11","session_number":0,"device_id":"74342D95-EE82-45E3-8ADF-48FB3203C5DD"},"data":[{"trial":0,"action":1,"button_pressed":9,"time_out":false,"dwell_time":64.0478515625,"response_time":1677608688831.9},{"trial":0,"action":1,"button_pressed":1,"time_out":false,"dwell_time":64.661865234375,"response_time":1677608689714.96},{"trial":0,"action":9,"button_pressed":-1,"time_out":false,"dwell_time":75.158935546875,"response_time":1677608690542.72},{"trial":1,"action":1,"button_pressed":7,"time_out":false,"dwell_time":131.637939453125,"response_time":1677608700612.07},{"trial":1,"action":1,"button_pressed":3,"time_out":false,"dwell_time":115.18603515625,"response_time":1677608701261.71},{"trial":1,"action":1,"button_pressed":2,"time_out":false,"dwell_time":131.218017578125,"response_time":1677608701894.22},{"trial":1,"action":9,"button_pressed":-1,"time_out":false,"dwell_time":114.6640625,"response_time":1677608702511.66},{"trial":2,"action":1,"button_pressed":2,"time_out":false,"dwell_time":97.017822265625,"response_time":1677608714606.59},{"trial":2,"action":1,"button_pressed":4,"time_out":false,"dwell_time":47.593017578125,"response_time":1677608715673.38},{"trial":2,"action":1,"button_pressed":10,"time_out":false,"dwell_time":64.364013671875,"response_time":1677608716339.36},{"trial":2,"action":1,"button_pressed":5,"time_out":false,"dwell_time":81.1220703125,"response_time":1677608717123.09},{"trial":2,"action":9,"button_pressed":-1,"time_out":false,"dwell_time":81.45703125,"response_time":1677608718106.54},{"trial":3,"action":1,"button_pressed":8,"time_out":false,"dwell_time":64.385986328125,"response_time":1677608732750.71},{"trial":3,"action":1,"button_pressed":4,"time_out":false,"dwell_time":47.198974609375,"response_time":1677608733150.74},{"trial":3,"action":1,"button_pressed":1,"time_out":false,"dwell_time":131.99609375,"response_time":1677608733701.08},{"trial":3,"action":1,"button_pressed":5,"time_out":false,"dwell_time":81.26708984375,"response_time":1677608734016.97},{"trial":3,"action":1,"button_pressed":3,"time_out":false,"dwell_time":47.448974609375,"response_time":1677608734550.35},{"trial":3,"action":9,"button_pressed":-1,"time_out":false,"dwell_time":48.0029296875,"response_time":1677608735283.98},{"trial":4,"action":1,"button_pressed":2,"time_out":false,"dwell_time":114.6220703125,"response_time":1677608753077.2},{"trial":4,"action":1,"button_pressed":6,"time_out":false,"dwell_time":63.69482421875,"response_time":1677608753776.96},{"trial":4,"action":1,"button_pressed":10,"time_out":false,"dwell_time":63.943115234375,"response_time":1677608755193.7},{"trial":4,"action":1,"button_pressed":7,"time_out":false,"dwell_time":64.40380859375,"response_time":1677608755859.51},{"trial":4,"action":1,"button_pressed":9,"time_out":false,"dwell_time":47.47705078125,"response_time":1677608756359.9},{"trial":4,"action":1,"button_pressed":3,"time_out":false,"dwell_time":48.827880859375,"response_time":1677608756793.76},{"trial":4,"action":9,"button_pressed":-1,"time_out":false,"dwell_time":81.458984375,"response_time":1677608757442.8},{"trial":5,"action":1,"button_pressed":10,"time_out":false,"dwell_time":80.217041015625,"response_time":1677608777269.21},{"trial":5,"action":1,"button_pressed":1,"time_out":false,"dwell_time":48.202880859375,"response_time":1677608777803.4},{"trial":5,"action":1,"button_pressed":2,"time_out":false,"dwell_time":97.057861328125,"response_time":1677608778452.06},{"trial":5,"action":1,"button_pressed":7,"time_out":false,"dwell_time":63.837158203125,"response_time":1677608779119.07},{"trial":5,"action":1,"button_pressed":6,"time_out":false,"dwell_time":64.3369140625,"response_time":1677608779535.01},{"trial":5,"action":1,"button_pressed":0,"time_out":false,"dwell_time":98.052001953125,"response_time":1677608780085.07},{"trial":5,"action":1,"button_pressed":4,"time_out":false,"dwell_time":80.223876953125,"response_time":1677608780384.76},{"trial":5,"action":9,"button_pressed":-1,"time_out":false,"dwell_time":64.326904296875,"response_time":1677608781784.98},{"trial":6,"action":1,"button_pressed":3,"time_out":false,"dwell_time":98.700927734375,"response_time":1677608805294.25},{"trial":6,"action":1,"button_pressed":1,"time_out":false,"dwell_time":98.553955078125,"response_time":1677608805710.24},{"trial":6,"action":1,"button_pressed":8,"time_out":false,"dwell_time":98.412109375,"response_time":1677608806293.57},{"trial":6,"action":1,"button_pressed":5,"time_out":false,"dwell_time":48.2509765625,"response_time":1677608807609.47},{"trial":6,"action":1,"button_pressed":6,"time_out":false,"dwell_time":80.949951171875,"response_time":1677608814106.87},{"trial":6,"action":1,"button_pressed":0,"time_out":false,"dwell_time":97.093017578125,"response_time":1677608814806.67},{"trial":6,"action":1,"button_pressed":10,"time_out":false,"dwell_time":47.390869140625,"response_time":1677608815556.83},{"trial":6,"action":9,"button_pressed":-1,"time_out":false,"dwell_time":81.382080078125,"response_time":1677608817573.4},{"trial":7,"action":1,"button_pressed":0,"time_out":false,"dwell_time":130.346923828125,"response_time":1677608840015.01},{"trial":7,"action":1,"button_pressed":8,"time_out":false,"dwell_time":79.98583984375,"response_time":1677608840564.83},{"trial":7,"action":1,"button_pressed":6,"time_out":false,"dwell_time":131.524169921875,"response_time":1677608841781.79},{"trial":7,"action":1,"button_pressed":5,"time_out":false,"dwell_time":114.5048828125,"response_time":1677608842164.31},{"trial":7,"action":1,"button_pressed":9,"time_out":false,"dwell_time":80.31494140625,"response_time":1677608842680.79},{"trial":7,"action":1,"button_pressed":7,"time_out":false,"dwell_time":63.93505859375,"response_time":1677608843331.23},{"trial":7,"action":1,"button_pressed":2,"time_out":false,"dwell_time":64.48095703125,"response_time":1677608844147.66},{"trial":7,"action":9,"button_pressed":-1,"time_out":false,"dwell_time":97.113037109375,"response_time":1677608845713.63},{"trial":8,"action":1,"button_pressed":1,"time_out":false,"dwell_time":64.70703125,"response_time":1677608862940.9},{"trial":8,"action":1,"button_pressed":9,"time_out":false,"dwell_time":47.919921875,"response_time":1677608863341.56},{"trial":8,"action":1,"button_pressed":5,"time_out":false,"dwell_time":47.296875,"response_time":1677608863774.15},{"trial":8,"action":1,"button_pressed":6,"time_out":false,"dwell_time":81.3740234375,"response_time":1677608864324.27},{"trial":8,"action":1,"button_pressed":7,"time_out":false,"dwell_time":48.044189453125,"response_time":1677608864757.13},{"trial":8,"action":1,"button_pressed":2,"time_out":false,"dwell_time":30.72900390625,"response_time":1677608865290.36},{"trial":8,"action":9,"button_pressed":-1,"time_out":false,"dwell_time":64.89501953125,"response_time":1677608866040.84},{"trial":9,"action":1,"button_pressed":3,"time_out":false,"dwell_time":13.587158203125,"response_time":1677608885899.62},{"trial":9,"action":1,"button_pressed":10,"time_out":false,"dwell_time":48.8359375,"response_time":1677608886350.71},{"trial":9,"action":1,"button_pressed":0,"time_out":false,"dwell_time":49.148193359375,"response_time":1677608886917.27},{"trial":9,"action":1,"button_pressed":4,"time_out":false,"dwell_time":47.912109375,"response_time":1677608887433.5},{"trial":9,"action":1,"button_pressed":5,"time_out":false,"dwell_time":47.37109375,"response_time":1677608887916.15},{"trial":9,"action":1,"button_pressed":1,"time_out":false,"dwell_time":65.123046875,"response_time":1677608888466.24},{"trial":9,"action":1,"button_pressed":2,"time_out":false,"dwell_time":30.840087890625,"response_time":1677608888949.02},{"trial":9,"action":9,"button_pressed":-1,"time_out":false,"dwell_time":81.689208984375,"response_time":1677608889698.89},{"trial":10,"action":1,"button_pressed":6,"time_out":false,"dwell_time":64.35791015625,"response_time":1677608909342.79},{"trial":10,"action":1,"button_pressed":0,"time_out":false,"dwell_time":63.570068359375,"response_time":1677608910025.04},{"trial":10,"action":1,"button_pressed":8,"time_out":false,"dwell_time":64.462890625,"response_time":1677608910524.96},{"trial":10,"action":1,"button_pressed":1,"time_out":false,"dwell_time":63.44384765625,"response_time":1677608911724.52},{"trial":10,"action":1,"button_pressed":5,"time_out":false,"dwell_time":65.333984375,"response_time":1677608912274.96},{"trial":10,"action":1,"button_pressed":7,"time_out":false,"dwell_time":63.492919921875,"response_time":1677608912940.8},{"trial":10,"action":1,"button_pressed":11,"time_out":false,"dwell_time":63.6259765625,"response_time":1677608913123.99},{"trial":10,"action":9,"button_pressed":-1,"time_out":false,"dwell_time":98.64501953125,"response_time":1677608914907.78}]}