{"meta_data":{"additional_headers":{},"game_name":"Recollect","version":"2.53.01","user_name":"38","organization":"braingamecenter","study":"mpl2_2022_11","session_number":0,"device_id":"74342D95-EE82-45E3-8ADF-48FB3203C5DD"},"data":[{"trial":0,"action":1,"button_pressed":2,"time_out":false,"dwell_time":64.4140625,"response_time":1677630567339.48},{"trial":0,"action":1,"button_pressed":9,"time_out":false,"dwell_time":63.713134765625,"response_time":1677630567988.54},{"trial":0,"action":9,"button_pressed":-1,"time_out":false,"dwell_time":90.72509765625,"response_time":1677630568714.76},{"trial":1,"action":1,"button_pressed":1,"time_out":false,"dwell_time":114.566162109375,"response_time":1677630577918.77},{"trial":1,"action":1,"button_pressed":6,"time_out":false,"dwell_time":80.93798828125,"response_time":1677630578335.87},{"trial":1,"action":1,"button_pressed":8,"time_out":false,"dwell_time":47.318115234375,"response_time":1677630578935.41},{"trial":1,"action":9,"button_pressed":-1,"time_out":false,"dwell_time":82.14990234375,"response_time":1677630579619.27},{"trial":2,"action":1,"button_pressed":10,"time_out":false,"dwell_time":81.925048828125,"response_time":1677630591648.34},{"trial":2,"action":1,"button_pressed":3,"time_out":false,"dwell_time":81.786865234375,"response_time":1677630592164.55},{"trial":2,"action":1,"button_pressed":6,"time_out":false,"dwell_time":81.64208984375,"response_time":1677630592497.82},{"trial":2,"action":1,"button_pressed":8,"time_out":false,"dwell_time":65.031982421875,"response_time":1677630592947.71},{"trial":2,"action":9,"button_pressed":-1,"time_out":false,"dwell_time":148.054931640625,"response_time":1677630594630.89},{"trial":3,"action":1,"button_pressed":3,"time_out":false,"dwell_time":148.0380859375,"response_time":1677630608908.58},{"trial":3,"action":1,"button_pressed":8,"time_out":false,"dwell_time":81.06982421875,"response_time":1677630609374.94},{"trial":3,"action":1,"button_pressed":4,"time_out":false,"dwell_time":115.336181640625,"response_time":1677630609758.89},{"trial":3,"action":1,"button_pressed":10,"time_out":false,"dwell_time":64.77294921875,"response_time":1677630610708.33},{"trial":3,"action":1,"button_pressed":11,"time_out":false,"dwell_time":47.191162109375,"response_time":1677630611324.68},{"trial":3,"action":9,"button_pressed":-1,"time_out":false,"dwell_time":64.880859375,"response_time":1677630612091.15},{"trial":4,"action":1,"button_pressed":0,"time_out":false,"dwell_time":97.68701171875,"response_time":1677630628769.05},{"trial":4,"action":1,"button_pressed":4,"time_out":false,"dwell_time":64.672119140625,"response_time":1677630629218.35},{"trial":4,"action":1,"button_pressed":11,"time_out":false,"dwell_time":64.280029296875,"response_time":1677630629868.75},{"trial":4,"action":1,"button_pressed":3,"time_out":false,"dwell_time":64.280029296875,"response_time":1677630630318.55},{"trial":4,"action":1,"button_pressed":5,"time_out":false,"dwell_time":63.739990234375,"response_time":1677630630751.23},{"trial":4,"action":1,"button_pressed":7,"time_out":false,"dwell_time":64.404052734375,"response_time":1677630631400.96},{"trial":4,"action":9,"button_pressed":-1,"time_out":false,"dwell_time":82.3271484375,"response_time":1677630632118.57},{"trial":5,"action":1,"button_pressed":11,"time_out":false,"dwell_time":81.1611328125,"response_time":1677630651411.09},{"trial":5,"action":1,"button_pressed":4,"time_out":false,"dwell_time":63.60791015625,"response_time":1677630652727.14},{"trial":5,"action":1,"button_pressed":3,"time_out":false,"dwell_time":64.39013671875,"response_time":1677630653127.69},{"trial":5,"action":1,"button_pressed":9,"time_out":false,"dwell_time":64.375,"response_time":1677630653560.19},{"trial":5,"action":1,"button_pressed":2,"time_out":false,"dwell_time":64.35302734375,"response_time":1677630654077.33},{"trial":5,"action":1,"button_pressed":8,"time_out":false,"dwell_time":64.2958984375,"response_time":1677630654476.56},{"trial":5,"action":1,"button_pressed":1,"time_out":false,"dwell_time":64.4580078125,"response_time":1677630655076.44},{"trial":5,"action":9,"button_pressed":-1,"time_out":false,"dwell_time":34.56494140625,"response_time":1677630662042.01},{"trial":6,"action":1,"button_pressed":1,"time_out":false,"dwell_time":63.705078125,"response_time":1677630681684.39},{"trial":6,"action":1,"button_pressed":9,"time_out":false,"dwell_time":81.61181640625,"response_time":1677630682967.85},{"trial":6,"action":1,"button_pressed":11,"time_out":false,"dwell_time":64.161865234375,"response_time":1677630683517.77},{"trial":6,"action":1,"button_pressed":2,"time_out":false,"dwell_time":98.23291015625,"response_time":1677630684700.69},{"trial":6,"action":1,"button_pressed":5,"time_out":false,"dwell_time":64.401123046875,"response_time":1677630684933.36},{"trial":6,"action":1,"button_pressed":7,"time_out":false,"dwell_time":80.85107421875,"response_time":1677630685650.34},{"trial":6,"action":1,"button_pressed":4,"time_out":false,"dwell_time":63.740966796875,"response_time":1677630687515.89},{"trial":6,"action":9,"button_pressed":-1,"time_out":false,"dwell_time":97.52197265625,"response_time":1677630687783.09},{"trial":7,"action":1,"button_pressed":5,"time_out":false,"dwell_time":65.23095703125,"response_time":1677630702461.57},{"trial":7,"action":1,"button_pressed":9,"time_out":false,"dwell_time":64.615966796875,"response_time":1677630702861.29},{"trial":7,"action":1,"button_pressed":6,"time_out":false,"dwell_time":64.126953125,"response_time":1677630703227.84},{"trial":7,"action":1,"button_pressed":8,"time_out":false,"dwell_time":47.883056640625,"response_time":1677630703661.45},{"trial":7,"action":1,"button_pressed":7,"time_out":false,"dwell_time":64.051025390625,"response_time":1677630704243.51},{"trial":7,"action":9,"button_pressed":-1,"time_out":false,"dwell_time":80.488037109375,"response_time":1677630704960.43},{"trial":8,"action":1,"button_pressed":6,"time_out":false,"dwell_time":98.315185546875,"response_time":1677630721688.61},{"trial":8,"action":1,"button_pressed":5,"time_out":false,"dwell_time":65.27001953125,"response_time":1677630722205.08},{"trial":8,"action":1,"button_pressed":0,"time_out":false,"dwell_time":80.267822265625,"response_time":1677630722687.41},{"trial":8,"action":1,"button_pressed":11,"time_out":false,"dwell_time":64.153076171875,"response_time":1677630723454.54},{"trial":8,"action":1,"button_pressed":8,"time_out":false,"dwell_time":81.75390625,"response_time":1677630723921.04},{"trial":8,"action":1,"button_pressed":4,"time_out":false,"dwell_time":30.408935546875,"response_time":1677630724403.94},{"trial":8,"action":9,"button_pressed":-1,"time_out":false,"dwell_time":64.868896484375,"response_time":1677630725220.49},{"trial":9,"action":1,"button_pressed":5,"time_out":false,"dwell_time":81.656005859375,"response_time":1677630744447.64},{"trial":9,"action":1,"button_pressed":3,"time_out":false,"dwell_time":49.655029296875,"response_time":1677630745181.1},{"trial":9,"action":1,"button_pressed":8,"time_out":false,"dwell_time":80.89990234375,"response_time":1677630745813.81},{"trial":9,"action":1,"button_pressed":11,"time_out":false,"dwell_time":48.6201171875,"response_time":1677630746480.58},{"trial":9,"action":1,"button_pressed":7,"time_out":false,"dwell_time":81.01708984375,"response_time":1677630746830.09},{"trial":9,"action":1,"button_pressed":4,"time_out":false,"dwell_time":98.34814453125,"response_time":1677630747479.81},{"trial":9,"action":1,"button_pressed":10,"time_out":false,"dwell_time":64.416015625,"response_time":1677630747895.98},{"trial":9,"action":9,"button_pressed":-1,"time_out":false,"dwell_time":48.185791015625,"response_time":1677630748529.77},{"trial":10,"action":1,"button_pressed":6,"time_out":false,"dwell_time":64.27001953125,"response_time":1677630770688.41},{"trial":10,"action":1,"button_pressed":5,"time_out":false,"dwell_time":63.27392578125,"response_time":1677630771288.08},{"trial":10,"action":1,"button_pressed":0,"time_out":false,"dwell_time":113.56201171875,"response_time":1677630771954.46},{"trial":10,"action":1,"button_pressed":3,"time_out":false,"dwell_time":80.863037109375,"response_time":1677630772471.53},{"trial":10,"action":1,"button_pressed":8,"time_out":false,"dwell_time":80.95703125,"response_time":1677630773088.17},{"trial":10,"action":1,"button_pressed":1,"time_out":false,"dwell_time":48.22802734375,"response_time":1677630773720.91},{"trial":10,"action":1,"button_pressed":7,"time_out":false,"dwell_time":63.5341796875,"response_time":1677630774753.58},{"trial":10,"action":9,"button_pressed":-1,"time_out":false,"dwell_time":64.993896484375,"response_time":1677630775687.19},{"trial":11,"action":1,"button_pressed":5,"time_out":false,"dwell_time":97.663818359375,"response_time":1677630797513.28},{"trial":11,"action":1,"button_pressed":6,"time_out":false,"dwell_time":98.081787109375,"response_time":1677630798829.61},{"trial":11,"action":1,"button_pressed":11,"time_out":false,"dwell_time":64.248046875,"response_time":1677630799662.6},{"trial":11,"action":1,"button_pressed":4,"time_out":false,"dwell_time":64.330078125,"response_time":1677630800195.05},{"trial":11,"action":1,"button_pressed":1,"time_out":false,"dwell_time":31.485107421875,"response_time":1677630800578.78},{"trial":11,"action":1,"button_pressed":10,"time_out":false,"dwell_time":64.468017578125,"response_time":1677630801045.05},{"trial":11,"action":1,"button_pressed":7,"time_out":false,"dwell_time":64.260009765625,"response_time":1677630801445.46},{"trial":11,"action":1,"button_pressed":0,"time_out":false,"dwell_time":64.305908203125,"response_time":1677630801978.62},{"trial":11,"action":9,"button_pressed":-1,"time_out":false,"dwell_time":81.93310546875,"response_time":1677630804228.36}]}