{"meta_data":{"additional_headers":{},"game_name":"Recollect","version":"2.53.01","user_name":"39","organization":"braingamecenter","study":"mpl2_2022_11","session_number":0,"device_id":"74342D95-EE82-45E3-8ADF-48FB3203C5DD"},"data":[{"trial":0,"action":1,"button_pressed":6,"time_out":false,"dwell_time":47.784912109375,"response_time":1677692921912.04},{"trial":0,"action":1,"button_pressed":10,"time_out":false,"dwell_time":65.02099609375,"response_time":1677692922378.65},{"trial":0,"action":9,"button_pressed":-1,"time_out":false,"dwell_time":92.22314453125,"response_time":1677692923155.45},{"trial":1,"action":1,"button_pressed":6,"time_out":false,"dwell_time":48.526123046875,"response_time":1677692933109.12},{"trial":1,"action":1,"button_pressed":5,"time_out":false,"dwell_time":30.97998046875,"response_time":1677692933807.99},{"trial":1,"action":1,"button_pressed":4,"time_out":false,"dwell_time":65.2421875,"response_time":1677692934258.11},{"trial":1,"action":9,"button_pressed":-1,"time_out":false,"dwell_time":64.97509765625,"response_time":1677692934940.96},{"trial":2,"action":1,"button_pressed":10,"time_out":false,"dwell_time":64.616943359375,"response_time":1677692947270.58},{"trial":2,"action":1,"button_pressed":3,"time_out":false,"dwell_time":64.835205078125,"response_time":1677692947503.48},{"trial":2,"action":1,"button_pressed":6,"time_out":false,"dwell_time":48.47607421875,"response_time":1677692947670.23},{"trial":2,"action":1,"button_pressed":8,"time_out":false,"dwell_time":47.635009765625,"response_time":1677692947936.82},{"trial":2,"action":9,"button_pressed":-1,"time_out":false,"dwell_time":98.18701171875,"response_time":1677692951468.89},{"trial":3,"action":1,"button_pressed":2,"time_out":false,"dwell_time":64.51904296875,"response_time":1677692966230.95},{"trial":3,"action":1,"button_pressed":6,"time_out":false,"dwell_time":80.83203125,"response_time":1677692966913.77},{"trial":3,"action":1,"button_pressed":7,"time_out":false,"dwell_time":49.22607421875,"response_time":1677692967164.04},{"trial":3,"action":1,"button_pressed":0,"time_out":false,"dwell_time":32.4140625,"response_time":1677692967814.24},{"trial":3,"action":1,"button_pressed":8,"time_out":false,"dwell_time":48.35498046875,"response_time":1677692968196.77},{"trial":3,"action":9,"button_pressed":-1,"time_out":false,"dwell_time":64.3779296875,"response_time":1677692969079.89},{"trial":4,"action":1,"button_pressed":11,"time_out":false,"dwell_time":65.381103515625,"response_time":1677692986291.1},{"trial":4,"action":1,"button_pressed":8,"time_out":false,"dwell_time":65.22412109375,"response_time":1677692986774.1},{"trial":4,"action":1,"button_pressed":6,"time_out":false,"dwell_time":64.440185546875,"response_time":1677692987240.75},{"trial":4,"action":1,"button_pressed":4,"time_out":false,"dwell_time":64.486083984375,"response_time":1677692987457.28},{"trial":4,"action":1,"button_pressed":1,"time_out":false,"dwell_time":48.876953125,"response_time":1677692987724.05},{"trial":4,"action":1,"button_pressed":10,"time_out":false,"dwell_time":48.300048828125,"response_time":1677692988206.8},{"trial":4,"action":9,"button_pressed":-1,"time_out":false,"dwell_time":131.649169921875,"response_time":1677692989490.52},{"trial":5,"action":1,"button_pressed":6,"time_out":false,"dwell_time":48.337890625,"response_time":1677693008883.34},{"trial":5,"action":1,"button_pressed":10,"time_out":false,"dwell_time":80.56396484375,"response_time":1677693009416.04},{"trial":5,"action":1,"button_pressed":4,"time_out":false,"dwell_time":64.925048828125,"response_time":1677693010815.97},{"trial":5,"action":1,"button_pressed":8,"time_out":false,"dwell_time":48.421142578125,"response_time":1677693011032.68},{"trial":5,"action":1,"button_pressed":11,"time_out":false,"dwell_time":64.6611328125,"response_time":1677693011549.42},{"trial":5,"action":1,"button_pressed":3,"time_out":false,"dwell_time":49.093994140625,"response_time":1677693011816.42},{"trial":5,"action":1,"button_pressed":5,"time_out":false,"dwell_time":48.31103515625,"response_time":1677693012215.6},{"trial":5,"action":9,"button_pressed":-1,"time_out":false,"dwell_time":81.722900390625,"response_time":1677693012882.85},{"trial":6,"action":1,"button_pressed":8,"time_out":false,"dwell_time":30.929931640625,"response_time":1677693032758.82},{"trial":6,"action":1,"button_pressed":5,"time_out":false,"dwell_time":49.10107421875,"response_time":1677693033226.13},{"trial":6,"action":1,"button_pressed":1,"time_out":false,"dwell_time":64.408203125,"response_time":1677693033891.92},{"trial":6,"action":1,"button_pressed":6,"time_out":false,"dwell_time":48.2861328125,"response_time":1677693034092.42},{"trial":6,"action":1,"button_pressed":0,"time_out":false,"dwell_time":48.505126953125,"response_time":1677693034491.65},{"trial":6,"action":1,"button_pressed":7,"time_out":false,"dwell_time":65.092041015625,"response_time":1677693035191.63},{"trial":6,"action":1,"button_pressed":11,"time_out":false,"dwell_time":64.458984375,"response_time":1677693035374.9},{"trial":6,"action":9,"button_pressed":-1,"time_out":false,"dwell_time":130.913818359375,"response_time":1677693036491.02},{"trial":7,"action":1,"button_pressed":5,"time_out":false,"dwell_time":81.489013671875,"response_time":1677693058400.39},{"trial":7,"action":1,"button_pressed":6,"time_out":false,"dwell_time":82.06787109375,"response_time":1677693058967.36},{"trial":7,"action":1,"button_pressed":1,"time_out":false,"dwell_time":65.281005859375,"response_time":1677693059250.68},{"trial":7,"action":1,"button_pressed":4,"time_out":false,"dwell_time":81.52001953125,"response_time":1677693059666.7},{"trial":7,"action":1,"button_pressed":10,"time_out":false,"dwell_time":30.843017578125,"response_time":1677693059933.35},{"trial":7,"action":1,"button_pressed":11,"time_out":false,"dwell_time":48.318115234375,"response_time":1677693060283.86},{"trial":7,"action":1,"button_pressed":7,"time_out":false,"dwell_time":48.37109375,"response_time":1677693060483.92},{"trial":7,"action":1,"button_pressed":0,"time_out":false,"dwell_time":31.900146484375,"response_time":1677693060983.86},{"trial":7,"action":9,"button_pressed":-1,"time_out":false,"dwell_time":132.34814453125,"response_time":1677693061850.02},{"trial":8,"action":1,"button_pressed":2,"time_out":false,"dwell_time":47.64990234375,"response_time":1677693083558.94},{"trial":8,"action":1,"button_pressed":6,"time_out":false,"dwell_time":81.637939453125,"response_time":1677693084241.82},{"trial":8,"action":1,"button_pressed":0,"time_out":false,"dwell_time":48.3779296875,"response_time":1677693084575.92},{"trial":8,"action":1,"button_pressed":5,"time_out":false,"dwell_time":63.819091796875,"response_time":1677693084907.97},{"trial":8,"action":1,"button_pressed":11,"time_out":false,"dwell_time":47.3759765625,"response_time":1677693085608.18},{"trial":8,"action":1,"button_pressed":10,"time_out":false,"dwell_time":81.76611328125,"response_time":1677693085941.63},{"trial":8,"action":1,"button_pressed":3,"time_out":false,"dwell_time":64.471923828125,"response_time":1677693086258.13},{"trial":8,"action":9,"button_pressed":-1,"time_out":false,"dwell_time":97.22802734375,"response_time":1677693087939.62},{"trial":9,"action":1,"button_pressed":4,"time_out":false,"dwell_time":64.81298828125,"response_time":1677693105484.7},{"trial":9,"action":1,"button_pressed":11,"time_out":false,"dwell_time":64.7568359375,"response_time":1677693105867.94},{"trial":9,"action":1,"button_pressed":3,"time_out":false,"dwell_time":31.60595703125,"response_time":1677693106217.92},{"trial":9,"action":1,"button_pressed":2,"time_out":false,"dwell_time":81.833984375,"response_time":1677693106634.84},{"trial":9,"action":1,"button_pressed":0,"time_out":false,"dwell_time":65.48095703125,"response_time":1677693108817.65},{"trial":9,"action":1,"button_pressed":10,"time_out":false,"dwell_time":81.615966796875,"response_time":1677693109150.38},{"trial":9,"action":1,"button_pressed":6,"time_out":false,"dwell_time":65.080078125,"response_time":1677693109400.31},{"trial":9,"action":9,"button_pressed":-1,"time_out":false,"dwell_time":98.469970703125,"response_time":1677693110016.92},{"trial":10,"action":1,"button_pressed":1,"time_out":false,"dwell_time":49.205078125,"response_time":1677693127412},{"trial":10,"action":1,"button_pressed":5,"time_out":false,"dwell_time":81.2041015625,"response_time":1677693129077.74},{"trial":10,"action":1,"button_pressed":6,"time_out":false,"dwell_time":64.469970703125,"response_time":1677693129527.03},{"trial":10,"action":1,"button_pressed":4,"time_out":false,"dwell_time":47.251953125,"response_time":1677693129810.25},{"trial":10,"action":1,"button_pressed":7,"time_out":false,"dwell_time":49.110107421875,"response_time":1677693130544.37},{"trial":10,"action":1,"button_pressed":2,"time_out":false,"dwell_time":65.330078125,"response_time":1677693131126.91},{"trial":10,"action":9,"button_pressed":-1,"time_out":true,"dwell_time":10077.6572265625,"response_time":1677693141139.23}]}