{"meta_data":{"additional_headers":{},"game_name":"Recollect","version":"2.53.01","user_name":"3","organization":"braingamecenter","study":"mpl2_2022_11","session_number":0,"device_id":"5D058FBB-ECD0-4D46-BF5F-BB154308C3EF"},"data":[{"trial":0,"action":1,"button_pressed":10,"time_out":false,"dwell_time":64.93994140625,"response_time":1669941357843.21},{"trial":0,"action":1,"button_pressed":7,"time_out":false,"dwell_time":81.843994140625,"response_time":1669941358576.33},{"trial":0,"action":9,"button_pressed":-1,"time_out":false,"dwell_time":74.087890625,"response_time":1669941359335.01},{"trial":1,"action":1,"button_pressed":7,"time_out":false,"dwell_time":115.5009765625,"response_time":1669941369073.43},{"trial":1,"action":1,"button_pressed":3,"time_out":false,"dwell_time":164.385986328125,"response_time":1669941369671.98},{"trial":1,"action":1,"button_pressed":2,"time_out":false,"dwell_time":164.421875,"response_time":1669941370389.4},{"trial":1,"action":9,"button_pressed":-1,"time_out":false,"dwell_time":114.697021484375,"response_time":1669941371155.62},{"trial":2,"action":1,"button_pressed":0,"time_out":false,"dwell_time":63.802978515625,"response_time":1669941383234.71},{"trial":2,"action":1,"button_pressed":10,"time_out":false,"dwell_time":64.31201171875,"response_time":1669941383800.86},{"trial":2,"action":1,"button_pressed":2,"time_out":false,"dwell_time":65.18701171875,"response_time":1669941384418.31},{"trial":2,"action":1,"button_pressed":6,"time_out":false,"dwell_time":97.56103515625,"response_time":1669941385018.19},{"trial":2,"action":9,"button_pressed":-1,"time_out":false,"dwell_time":31.26708984375,"response_time":1669941385668.24},{"trial":3,"action":1,"button_pressed":6,"time_out":false,"dwell_time":97.712890625,"response_time":1669941400413.45},{"trial":3,"action":1,"button_pressed":3,"time_out":false,"dwell_time":81.76611328125,"response_time":1669941400863.19},{"trial":3,"action":1,"button_pressed":8,"time_out":false,"dwell_time":64.287841796875,"response_time":1669941401429.01},{"trial":3,"action":1,"button_pressed":11,"time_out":false,"dwell_time":130.9951171875,"response_time":1669941402012.87},{"trial":3,"action":1,"button_pressed":0,"time_out":false,"dwell_time":65.573974609375,"response_time":1669941402513.08},{"trial":3,"action":9,"button_pressed":-1,"time_out":false,"dwell_time":114.903076171875,"response_time":1669941403129.02},{"trial":4,"action":1,"button_pressed":10,"time_out":false,"dwell_time":81.27001953125,"response_time":1669941420390.78},{"trial":4,"action":1,"button_pressed":2,"time_out":false,"dwell_time":64.971923828125,"response_time":1669941420923.64},{"trial":4,"action":1,"button_pressed":9,"time_out":false,"dwell_time":81.833984375,"response_time":1669941421473.52},{"trial":4,"action":1,"button_pressed":5,"time_out":false,"dwell_time":63.413818359375,"response_time":1669941422039.2},{"trial":4,"action":1,"button_pressed":11,"time_out":false,"dwell_time":115.02783203125,"response_time":1669941422673},{"trial":4,"action":1,"button_pressed":0,"time_out":false,"dwell_time":80.890869140625,"response_time":1669941423188.69},{"trial":4,"action":9,"button_pressed":-1,"time_out":false,"dwell_time":116.623046875,"response_time":1669941423839.79},{"trial":5,"action":1,"button_pressed":8,"time_out":false,"dwell_time":113.595947265625,"response_time":1669941443482.63},{"trial":5,"action":1,"button_pressed":5,"time_out":false,"dwell_time":64.31298828125,"response_time":1669941444032.97},{"trial":5,"action":1,"button_pressed":1,"time_out":false,"dwell_time":147.075927734375,"response_time":1669941445381.99},{"trial":5,"action":1,"button_pressed":9,"time_out":false,"dwell_time":63.41015625,"response_time":1669941446731.48},{"trial":5,"action":1,"button_pressed":0,"time_out":false,"dwell_time":31.81591796875,"response_time":1669941447315.27},{"trial":5,"action":1,"button_pressed":7,"time_out":false,"dwell_time":97.651123046875,"response_time":1669941448214.35},{"trial":5,"action":1,"button_pressed":11,"time_out":false,"dwell_time":81.133056640625,"response_time":1669941448914.92},{"trial":5,"action":9,"button_pressed":-1,"time_out":false,"dwell_time":130.847900390625,"response_time":1669941450497.41},{"trial":6,"action":1,"button_pressed":11,"time_out":false,"dwell_time":147.028076171875,"response_time":1669941470340.96},{"trial":6,"action":1,"button_pressed":4,"time_out":false,"dwell_time":214.364990234375,"response_time":1669941471523.75},{"trial":6,"action":1,"button_pressed":10,"time_out":false,"dwell_time":130.93994140625,"response_time":1669941473123.97},{"trial":6,"action":1,"button_pressed":2,"time_out":false,"dwell_time":80.3349609375,"response_time":1669941473689.75},{"trial":6,"action":1,"button_pressed":8,"time_out":false,"dwell_time":98.529052734375,"response_time":1669941474540.29},{"trial":6,"action":1,"button_pressed":1,"time_out":false,"dwell_time":113.73388671875,"response_time":1669941475055.94},{"trial":6,"action":9,"button_pressed":-1,"time_out":false,"dwell_time":181.56591796875,"response_time":1669941476440.09},{"trial":7,"action":1,"button_pressed":10,"time_out":false,"dwell_time":64.34912109375,"response_time":1669941491268.4},{"trial":7,"action":1,"button_pressed":5,"time_out":false,"dwell_time":80.384033203125,"response_time":1669941491817.39},{"trial":7,"action":1,"button_pressed":6,"time_out":false,"dwell_time":131.071044921875,"response_time":1669941492584.67},{"trial":7,"action":1,"button_pressed":3,"time_out":false,"dwell_time":147.9228515625,"response_time":1669941493567.71},{"trial":7,"action":1,"button_pressed":2,"time_out":false,"dwell_time":97.81884765625,"response_time":1669941494067.52},{"trial":7,"action":9,"button_pressed":-1,"time_out":false,"dwell_time":148.862060546875,"response_time":1669941494751.18},{"trial":8,"action":1,"button_pressed":11,"time_out":false,"dwell_time":147.760986328125,"response_time":1669941509446.1},{"trial":8,"action":1,"button_pressed":1,"time_out":false,"dwell_time":130.931884765625,"response_time":1669941509979.05},{"trial":8,"action":1,"button_pressed":9,"time_out":false,"dwell_time":97.7890625,"response_time":1669941510629.07},{"trial":8,"action":1,"button_pressed":7,"time_out":false,"dwell_time":131.152099609375,"response_time":1669941511144.81},{"trial":8,"action":1,"button_pressed":4,"time_out":false,"dwell_time":97.840087890625,"response_time":1669941511677.91},{"trial":8,"action":9,"button_pressed":-1,"time_out":false,"dwell_time":114.878173828125,"response_time":1669941512361.5},{"trial":9,"action":1,"button_pressed":9,"time_out":false,"dwell_time":82.02197265625,"response_time":1669941529989.71},{"trial":9,"action":1,"button_pressed":1,"time_out":false,"dwell_time":97.8330078125,"response_time":1669941530522.06},{"trial":9,"action":1,"button_pressed":2,"time_out":false,"dwell_time":64.497802734375,"response_time":1669941531005.2},{"trial":9,"action":1,"button_pressed":8,"time_out":false,"dwell_time":48.036865234375,"response_time":1669941531472.12},{"trial":9,"action":1,"button_pressed":6,"time_out":false,"dwell_time":80.112060546875,"response_time":1669941531954.88},{"trial":9,"action":1,"button_pressed":11,"time_out":false,"dwell_time":80.2119140625,"response_time":1669941532454.73},{"trial":9,"action":9,"button_pressed":-1,"time_out":false,"dwell_time":82.480224609375,"response_time":1669941533189.22},{"trial":10,"action":1,"button_pressed":1,"time_out":false,"dwell_time":132.0400390625,"response_time":1669941552949.26},{"trial":10,"action":1,"button_pressed":9,"time_out":false,"dwell_time":81.01513671875,"response_time":1669941553448.9},{"trial":10,"action":1,"button_pressed":7,"time_out":false,"dwell_time":97.4638671875,"response_time":1669941553948.01},{"trial":10,"action":1,"button_pressed":2,"time_out":false,"dwell_time":81.876953125,"response_time":1669941554615.21},{"trial":10,"action":1,"button_pressed":5,"time_out":false,"dwell_time":64.333984375,"response_time":1669941555115},{"trial":10,"action":1,"button_pressed":11,"time_out":false,"dwell_time":80.237060546875,"response_time":1669941555880.86},{"trial":10,"action":1,"button_pressed":3,"time_out":false,"dwell_time":63.632080078125,"response_time":1669941556613.91},{"trial":10,"action":9,"button_pressed":-1,"time_out":false,"dwell_time":130.573974609375,"response_time":1669941558247.2},{"trial":11,"action":1,"button_pressed":11,"time_out":false,"dwell_time":148.52001953125,"response_time":1669941580707.23},{"trial":11,"action":1,"button_pressed":3,"time_out":false,"dwell_time":31.623046875,"response_time":1669941581224.12},{"trial":11,"action":1,"button_pressed":7,"time_out":false,"dwell_time":114.98193359375,"response_time":1669941582173.33},{"trial":11,"action":1,"button_pressed":9,"time_out":false,"dwell_time":80.137939453125,"response_time":1669941582539.09},{"trial":11,"action":1,"button_pressed":4,"time_out":false,"dwell_time":64.156005859375,"response_time":1669941583922.66},{"trial":11,"action":1,"button_pressed":2,"time_out":false,"dwell_time":65.14501953125,"response_time":1669941584439.21},{"trial":11,"action":1,"button_pressed":10,"time_out":false,"dwell_time":80.9169921875,"response_time":1669941585239.02},{"trial":11,"action":1,"button_pressed":1,"time_out":false,"dwell_time":148.406982421875,"response_time":1669941585672.14},{"trial":11,"action":9,"button_pressed":-1,"time_out":false,"dwell_time":98.30615234375,"response_time":1669941586671.78},{"trial":12,"action":1,"button_pressed":4,"time_out":false,"dwell_time":81.51416015625,"response_time":1669941609897.47},{"trial":12,"action":1,"button_pressed":11,"time_out":false,"dwell_time":81.0009765625,"response_time":1669941610380.36},{"trial":12,"action":1,"button_pressed":7,"time_out":false,"dwell_time":81.720947265625,"response_time":1669941610897.75},{"trial":12,"action":1,"button_pressed":0,"time_out":false,"dwell_time":80.9970703125,"response_time":1669941611280.98},{"trial":12,"action":1,"button_pressed":2,"time_out":false,"dwell_time":30.93994140625,"response_time":1669941611664.03},{"trial":12,"action":1,"button_pressed":3,"time_out":false,"dwell_time":47.465087890625,"response_time":1669941612163.78},{"trial":12,"action":1,"button_pressed":1,"time_out":false,"dwell_time":64.40478515625,"response_time":1669941612513.91},{"trial":12,"action":1,"button_pressed":9,"time_out":false,"dwell_time":64.0927734375,"response_time":1669941612913.77},{"trial":12,"action":9,"button_pressed":-1,"time_out":false,"dwell_time":16.779052734375,"response_time":1669941613546.31}]}