{"meta_data":{"additional_headers":{},"game_name":"Recollect","version":"2.53.01","user_name":"42","organization":"braingamecenter","study":"mpl2_2022_11","session_number":0,"device_id":"74342D95-EE82-45E3-8ADF-48FB3203C5DD"},"data":[{"trial":0,"action":1,"button_pressed":4,"time_out":false,"dwell_time":65.23193359375,"response_time":1677873676781.03},{"trial":0,"action":1,"button_pressed":11,"time_out":false,"dwell_time":31.3759765625,"response_time":1677873677197.89},{"trial":0,"action":9,"button_pressed":-1,"time_out":false,"dwell_time":74.286865234375,"response_time":1677873678140.52},{"trial":1,"action":1,"button_pressed":7,"time_out":false,"dwell_time":48.306884765625,"response_time":1677873687660.61},{"trial":1,"action":1,"button_pressed":3,"time_out":false,"dwell_time":47.473876953125,"response_time":1677873688093.65},{"trial":1,"action":1,"button_pressed":2,"time_out":false,"dwell_time":48.090087890625,"response_time":1677873688544.18},{"trial":1,"action":9,"button_pressed":-1,"time_out":false,"dwell_time":47.8828125,"response_time":1677873688843.88},{"trial":2,"action":1,"button_pressed":4,"time_out":false,"dwell_time":49.407958984375,"response_time":1677873700723.64},{"trial":2,"action":1,"button_pressed":2,"time_out":false,"dwell_time":31.494873046875,"response_time":1677873701105.97},{"trial":2,"action":1,"button_pressed":7,"time_out":false,"dwell_time":31.288818359375,"response_time":1677873701689.83},{"trial":2,"action":1,"button_pressed":3,"time_out":false,"dwell_time":48.14697265625,"response_time":1677873702089.05},{"trial":2,"action":9,"button_pressed":-1,"time_out":false,"dwell_time":65.571044921875,"response_time":1677873702622.8},{"trial":3,"action":1,"button_pressed":8,"time_out":false,"dwell_time":48.317138671875,"response_time":1677873716867.66},{"trial":3,"action":1,"button_pressed":4,"time_out":false,"dwell_time":48.652099609375,"response_time":1677873717367.97},{"trial":3,"action":1,"button_pressed":1,"time_out":false,"dwell_time":49.179931640625,"response_time":1677873717734.81},{"trial":3,"action":1,"button_pressed":5,"time_out":false,"dwell_time":32.323974609375,"response_time":1677873718251.19},{"trial":3,"action":1,"button_pressed":3,"time_out":false,"dwell_time":14.864990234375,"response_time":1677873718783.43},{"trial":3,"action":9,"button_pressed":-1,"time_out":false,"dwell_time":30.915771484375,"response_time":1677873719600.32},{"trial":4,"action":1,"button_pressed":11,"time_out":false,"dwell_time":48.447021484375,"response_time":1677873736595.43},{"trial":4,"action":1,"button_pressed":8,"time_out":false,"dwell_time":47.341064453125,"response_time":1677873737144.15},{"trial":4,"action":1,"button_pressed":6,"time_out":false,"dwell_time":64.972900390625,"response_time":1677873737594.23},{"trial":4,"action":1,"button_pressed":4,"time_out":false,"dwell_time":30.60009765625,"response_time":1677873737893.75},{"trial":4,"action":1,"button_pressed":1,"time_out":false,"dwell_time":47.514892578125,"response_time":1677873738460.4},{"trial":4,"action":1,"button_pressed":10,"time_out":false,"dwell_time":31.39599609375,"response_time":1677873738976.86},{"trial":4,"action":9,"button_pressed":-1,"time_out":false,"dwell_time":65.345947265625,"response_time":1677873739627.4},{"trial":5,"action":1,"button_pressed":5,"time_out":false,"dwell_time":48.386962890625,"response_time":1677873758987.19},{"trial":5,"action":1,"button_pressed":3,"time_out":false,"dwell_time":31.523193359375,"response_time":1677873759286.89},{"trial":5,"action":1,"button_pressed":8,"time_out":false,"dwell_time":31.06494140625,"response_time":1677873760120.56},{"trial":5,"action":1,"button_pressed":11,"time_out":false,"dwell_time":31.6669921875,"response_time":1677873760570.71},{"trial":5,"action":1,"button_pressed":7,"time_out":false,"dwell_time":47.951904296875,"response_time":1677873761136.95},{"trial":5,"action":1,"button_pressed":4,"time_out":false,"dwell_time":65.1259765625,"response_time":1677873761569.57},{"trial":5,"action":1,"button_pressed":10,"time_out":false,"dwell_time":32.177001953125,"response_time":1677873761853.35},{"trial":5,"action":9,"button_pressed":-1,"time_out":false,"dwell_time":31.064208984375,"response_time":1677873763119.41},{"trial":6,"action":1,"button_pressed":8,"time_out":false,"dwell_time":80.751953125,"response_time":1677873786894.19},{"trial":6,"action":1,"button_pressed":9,"time_out":false,"dwell_time":30.278076171875,"response_time":1677873787227.6},{"trial":6,"action":1,"button_pressed":10,"time_out":false,"dwell_time":47.968017578125,"response_time":1677873787678.18},{"trial":6,"action":1,"button_pressed":2,"time_out":false,"dwell_time":80.9169921875,"response_time":1677873788110.25},{"trial":6,"action":1,"button_pressed":4,"time_out":false,"dwell_time":64.27392578125,"response_time":1677873789160.52},{"trial":6,"action":1,"button_pressed":1,"time_out":false,"dwell_time":31.343017578125,"response_time":1677873789610.83},{"trial":6,"action":1,"button_pressed":0,"time_out":false,"dwell_time":48.88720703125,"response_time":1677873790110.63},{"trial":6,"action":1,"button_pressed":5,"time_out":false,"dwell_time":65.06103515625,"response_time":1677873790476.84},{"trial":6,"action":9,"button_pressed":-1,"time_out":false,"dwell_time":49.155029296875,"response_time":1677873791627.25},{"trial":7,"action":1,"button_pressed":1,"time_out":false,"dwell_time":48.35888671875,"response_time":1677873813736.57},{"trial":7,"action":1,"button_pressed":10,"time_out":false,"dwell_time":63.260009765625,"response_time":1677873814268.38},{"trial":7,"action":1,"button_pressed":0,"time_out":false,"dwell_time":65.012939453125,"response_time":1677873815418.64},{"trial":7,"action":1,"button_pressed":2,"time_out":false,"dwell_time":48.80712890625,"response_time":1677873815752.35},{"trial":7,"action":1,"button_pressed":3,"time_out":false,"dwell_time":48.6259765625,"response_time":1677873816252.24},{"trial":7,"action":1,"button_pressed":7,"time_out":false,"dwell_time":64.24609375,"response_time":1677873816634.49},{"trial":7,"action":1,"button_pressed":6,"time_out":false,"dwell_time":46.93408203125,"response_time":1677873817001.28},{"trial":7,"action":1,"button_pressed":4,"time_out":false,"dwell_time":65.19091796875,"response_time":1677873817318.29},{"trial":7,"action":9,"button_pressed":-1,"time_out":false,"dwell_time":16.93310546875,"response_time":1677873817950.69},{"trial":8,"action":1,"button_pressed":5,"time_out":false,"dwell_time":47.446044921875,"response_time":1677873835028.86},{"trial":8,"action":1,"button_pressed":10,"time_out":false,"dwell_time":64.463134765625,"response_time":1677873835379.02},{"trial":8,"action":1,"button_pressed":7,"time_out":false,"dwell_time":48.904052734375,"response_time":1677873835762.37},{"trial":8,"action":1,"button_pressed":4,"time_out":false,"dwell_time":48.502197265625,"response_time":1677873836262.43},{"trial":8,"action":1,"button_pressed":0,"time_out":false,"dwell_time":48.123779296875,"response_time":1677873836528.21},{"trial":8,"action":1,"button_pressed":8,"time_out":false,"dwell_time":30.599853515625,"response_time":1677873836828.11},{"trial":8,"action":9,"button_pressed":-1,"time_out":false,"dwell_time":64.947021484375,"response_time":1677873837261.36},{"trial":9,"action":1,"button_pressed":2,"time_out":false,"dwell_time":81.086181640625,"response_time":1677873856671.83},{"trial":9,"action":1,"button_pressed":6,"time_out":false,"dwell_time":31.2880859375,"response_time":1677873857805.29},{"trial":9,"action":1,"button_pressed":9,"time_out":false,"dwell_time":30.966796875,"response_time":1677873858604.16},{"trial":9,"action":1,"button_pressed":0,"time_out":false,"dwell_time":48.22119140625,"response_time":1677873859020.83},{"trial":9,"action":1,"button_pressed":3,"time_out":false,"dwell_time":47.994140625,"response_time":1677873859303.99},{"trial":9,"action":1,"button_pressed":10,"time_out":false,"dwell_time":64.93505859375,"response_time":1677873859654.11},{"trial":9,"action":1,"button_pressed":7,"time_out":false,"dwell_time":30.73095703125,"response_time":1677873860103.88},{"trial":9,"action":9,"button_pressed":-1,"time_out":false,"dwell_time":48.544921875,"response_time":1677873860703.91},{"trial":10,"action":1,"button_pressed":10,"time_out":false,"dwell_time":30.81396484375,"response_time":1677873882746.5},{"trial":10,"action":1,"button_pressed":2,"time_out":false,"dwell_time":48.136962890625,"response_time":1677873883096.14},{"trial":10,"action":1,"button_pressed":1,"time_out":false,"dwell_time":48.791015625,"response_time":1677873883696.75},{"trial":10,"action":1,"button_pressed":9,"time_out":false,"dwell_time":48.47802734375,"response_time":1677873884596.25},{"trial":10,"action":1,"button_pressed":11,"time_out":false,"dwell_time":47.5849609375,"response_time":1677873884912.83},{"trial":10,"action":1,"button_pressed":8,"time_out":false,"dwell_time":47.323974609375,"response_time":1677873885462.17},{"trial":10,"action":1,"button_pressed":4,"time_out":false,"dwell_time":64.285888671875,"response_time":1677873885779.03},{"trial":10,"action":1,"button_pressed":5,"time_out":false,"dwell_time":14.282958984375,"response_time":1677873886094.7},{"trial":10,"action":9,"button_pressed":-1,"time_out":false,"dwell_time":14.370849609375,"response_time":1677873886578.88},{"trial":11,"action":1,"button_pressed":3,"time_out":false,"dwell_time":47.367919921875,"response_time":1677873908754.59},{"trial":11,"action":1,"button_pressed":1,"time_out":false,"dwell_time":64.52001953125,"response_time":1677873909103.95},{"trial":11,"action":1,"button_pressed":8,"time_out":false,"dwell_time":64.315185546875,"response_time":1677873909704.4},{"trial":11,"action":1,"button_pressed":5,"time_out":false,"dwell_time":64.318115234375,"response_time":1677873909970.9},{"trial":11,"action":1,"button_pressed":7,"time_out":false,"dwell_time":48.0419921875,"response_time":1677873910587.15},{"trial":11,"action":1,"button_pressed":0,"time_out":false,"dwell_time":64.243896484375,"response_time":1677873911070.53},{"trial":11,"action":1,"button_pressed":9,"time_out":false,"dwell_time":47.928955078125,"response_time":1677873911420.87},{"trial":11,"action":1,"button_pressed":10,"time_out":false,"dwell_time":64.156982421875,"response_time":1677873911719.74},{"trial":11,"action":9,"button_pressed":-1,"time_out":false,"dwell_time":49.375,"response_time":1677873912287.72},{"trial":12,"action":1,"button_pressed":2,"time_out":false,"dwell_time":63.7568359375,"response_time":1677873936694.93},{"trial":12,"action":1,"button_pressed":5,"time_out":false,"dwell_time":48.730224609375,"response_time":1677873937262.3},{"trial":12,"action":1,"button_pressed":9,"time_out":false,"dwell_time":48,"response_time":1677873938261.27},{"trial":12,"action":1,"button_pressed":7,"time_out":false,"dwell_time":64.838134765625,"response_time":1677873938744.86},{"trial":12,"action":1,"button_pressed":3,"time_out":false,"dwell_time":64.91796875,"response_time":1677873939177.91},{"trial":12,"action":1,"button_pressed":11,"time_out":false,"dwell_time":31.134033203125,"response_time":1677873940461.17},{"trial":12,"action":1,"button_pressed":4,"time_out":false,"dwell_time":48.30712890625,"response_time":1677873940860.48},{"trial":12,"action":1,"button_pressed":8,"time_out":false,"dwell_time":48.4501953125,"response_time":1677873941177.78},{"trial":12,"action":1,"button_pressed":0,"time_out":false,"dwell_time":64.300048828125,"response_time":1677873941743.09},{"trial":12,"action":9,"button_pressed":-1,"time_out":false,"dwell_time":48.43701171875,"response_time":1677873942177.8},{"trial":13,"action":1,"button_pressed":11,"time_out":false,"dwell_time":65.360107421875,"response_time":1677873969451.56},{"trial":13,"action":1,"button_pressed":3,"time_out":false,"dwell_time":81.863037109375,"response_time":1677873970151.16},{"trial":13,"action":1,"button_pressed":4,"time_out":false,"dwell_time":49.10302734375,"response_time":1677873970418.49},{"trial":13,"action":1,"button_pressed":5,"time_out":false,"dwell_time":31.660888671875,"response_time":1677873970768.08},{"trial":13,"action":1,"button_pressed":1,"time_out":false,"dwell_time":65.154052734375,"response_time":1677873971400.86},{"trial":13,"action":1,"button_pressed":7,"time_out":false,"dwell_time":63.4951171875,"response_time":1677873971666.52},{"trial":13,"action":1,"button_pressed":9,"time_out":false,"dwell_time":48.510009765625,"response_time":1677873972100.73},{"trial":13,"action":1,"button_pressed":0,"time_out":false,"dwell_time":64.257080078125,"response_time":1677873973066.09},{"trial":13,"action":1,"button_pressed":2,"time_out":false,"dwell_time":48.027099609375,"response_time":1677873973950.31},{"trial":13,"action":1,"button_pressed":8,"time_out":false,"dwell_time":30.4951171875,"response_time":1677873974182.86},{"trial":13,"action":9,"button_pressed":-1,"time_out":false,"dwell_time":82.318115234375,"response_time":1677873974766.79},{"trial":14,"action":1,"button_pressed":9,"time_out":false,"dwell_time":47.968994140625,"response_time":1677874001924.37},{"trial":14,"action":1,"button_pressed":8,"time_out":false,"dwell_time":47.718994140625,"response_time":1677874002407.43},{"trial":14,"action":1,"button_pressed":5,"time_out":false,"dwell_time":64.927001953125,"response_time":1677874002640.42},{"trial":14,"action":1,"button_pressed":6,"time_out":false,"dwell_time":30.8330078125,"response_time":1677874003056.9},{"trial":14,"action":1,"button_pressed":1,"time_out":false,"dwell_time":97.010986328125,"response_time":1677874004622.34},{"trial":14,"action":1,"button_pressed":11,"time_out":false,"dwell_time":48.18310546875,"response_time":1677874005239.29},{"trial":14,"action":1,"button_pressed":10,"time_out":false,"dwell_time":48.6669921875,"response_time":1677874005756.38},{"trial":14,"action":1,"button_pressed":0,"time_out":false,"dwell_time":64.20703125,"response_time":1677874006422.39},{"trial":14,"action":9,"button_pressed":-1,"time_out":false,"dwell_time":31.9951171875,"response_time":1677874006706.78}]}