{"meta_data":{"additional_headers":{},"game_name":"Recollect","version":"2.53.01","user_name":"43","organization":"braingamecenter","study":"mpl2_2022_11","session_number":0,"device_id":"74342D95-EE82-45E3-8ADF-48FB3203C5DD"},"data":[{"trial":0,"action":1,"button_pressed":8,"time_out":false,"dwell_time":81.68603515625,"response_time":1677880618571.98},{"trial":0,"action":1,"button_pressed":0,"time_out":false,"dwell_time":65.302001953125,"response_time":1677880618871.85},{"trial":0,"action":9,"button_pressed":-1,"time_out":false,"dwell_time":140.547119140625,"response_time":1677880619797.83},{"trial":1,"action":1,"button_pressed":3,"time_out":false,"dwell_time":63.860107421875,"response_time":1677880629551},{"trial":1,"action":1,"button_pressed":9,"time_out":false,"dwell_time":81.823974609375,"response_time":1677880629835.01},{"trial":1,"action":1,"button_pressed":7,"time_out":false,"dwell_time":48.041015625,"response_time":1677880630001.86},{"trial":1,"action":9,"button_pressed":-1,"time_out":false,"dwell_time":97.443115234375,"response_time":1677880630867.68},{"trial":2,"action":1,"button_pressed":4,"time_out":false,"dwell_time":48.282958984375,"response_time":1677880642547.81},{"trial":2,"action":1,"button_pressed":2,"time_out":false,"dwell_time":65.238037109375,"response_time":1677880642830.5},{"trial":2,"action":1,"button_pressed":7,"time_out":false,"dwell_time":81.0009765625,"response_time":1677880643063.14},{"trial":2,"action":1,"button_pressed":3,"time_out":false,"dwell_time":64.1630859375,"response_time":1677880643779.49},{"trial":2,"action":9,"button_pressed":-1,"time_out":false,"dwell_time":97.5,"response_time":1677880644229.87},{"trial":3,"action":1,"button_pressed":9,"time_out":false,"dwell_time":48.10400390625,"response_time":1677880659008.97},{"trial":3,"action":1,"button_pressed":0,"time_out":false,"dwell_time":48.198974609375,"response_time":1677880659341.5},{"trial":3,"action":1,"button_pressed":2,"time_out":false,"dwell_time":115.241943359375,"response_time":1677880659691.72},{"trial":3,"action":1,"button_pressed":1,"time_out":false,"dwell_time":115.1630859375,"response_time":1677880660058.15},{"trial":3,"action":1,"button_pressed":6,"time_out":false,"dwell_time":47.19384765625,"response_time":1677880660241.18},{"trial":3,"action":9,"button_pressed":-1,"time_out":false,"dwell_time":147.178955078125,"response_time":1677880661040.99},{"trial":4,"action":1,"button_pressed":3,"time_out":false,"dwell_time":63.626953125,"response_time":1677880677868.36},{"trial":4,"action":1,"button_pressed":7,"time_out":false,"dwell_time":64.37109375,"response_time":1677880678185.53},{"trial":4,"action":1,"button_pressed":4,"time_out":false,"dwell_time":65.257080078125,"response_time":1677880678385.38},{"trial":4,"action":1,"button_pressed":10,"time_out":false,"dwell_time":48.06103515625,"response_time":1677880678668.37},{"trial":4,"action":1,"button_pressed":2,"time_out":false,"dwell_time":47.72607421875,"response_time":1677880678985.13},{"trial":4,"action":1,"button_pressed":9,"time_out":false,"dwell_time":64.18798828125,"response_time":1677880679301.72},{"trial":4,"action":9,"button_pressed":-1,"time_out":false,"dwell_time":80.75,"response_time":1677880680001.35},{"trial":5,"action":1,"button_pressed":11,"time_out":false,"dwell_time":81.125,"response_time":1677880699445.32},{"trial":5,"action":1,"button_pressed":3,"time_out":false,"dwell_time":63.69580078125,"response_time":1677880700344.03},{"trial":5,"action":1,"button_pressed":4,"time_out":false,"dwell_time":131.10302734375,"response_time":1677880700744.68},{"trial":5,"action":1,"button_pressed":10,"time_out":false,"dwell_time":80.236083984375,"response_time":1677880702560.04},{"trial":5,"action":1,"button_pressed":2,"time_out":false,"dwell_time":80.4599609375,"response_time":1677880703125.84},{"trial":5,"action":1,"button_pressed":8,"time_out":false,"dwell_time":64.303955078125,"response_time":1677880703476.36},{"trial":5,"action":1,"button_pressed":1,"time_out":false,"dwell_time":97.722900390625,"response_time":1677880703993.63},{"trial":5,"action":9,"button_pressed":-1,"time_out":false,"dwell_time":81.037841796875,"response_time":1677880706959.24},{"trial":6,"action":1,"button_pressed":10,"time_out":false,"dwell_time":64.31689453125,"response_time":1677880727152.7},{"trial":6,"action":1,"button_pressed":1,"time_out":false,"dwell_time":64.364990234375,"response_time":1677880727718.99},{"trial":6,"action":1,"button_pressed":2,"time_out":false,"dwell_time":81.152099609375,"response_time":1677880728119.01},{"trial":6,"action":1,"button_pressed":7,"time_out":false,"dwell_time":114.97314453125,"response_time":1677880728602.08},{"trial":6,"action":1,"button_pressed":6,"time_out":false,"dwell_time":64.010986328125,"response_time":1677880728951.86},{"trial":6,"action":1,"button_pressed":0,"time_out":false,"dwell_time":97.8779296875,"response_time":1677880729417.87},{"trial":6,"action":1,"button_pressed":4,"time_out":false,"dwell_time":63.6630859375,"response_time":1677880729917.65},{"trial":6,"action":1,"button_pressed":8,"time_out":false,"dwell_time":64.201171875,"response_time":1677880736582.73},{"trial":6,"action":1,"button_pressed":8,"time_out":false,"dwell_time":81.7041015625,"response_time":1677880739948.36},{"trial":6,"action":9,"button_pressed":-1,"time_out":false,"dwell_time":80.654052734375,"response_time":1677880741664.37},{"trial":7,"action":1,"button_pressed":1,"time_out":false,"dwell_time":30.860107421875,"response_time":1677880756292.89},{"trial":7,"action":1,"button_pressed":11,"time_out":false,"dwell_time":64.955078125,"response_time":1677880756626.17},{"trial":7,"action":1,"button_pressed":7,"time_out":false,"dwell_time":65.094970703125,"response_time":1677880756926.45},{"trial":7,"action":1,"button_pressed":4,"time_out":false,"dwell_time":115.076904296875,"response_time":1677880757992.52},{"trial":7,"action":0,"button_pressed":-1,"time_out":false,"dwell_time":16.629150390625,"response_time":1677880761123.82},{"trial":7,"action":1,"button_pressed":1,"time_out":false,"dwell_time":80.15087890625,"response_time":1677880762190.4},{"trial":7,"action":1,"button_pressed":11,"time_out":false,"dwell_time":47.929931640625,"response_time":1677880762657.96},{"trial":7,"action":1,"button_pressed":7,"time_out":false,"dwell_time":64.6279296875,"response_time":1677880763274.37},{"trial":7,"action":0,"button_pressed":-1,"time_out":false,"dwell_time":81.68310546875,"response_time":1677880764673.69},{"trial":7,"action":1,"button_pressed":1,"time_out":false,"dwell_time":114.587158203125,"response_time":1677880765289.7},{"trial":7,"action":1,"button_pressed":11,"time_out":false,"dwell_time":81.590087890625,"response_time":1677880765823.26},{"trial":7,"action":1,"button_pressed":9,"time_out":false,"dwell_time":80.261962890625,"response_time":1677880766305.82},{"trial":7,"action":1,"button_pressed":7,"time_out":false,"dwell_time":97.4169921875,"response_time":1677880766872.74},{"trial":7,"action":1,"button_pressed":4,"time_out":false,"dwell_time":97.081787109375,"response_time":1677880767871.97},{"trial":7,"action":9,"button_pressed":-1,"time_out":false,"dwell_time":131.297119140625,"response_time":1677880771838.27},{"trial":8,"action":1,"button_pressed":5,"time_out":false,"dwell_time":47.60205078125,"response_time":1677880785999.61},{"trial":8,"action":1,"button_pressed":9,"time_out":false,"dwell_time":47.2529296875,"response_time":1677880786582.64},{"trial":8,"action":1,"button_pressed":6,"time_out":false,"dwell_time":63.9921875,"response_time":1677880786832.74},{"trial":8,"action":1,"button_pressed":8,"time_out":false,"dwell_time":63.29296875,"response_time":1677880787132.03},{"trial":8,"action":1,"button_pressed":7,"time_out":false,"dwell_time":81.8798828125,"response_time":1677880787416.2},{"trial":8,"action":9,"button_pressed":-1,"time_out":false,"dwell_time":114.982177734375,"response_time":1677880788115.74},{"trial":9,"action":1,"button_pressed":11,"time_out":false,"dwell_time":63.39501953125,"response_time":1677880805276.23},{"trial":9,"action":1,"button_pressed":8,"time_out":false,"dwell_time":79.970947265625,"response_time":1677880805692.49},{"trial":9,"action":1,"button_pressed":6,"time_out":false,"dwell_time":63.833984375,"response_time":1677880806109.49},{"trial":9,"action":1,"button_pressed":4,"time_out":false,"dwell_time":63.60693359375,"response_time":1677880806442.32},{"trial":9,"action":1,"button_pressed":1,"time_out":false,"dwell_time":64.156982421875,"response_time":1677880806792.21},{"trial":9,"action":1,"button_pressed":10,"time_out":false,"dwell_time":63.506103515625,"response_time":1677880807242.12},{"trial":9,"action":9,"button_pressed":-1,"time_out":false,"dwell_time":98.77392578125,"response_time":1677880807893.01},{"trial":10,"action":1,"button_pressed":9,"time_out":false,"dwell_time":97.791015625,"response_time":1677880827602.91},{"trial":10,"action":1,"button_pressed":7,"time_out":false,"dwell_time":115.304931640625,"response_time":1677880827952.83},{"trial":10,"action":1,"button_pressed":4,"time_out":false,"dwell_time":97.901123046875,"response_time":1677880828401.97},{"trial":10,"action":1,"button_pressed":1,"time_out":false,"dwell_time":80.625,"response_time":1677880828801.89},{"trial":10,"action":1,"button_pressed":6,"time_out":false,"dwell_time":80.011962890625,"response_time":1677880829134.89},{"trial":10,"action":1,"button_pressed":11,"time_out":false,"dwell_time":64.220947265625,"response_time":1677880829485.42},{"trial":10,"action":1,"button_pressed":8,"time_out":false,"dwell_time":64.737060546875,"response_time":1677880830201.72},{"trial":10,"action":1,"button_pressed":6,"time_out":false,"dwell_time":64.152099609375,"response_time":1677880832367.1},{"trial":10,"action":1,"button_pressed":11,"time_out":false,"dwell_time":48.804931640625,"response_time":1677880832718.23},{"trial":10,"action":0,"button_pressed":-1,"time_out":false,"dwell_time":31.513916015625,"response_time":1677880833467.88},{"trial":10,"action":1,"button_pressed":9,"time_out":false,"dwell_time":97.397216796875,"response_time":1677880834499.61},{"trial":10,"action":1,"button_pressed":7,"time_out":false,"dwell_time":98.47509765625,"response_time":1677880836000.08},{"trial":10,"action":1,"button_pressed":4,"time_out":false,"dwell_time":80.302001953125,"response_time":1677880836482.43},{"trial":10,"action":1,"button_pressed":1,"time_out":false,"dwell_time":64.136962890625,"response_time":1677880836866.12},{"trial":10,"action":1,"button_pressed":11,"time_out":false,"dwell_time":81.68994140625,"response_time":1677880837416.35},{"trial":10,"action":1,"button_pressed":6,"time_out":false,"dwell_time":64.10400390625,"response_time":1677880837815.99},{"trial":10,"action":1,"button_pressed":8,"time_out":false,"dwell_time":80.847900390625,"response_time":1677880838265.93},{"trial":10,"action":9,"button_pressed":-1,"time_out":false,"dwell_time":131.635009765625,"response_time":1677880839249.01},{"trial":11,"action":1,"button_pressed":8,"time_out":false,"dwell_time":47.427001953125,"response_time":1677880861141.68},{"trial":11,"action":1,"button_pressed":9,"time_out":false,"dwell_time":63.570068359375,"response_time":1677880861524.67},{"trial":11,"action":1,"button_pressed":10,"time_out":false,"dwell_time":64.7900390625,"response_time":1677880861824.58},{"trial":11,"action":0,"button_pressed":-1,"time_out":false,"dwell_time":64.51611328125,"response_time":1677880863107.26},{"trial":11,"action":1,"button_pressed":8,"time_out":false,"dwell_time":98.130859375,"response_time":1677880863674.09},{"trial":11,"action":1,"button_pressed":9,"time_out":false,"dwell_time":64.39794921875,"response_time":1677880863974.21},{"trial":11,"action":1,"button_pressed":2,"time_out":false,"dwell_time":97.0380859375,"response_time":1677880864356.55},{"trial":11,"action":1,"button_pressed":10,"time_out":false,"dwell_time":65.0009765625,"response_time":1677880864707.2},{"trial":11,"action":1,"button_pressed":1,"time_out":false,"dwell_time":65.280029296875,"response_time":1677880865157.08},{"trial":11,"action":1,"button_pressed":4,"time_out":false,"dwell_time":114.962158203125,"response_time":1677880865690.1},{"trial":11,"action":1,"button_pressed":5,"time_out":false,"dwell_time":98.50390625,"response_time":1677880865990.02},{"trial":11,"action":9,"button_pressed":-1,"time_out":false,"dwell_time":99.8310546875,"response_time":1677880866474.72},{"trial":12,"action":1,"button_pressed":4,"time_out":false,"dwell_time":64.198974609375,"response_time":1677880888482.53},{"trial":12,"action":1,"button_pressed":7,"time_out":false,"dwell_time":64.172119140625,"response_time":1677880889165.64},{"trial":12,"action":1,"button_pressed":2,"time_out":false,"dwell_time":97.678955078125,"response_time":1677880889698.19},{"trial":12,"action":1,"button_pressed":3,"time_out":false,"dwell_time":65.29296875,"response_time":1677880890498.58},{"trial":12,"action":1,"button_pressed":1,"time_out":false,"dwell_time":47.529052734375,"response_time":1677880890764.87},{"trial":12,"action":1,"button_pressed":9,"time_out":false,"dwell_time":64.93408203125,"response_time":1677880891081.53},{"trial":12,"action":1,"button_pressed":11,"time_out":false,"dwell_time":81.52197265625,"response_time":1677880892231.21},{"trial":12,"action":0,"button_pressed":-1,"time_out":false,"dwell_time":65.157958984375,"response_time":1677880892931.32},{"trial":12,"action":1,"button_pressed":4,"time_out":false,"dwell_time":65.01220703125,"response_time":1677880893647.51},{"trial":12,"action":1,"button_pressed":11,"time_out":false,"dwell_time":81.197021484375,"response_time":1677880894013.53},{"trial":12,"action":1,"button_pressed":7,"time_out":false,"dwell_time":64.23193359375,"response_time":1677880894297.31},{"trial":12,"action":1,"button_pressed":0,"time_out":false,"dwell_time":98.18896484375,"response_time":1677880895030.39},{"trial":12,"action":1,"button_pressed":2,"time_out":false,"dwell_time":63.58203125,"response_time":1677880895512.88},{"trial":12,"action":1,"button_pressed":1,"time_out":false,"dwell_time":48.212890625,"response_time":1677880895979.83},{"trial":12,"action":1,"button_pressed":9,"time_out":false,"dwell_time":64.195068359375,"response_time":1677880896512.41},{"trial":12,"action":9,"button_pressed":-1,"time_out":false,"dwell_time":81.644775390625,"response_time":1677880897430.21}]}