{"meta_data":{"additional_headers":{},"game_name":"Recollect","version":"2.53.01","user_name":"44","organization":"braingamecenter","study":"mpl2_2022_11","session_number":0,"device_id":"74342D95-EE82-45E3-8ADF-48FB3203C5DD"},"data":[{"trial":0,"action":1,"button_pressed":1,"time_out":false,"dwell_time":65.300048828125,"response_time":1678123454013.8},{"trial":0,"action":1,"button_pressed":5,"time_out":false,"dwell_time":48.9609375,"response_time":1678123454297.41},{"trial":0,"action":9,"button_pressed":-1,"time_out":false,"dwell_time":76.68505859375,"response_time":1678123455058.26},{"trial":1,"action":1,"button_pressed":7,"time_out":false,"dwell_time":81.093994140625,"response_time":1678123464593.09},{"trial":1,"action":1,"button_pressed":3,"time_out":false,"dwell_time":97.488037109375,"response_time":1678123465193.55},{"trial":1,"action":1,"button_pressed":2,"time_out":false,"dwell_time":64.47998046875,"response_time":1678123465526.67},{"trial":1,"action":9,"button_pressed":-1,"time_out":false,"dwell_time":82.320068359375,"response_time":1678123466810.04},{"trial":2,"action":1,"button_pressed":6,"time_out":false,"dwell_time":81.93408203125,"response_time":1678123478939.26},{"trial":2,"action":1,"button_pressed":8,"time_out":false,"dwell_time":64.833984375,"response_time":1678123479305.46},{"trial":2,"action":1,"button_pressed":11,"time_out":false,"dwell_time":64.47509765625,"response_time":1678123479788.84},{"trial":2,"action":1,"button_pressed":7,"time_out":false,"dwell_time":114.43505859375,"response_time":1678123480354.54},{"trial":2,"action":9,"button_pressed":-1,"time_out":false,"dwell_time":31.487060546875,"response_time":1678123481455.34},{"trial":3,"action":1,"button_pressed":5,"time_out":false,"dwell_time":30.923095703125,"response_time":1678123495916.66},{"trial":3,"action":1,"button_pressed":9,"time_out":false,"dwell_time":47.97998046875,"response_time":1678123496517.04},{"trial":3,"action":1,"button_pressed":6,"time_out":false,"dwell_time":13.76806640625,"response_time":1678123496866.08},{"trial":3,"action":1,"button_pressed":8,"time_out":false,"dwell_time":48.02392578125,"response_time":1678123497299.44},{"trial":3,"action":1,"button_pressed":7,"time_out":false,"dwell_time":31.4931640625,"response_time":1678123497849.28},{"trial":3,"action":9,"button_pressed":-1,"time_out":false,"dwell_time":80.9130859375,"response_time":1678123498498.53},{"trial":4,"action":1,"button_pressed":10,"time_out":false,"dwell_time":14.924072265625,"response_time":1678123515227.81},{"trial":4,"action":1,"button_pressed":2,"time_out":false,"dwell_time":15.751953125,"response_time":1678123515776.24},{"trial":4,"action":1,"button_pressed":9,"time_out":false,"dwell_time":47.989013671875,"response_time":1678123516226.61},{"trial":4,"action":1,"button_pressed":5,"time_out":false,"dwell_time":30.838134765625,"response_time":1678123516693.18},{"trial":4,"action":1,"button_pressed":11,"time_out":false,"dwell_time":31.25,"response_time":1678123517327.06},{"trial":4,"action":1,"button_pressed":0,"time_out":false,"dwell_time":48.199951171875,"response_time":1678123517926.83},{"trial":4,"action":9,"button_pressed":-1,"time_out":false,"dwell_time":31.070068359375,"response_time":1678123518709.58},{"trial":5,"action":1,"button_pressed":8,"time_out":false,"dwell_time":64.35400390625,"response_time":1678123538102.72},{"trial":5,"action":1,"button_pressed":5,"time_out":false,"dwell_time":47.553955078125,"response_time":1678123538452.9},{"trial":5,"action":1,"button_pressed":1,"time_out":false,"dwell_time":47.991943359375,"response_time":1678123538986.55},{"trial":5,"action":1,"button_pressed":6,"time_out":false,"dwell_time":30.5390625,"response_time":1678123539335.91},{"trial":5,"action":1,"button_pressed":3,"time_out":false,"dwell_time":32.076904296875,"response_time":1678123540003.05},{"trial":5,"action":1,"button_pressed":0,"time_out":false,"dwell_time":48.859130859375,"response_time":1678123540402.89},{"trial":5,"action":1,"button_pressed":11,"time_out":false,"dwell_time":30.2919921875,"response_time":1678123540985.22},{"trial":5,"action":9,"button_pressed":-1,"time_out":false,"dwell_time":64.680908203125,"response_time":1678123541919.13},{"trial":6,"action":1,"button_pressed":5,"time_out":false,"dwell_time":30.6259765625,"response_time":1678123561162.2},{"trial":6,"action":1,"button_pressed":3,"time_out":false,"dwell_time":30.7900390625,"response_time":1678123561645.26},{"trial":6,"action":1,"button_pressed":8,"time_out":false,"dwell_time":47.260009765625,"response_time":1678123562611.61},{"trial":6,"action":1,"button_pressed":9,"time_out":false,"dwell_time":48.16015625,"response_time":1678123563112.15},{"trial":6,"action":1,"button_pressed":11,"time_out":false,"dwell_time":47.371826171875,"response_time":1678123563494.67},{"trial":6,"action":1,"button_pressed":7,"time_out":false,"dwell_time":48.06103515625,"response_time":1678123563911.95},{"trial":6,"action":1,"button_pressed":10,"time_out":false,"dwell_time":47.9541015625,"response_time":1678123566177.9},{"trial":6,"action":9,"button_pressed":-1,"time_out":false,"dwell_time":114.93603515625,"response_time":1678123568026.68},{"trial":7,"action":1,"button_pressed":1,"time_out":false,"dwell_time":47.569091796875,"response_time":1678123583021.97},{"trial":7,"action":1,"button_pressed":0,"time_out":false,"dwell_time":47.676025390625,"response_time":1678123583454.9},{"trial":7,"action":1,"button_pressed":10,"time_out":false,"dwell_time":64.8779296875,"response_time":1678123583855.12},{"trial":7,"action":1,"button_pressed":9,"time_out":false,"dwell_time":48.358154296875,"response_time":1678123584254.72},{"trial":7,"action":1,"button_pressed":5,"time_out":false,"dwell_time":30.719970703125,"response_time":1678123584804.61},{"trial":7,"action":9,"button_pressed":-1,"time_out":false,"dwell_time":48.990966796875,"response_time":1678123585905.29},{"trial":8,"action":1,"button_pressed":10,"time_out":false,"dwell_time":31.369140625,"response_time":1678123600782.82},{"trial":8,"action":1,"button_pressed":5,"time_out":false,"dwell_time":48.6650390625,"response_time":1678123601149.94},{"trial":8,"action":1,"button_pressed":3,"time_out":false,"dwell_time":47.450927734375,"response_time":1678123601582.45},{"trial":8,"action":1,"button_pressed":6,"time_out":false,"dwell_time":47.3720703125,"response_time":1678123601799.08},{"trial":8,"action":1,"button_pressed":2,"time_out":false,"dwell_time":49.02783203125,"response_time":1678123602266.43},{"trial":8,"action":9,"button_pressed":-1,"time_out":false,"dwell_time":31.9599609375,"response_time":1678123602783.08},{"trial":9,"action":1,"button_pressed":0,"time_out":false,"dwell_time":64.4521484375,"response_time":1678123620210.02},{"trial":9,"action":1,"button_pressed":4,"time_out":false,"dwell_time":48.114990234375,"response_time":1678123620526.28},{"trial":9,"action":1,"button_pressed":11,"time_out":false,"dwell_time":47.948974609375,"response_time":1678123621009.46},{"trial":9,"action":1,"button_pressed":6,"time_out":false,"dwell_time":47.6279296875,"response_time":1678123621310.01},{"trial":9,"action":1,"button_pressed":5,"time_out":false,"dwell_time":30.803955078125,"response_time":1678123621842.66},{"trial":9,"action":1,"button_pressed":7,"time_out":false,"dwell_time":31.296875,"response_time":1678123622475.67},{"trial":9,"action":9,"button_pressed":-1,"time_out":false,"dwell_time":47.91015625,"response_time":1678123623892.43},{"trial":10,"action":1,"button_pressed":3,"time_out":false,"dwell_time":64.625,"response_time":1678123640986.04},{"trial":10,"action":1,"button_pressed":7,"time_out":false,"dwell_time":47.95703125,"response_time":1678123641386.36},{"trial":10,"action":1,"button_pressed":4,"time_out":false,"dwell_time":47.218017578125,"response_time":1678123641836.12},{"trial":10,"action":1,"button_pressed":6,"time_out":false,"dwell_time":47.77001953125,"response_time":1678123642236.61},{"trial":10,"action":1,"button_pressed":10,"time_out":false,"dwell_time":48.208984375,"response_time":1678123642635.75},{"trial":10,"action":1,"button_pressed":2,"time_out":false,"dwell_time":30.7080078125,"response_time":1678123643085.65},{"trial":10,"action":1,"button_pressed":9,"time_out":false,"dwell_time":47.653076171875,"response_time":1678123643452.27},{"trial":10,"action":9,"button_pressed":-1,"time_out":false,"dwell_time":17.006103515625,"response_time":1678123644234.97}]}