{"meta_data":{"additional_headers":{},"game_name":"Recollect","version":"2.53.01","user_name":"45","organization":"braingamecenter","study":"mpl2_2022_11","session_number":0,"device_id":"74342D95-EE82-45E3-8ADF-48FB3203C5DD"},"data":[{"trial":0,"action":1,"button_pressed":2,"time_out":false,"dwell_time":97.227783203125,"response_time":1678212224037.32},{"trial":0,"action":1,"button_pressed":9,"time_out":false,"dwell_time":64.135986328125,"response_time":1678212224587.76},{"trial":0,"action":9,"button_pressed":-1,"time_out":false,"dwell_time":125.4609375,"response_time":1678212225781.85},{"trial":1,"action":1,"button_pressed":7,"time_out":false,"dwell_time":97.72802734375,"response_time":1678212235084.47},{"trial":1,"action":1,"button_pressed":3,"time_out":false,"dwell_time":81.702880859375,"response_time":1678212235717.44},{"trial":1,"action":1,"button_pressed":2,"time_out":false,"dwell_time":64.43115234375,"response_time":1678212236266.49},{"trial":1,"action":9,"button_pressed":-1,"time_out":false,"dwell_time":65.06787109375,"response_time":1678212236766.87},{"trial":2,"action":1,"button_pressed":6,"time_out":false,"dwell_time":64.284912109375,"response_time":1678212248813.17},{"trial":2,"action":1,"button_pressed":8,"time_out":false,"dwell_time":81.101806640625,"response_time":1678212249363.08},{"trial":2,"action":1,"button_pressed":11,"time_out":false,"dwell_time":81.0048828125,"response_time":1678212250179.31},{"trial":2,"action":1,"button_pressed":7,"time_out":false,"dwell_time":48.06982421875,"response_time":1678212250529.62},{"trial":2,"action":9,"button_pressed":-1,"time_out":false,"dwell_time":16.72900390625,"response_time":1678212251278.43},{"trial":3,"action":1,"button_pressed":10,"time_out":false,"dwell_time":64.1298828125,"response_time":1678212265857.6},{"trial":3,"action":1,"button_pressed":4,"time_out":false,"dwell_time":48.076904296875,"response_time":1678212266257.02},{"trial":3,"action":1,"button_pressed":1,"time_out":false,"dwell_time":64.403076171875,"response_time":1678212266873.85},{"trial":3,"action":9,"button_pressed":-1,"time_out":false,"dwell_time":64.775146484375,"response_time":1678212267473.44},{"trial":4,"action":1,"button_pressed":1,"time_out":false,"dwell_time":48.248046875,"response_time":1678212281752.24},{"trial":4,"action":1,"button_pressed":10,"time_out":false,"dwell_time":65.157958984375,"response_time":1678212282302.41},{"trial":4,"action":1,"button_pressed":0,"time_out":false,"dwell_time":47.373046875,"response_time":1678212282768.54},{"trial":4,"action":1,"button_pressed":9,"time_out":false,"dwell_time":81.68310546875,"response_time":1678212283168.45},{"trial":4,"action":1,"button_pressed":5,"time_out":false,"dwell_time":64.544921875,"response_time":1678212283768.3},{"trial":4,"action":9,"button_pressed":-1,"time_out":false,"dwell_time":98.43115234375,"response_time":1678212284751.75},{"trial":5,"action":1,"button_pressed":1,"time_out":false,"dwell_time":81.203125,"response_time":1678212301762.78},{"trial":5,"action":1,"button_pressed":9,"time_out":false,"dwell_time":131.914794921875,"response_time":1678212302095.98},{"trial":5,"action":1,"button_pressed":6,"time_out":false,"dwell_time":114.151123046875,"response_time":1678212302511.56},{"trial":5,"action":1,"button_pressed":5,"time_out":false,"dwell_time":97.761962890625,"response_time":1678212302929.08},{"trial":5,"action":1,"button_pressed":7,"time_out":false,"dwell_time":63.510009765625,"response_time":1678212303510.7},{"trial":5,"action":1,"button_pressed":2,"time_out":false,"dwell_time":31.48095703125,"response_time":1678212304112.44},{"trial":5,"action":9,"button_pressed":-1,"time_out":false,"dwell_time":98.788818359375,"response_time":1678212304845.31},{"trial":6,"action":1,"button_pressed":0,"time_out":false,"dwell_time":114.22119140625,"response_time":1678212322222.67},{"trial":6,"action":1,"button_pressed":4,"time_out":false,"dwell_time":97.547119140625,"response_time":1678212322589.02},{"trial":6,"action":1,"button_pressed":10,"time_out":false,"dwell_time":47.375,"response_time":1678212322938.74},{"trial":6,"action":1,"button_pressed":2,"time_out":false,"dwell_time":81.740966796875,"response_time":1678212323422.33},{"trial":6,"action":1,"button_pressed":9,"time_out":false,"dwell_time":47.296875,"response_time":1678212323855.19},{"trial":6,"action":9,"button_pressed":-1,"time_out":false,"dwell_time":17.888916015625,"response_time":1678212324638.92},{"trial":7,"action":1,"button_pressed":3,"time_out":false,"dwell_time":97.947998046875,"response_time":1678212337150.56},{"trial":7,"action":1,"button_pressed":5,"time_out":false,"dwell_time":81.069091796875,"response_time":1678212337316.86},{"trial":7,"action":1,"button_pressed":9,"time_out":false,"dwell_time":63.9931640625,"response_time":1678212338199.61},{"trial":7,"action":1,"button_pressed":2,"time_out":false,"dwell_time":48.321044921875,"response_time":1678212338667},{"trial":7,"action":9,"button_pressed":-1,"time_out":false,"dwell_time":65.214111328125,"response_time":1678212339184.12},{"trial":8,"action":1,"button_pressed":6,"time_out":false,"dwell_time":64.5009765625,"response_time":1678212354278.35},{"trial":8,"action":1,"button_pressed":2,"time_out":false,"dwell_time":31.010986328125,"response_time":1678212354878.54},{"trial":8,"action":1,"button_pressed":7,"time_out":false,"dwell_time":64.81787109375,"response_time":1678212355578.31},{"trial":8,"action":1,"button_pressed":8,"time_out":false,"dwell_time":47.368896484375,"response_time":1678212356094.67},{"trial":8,"action":9,"button_pressed":-1,"time_out":false,"dwell_time":66.739013671875,"response_time":1678212356829.58},{"trial":9,"action":1,"button_pressed":2,"time_out":false,"dwell_time":80.669189453125,"response_time":1678212372372.6},{"trial":9,"action":1,"button_pressed":1,"time_out":false,"dwell_time":115.137939453125,"response_time":1678212372706.09},{"trial":9,"action":1,"button_pressed":6,"time_out":false,"dwell_time":81.435791015625,"response_time":1678212373006.05},{"trial":9,"action":9,"button_pressed":-1,"time_out":false,"dwell_time":81.384033203125,"response_time":1678212373489.46}]}