{"meta_data":{"additional_headers":{},"game_name":"Recollect","version":"2.53.01","user_name":"47","organization":"braingamecenter","study":"mpl2_2022_11","session_number":0,"device_id":"74342D95-EE82-45E3-8ADF-48FB3203C5DD"},"data":[{"trial":0,"action":1,"button_pressed":9,"time_out":false,"dwell_time":64.52099609375,"response_time":1678300088908.3},{"trial":0,"action":1,"button_pressed":1,"time_out":false,"dwell_time":64.2099609375,"response_time":1678300089291.81},{"trial":0,"action":9,"button_pressed":-1,"time_out":false,"dwell_time":92.587158203125,"response_time":1678300089669.27},{"trial":1,"action":1,"button_pressed":4,"time_out":false,"dwell_time":64.455078125,"response_time":1678300099621.88},{"trial":1,"action":1,"button_pressed":7,"time_out":false,"dwell_time":98.390869140625,"response_time":1678300100171.64},{"trial":1,"action":1,"button_pressed":10,"time_out":false,"dwell_time":64.72900390625,"response_time":1678300100371.51},{"trial":1,"action":9,"button_pressed":-1,"time_out":false,"dwell_time":31.81396484375,"response_time":1678300101338.74},{"trial":2,"action":1,"button_pressed":11,"time_out":false,"dwell_time":81.135986328125,"response_time":1678300113250.12},{"trial":2,"action":1,"button_pressed":0,"time_out":false,"dwell_time":97.718017578125,"response_time":1678300113533.95},{"trial":2,"action":1,"button_pressed":4,"time_out":false,"dwell_time":48.10400390625,"response_time":1678300113733.69},{"trial":2,"action":1,"button_pressed":1,"time_out":false,"dwell_time":48.06201171875,"response_time":1678300114150.1},{"trial":2,"action":9,"button_pressed":-1,"time_out":false,"dwell_time":65.65478515625,"response_time":1678300114484.16},{"trial":3,"action":1,"button_pressed":9,"time_out":false,"dwell_time":47.630859375,"response_time":1678300128912.26},{"trial":3,"action":1,"button_pressed":0,"time_out":false,"dwell_time":64.697998046875,"response_time":1678300129245},{"trial":3,"action":1,"button_pressed":2,"time_out":false,"dwell_time":48.92919921875,"response_time":1678300129562.39},{"trial":3,"action":1,"button_pressed":1,"time_out":false,"dwell_time":48.27197265625,"response_time":1678300130112.38},{"trial":3,"action":1,"button_pressed":6,"time_out":false,"dwell_time":47.960205078125,"response_time":1678300130328.88},{"trial":3,"action":9,"button_pressed":-1,"time_out":false,"dwell_time":64.080078125,"response_time":1678300131327.78},{"trial":4,"action":1,"button_pressed":4,"time_out":false,"dwell_time":80.693115234375,"response_time":1678300148572.11},{"trial":4,"action":1,"button_pressed":3,"time_out":false,"dwell_time":31.449951171875,"response_time":1678300149205.93},{"trial":4,"action":1,"button_pressed":11,"time_out":false,"dwell_time":48.9130859375,"response_time":1678300150388.99},{"trial":4,"action":1,"button_pressed":2,"time_out":false,"dwell_time":65.087158203125,"response_time":1678300150921.6},{"trial":4,"action":1,"button_pressed":10,"time_out":false,"dwell_time":48.0830078125,"response_time":1678300151321.31},{"trial":4,"action":1,"button_pressed":6,"time_out":false,"dwell_time":30.623046875,"response_time":1678300151771.25},{"trial":4,"action":9,"button_pressed":-1,"time_out":false,"dwell_time":47.87109375,"response_time":1678300152421.37},{"trial":5,"action":1,"button_pressed":10,"time_out":false,"dwell_time":65.325927734375,"response_time":1678300169565.75},{"trial":5,"action":1,"button_pressed":9,"time_out":false,"dwell_time":48.724853515625,"response_time":1678300169815.91},{"trial":5,"action":1,"button_pressed":5,"time_out":false,"dwell_time":64.64111328125,"response_time":1678300170164.68},{"trial":5,"action":1,"button_pressed":11,"time_out":false,"dwell_time":30.596923828125,"response_time":1678300170764.83},{"trial":5,"action":1,"button_pressed":0,"time_out":false,"dwell_time":32.053955078125,"response_time":1678300171165.34},{"trial":5,"action":9,"button_pressed":-1,"time_out":false,"dwell_time":48.637939453125,"response_time":1678300171498.42},{"trial":6,"action":1,"button_pressed":5,"time_out":false,"dwell_time":81.34423828125,"response_time":1678300183243.88},{"trial":6,"action":1,"button_pressed":7,"time_out":false,"dwell_time":30.695068359375,"response_time":1678300183743.9},{"trial":6,"action":1,"button_pressed":1,"time_out":false,"dwell_time":81.047119140625,"response_time":1678300184060.81},{"trial":6,"action":1,"button_pressed":9,"time_out":false,"dwell_time":48.47705078125,"response_time":1678300184461.06},{"trial":6,"action":9,"button_pressed":-1,"time_out":false,"dwell_time":31.827880859375,"response_time":1678300185377.19},{"trial":7,"action":1,"button_pressed":9,"time_out":false,"dwell_time":63.822021484375,"response_time":1678300199355.23},{"trial":7,"action":1,"button_pressed":4,"time_out":false,"dwell_time":65.1201171875,"response_time":1678300199822.36},{"trial":7,"action":1,"button_pressed":9,"time_out":false,"dwell_time":48.05615234375,"response_time":1678300200505.15},{"trial":7,"action":1,"button_pressed":9,"time_out":false,"dwell_time":48.044189453125,"response_time":1678300201805.37},{"trial":7,"action":0,"button_pressed":-1,"time_out":false,"dwell_time":47.66015625,"response_time":1678300203504.42},{"trial":7,"action":1,"button_pressed":4,"time_out":false,"dwell_time":63.69482421875,"response_time":1678300204353.49},{"trial":7,"action":1,"button_pressed":11,"time_out":false,"dwell_time":64.954833984375,"response_time":1678300205153.82},{"trial":7,"action":1,"button_pressed":5,"time_out":false,"dwell_time":64.5419921875,"response_time":1678300205703.02},{"trial":7,"action":1,"button_pressed":6,"time_out":false,"dwell_time":64.843994140625,"response_time":1678300206436.68},{"trial":7,"action":1,"button_pressed":9,"time_out":false,"dwell_time":48.219970703125,"response_time":1678300206686.49},{"trial":7,"action":9,"button_pressed":-1,"time_out":false,"dwell_time":65.5439453125,"response_time":1678300207320.28},{"trial":8,"action":1,"button_pressed":0,"time_out":false,"dwell_time":63.9951171875,"response_time":1678300222047.99},{"trial":8,"action":1,"button_pressed":7,"time_out":false,"dwell_time":47.966064453125,"response_time":1678300222498.55},{"trial":8,"action":1,"button_pressed":10,"time_out":false,"dwell_time":64.339111328125,"response_time":1678300223013.98},{"trial":8,"action":1,"button_pressed":4,"time_out":false,"dwell_time":64.30908203125,"response_time":1678300223364.47},{"trial":8,"action":1,"button_pressed":1,"time_out":false,"dwell_time":30.85595703125,"response_time":1678300223730.92},{"trial":8,"action":9,"button_pressed":-1,"time_out":false,"dwell_time":81.8740234375,"response_time":1678300224165.17},{"trial":9,"action":1,"button_pressed":11,"time_out":false,"dwell_time":64.52001953125,"response_time":1678300240841.6},{"trial":9,"action":1,"button_pressed":8,"time_out":false,"dwell_time":48.2119140625,"response_time":1678300241325.88},{"trial":9,"action":1,"button_pressed":6,"time_out":false,"dwell_time":48.0341796875,"response_time":1678300241724.91},{"trial":9,"action":1,"button_pressed":4,"time_out":false,"dwell_time":65.153076171875,"response_time":1678300242025.07},{"trial":9,"action":1,"button_pressed":1,"time_out":false,"dwell_time":32.19287109375,"response_time":1678300242392.03},{"trial":9,"action":1,"button_pressed":10,"time_out":false,"dwell_time":47.804931640625,"response_time":1678300242825.22},{"trial":9,"action":9,"button_pressed":-1,"time_out":false,"dwell_time":48.630859375,"response_time":1678300243358.2},{"trial":10,"action":1,"button_pressed":8,"time_out":false,"dwell_time":81.0009765625,"response_time":1678300262650.99},{"trial":10,"action":1,"button_pressed":5,"time_out":false,"dwell_time":98.278076171875,"response_time":1678300262951.59},{"trial":10,"action":1,"button_pressed":0,"time_out":false,"dwell_time":47.8369140625,"response_time":1678300263434.37},{"trial":10,"action":1,"button_pressed":6,"time_out":false,"dwell_time":30.2880859375,"response_time":1678300263801.11},{"trial":10,"action":1,"button_pressed":1,"time_out":false,"dwell_time":48.089111328125,"response_time":1678300264118.39},{"trial":10,"action":1,"button_pressed":7,"time_out":false,"dwell_time":47.409912109375,"response_time":1678300264434.21},{"trial":10,"action":1,"button_pressed":11,"time_out":false,"dwell_time":31.453125,"response_time":1678300264634.07},{"trial":10,"action":9,"button_pressed":-1,"time_out":false,"dwell_time":48.64794921875,"response_time":1678300265467.62},{"trial":11,"action":1,"button_pressed":2,"time_out":false,"dwell_time":47.518798828125,"response_time":1678300285144.2},{"trial":11,"action":1,"button_pressed":6,"time_out":false,"dwell_time":64.7177734375,"response_time":1678300285960.62},{"trial":11,"action":1,"button_pressed":9,"time_out":false,"dwell_time":64.859130859375,"response_time":1678300286410.51},{"trial":11,"action":1,"button_pressed":0,"time_out":false,"dwell_time":63.616943359375,"response_time":1678300286876.54},{"trial":11,"action":1,"button_pressed":3,"time_out":false,"dwell_time":64.344970703125,"response_time":1678300287277.02},{"trial":11,"action":1,"button_pressed":10,"time_out":false,"dwell_time":47.1650390625,"response_time":1678300287676.59},{"trial":11,"action":1,"button_pressed":7,"time_out":false,"dwell_time":31.158203125,"response_time":1678300288177.07},{"trial":11,"action":9,"button_pressed":-1,"time_out":false,"dwell_time":48.869873046875,"response_time":1678300288744.31},{"trial":12,"action":1,"button_pressed":9,"time_out":false,"dwell_time":48.135986328125,"response_time":1678300311002.52},{"trial":12,"action":1,"button_pressed":2,"time_out":false,"dwell_time":81.787109375,"response_time":1678300311502.48},{"trial":12,"action":1,"button_pressed":1,"time_out":false,"dwell_time":116.409912109375,"response_time":1678300312484.8},{"trial":12,"action":1,"button_pressed":11,"time_out":false,"dwell_time":97.9189453125,"response_time":1678300313385.02},{"trial":12,"action":1,"button_pressed":10,"time_out":false,"dwell_time":64.224853515625,"response_time":1678300314218.09},{"trial":12,"action":1,"button_pressed":5,"time_out":false,"dwell_time":80.615966796875,"response_time":1678300314683.9},{"trial":12,"action":9,"button_pressed":-1,"time_out":false,"dwell_time":65.427001953125,"response_time":1678300315584.83},{"trial":13,"action":1,"button_pressed":4,"time_out":false,"dwell_time":97.98583984375,"response_time":1678300337793.52},{"trial":13,"action":1,"button_pressed":7,"time_out":false,"dwell_time":114.76806640625,"response_time":1678300338976.81},{"trial":13,"action":0,"button_pressed":-1,"time_out":false,"dwell_time":81.025146484375,"response_time":1678300340626.18},{"trial":13,"action":1,"button_pressed":4,"time_out":false,"dwell_time":64.0390625,"response_time":1678300341175.18},{"trial":13,"action":1,"button_pressed":11,"time_out":false,"dwell_time":47.930908203125,"response_time":1678300341708.83},{"trial":13,"action":1,"button_pressed":7,"time_out":false,"dwell_time":64.85498046875,"response_time":1678300342075.64},{"trial":13,"action":1,"button_pressed":6,"time_out":false,"dwell_time":64.451904296875,"response_time":1678300342458.25},{"trial":13,"action":1,"button_pressed":2,"time_out":false,"dwell_time":198.383056640625,"response_time":1678300343508.68},{"trial":13,"action":1,"button_pressed":1,"time_out":false,"dwell_time":64.4970703125,"response_time":1678300344240.93},{"trial":13,"action":1,"button_pressed":3,"time_out":false,"dwell_time":30.558837890625,"response_time":1678300344857.69},{"trial":13,"action":1,"button_pressed":9,"time_out":false,"dwell_time":30.590087890625,"response_time":1678300345174.4},{"trial":13,"action":9,"button_pressed":-1,"time_out":false,"dwell_time":48.489990234375,"response_time":1678300346107.91}]}