{"meta_data":{"additional_headers":{},"game_name":"Recollect","version":"2.53.01","user_name":"48","organization":"braingamecenter","study":"mpl2_2022_11","session_number":0,"device_id":"74342D95-EE82-45E3-8ADF-48FB3203C5DD"},"data":[{"trial":0,"action":1,"button_pressed":1,"time_out":false,"dwell_time":48.298095703125,"response_time":1678314810946.3},{"trial":0,"action":1,"button_pressed":5,"time_out":false,"dwell_time":30.81787109375,"response_time":1678314811611.97},{"trial":0,"action":9,"button_pressed":-1,"time_out":false,"dwell_time":59.263916015625,"response_time":1678314812389.52},{"trial":1,"action":1,"button_pressed":10,"time_out":false,"dwell_time":64.47314453125,"response_time":1678314821992.34},{"trial":1,"action":1,"button_pressed":0,"time_out":false,"dwell_time":48.843017578125,"response_time":1678314822492.52},{"trial":1,"action":1,"button_pressed":6,"time_out":false,"dwell_time":30.5400390625,"response_time":1678314822991.55},{"trial":1,"action":9,"button_pressed":-1,"time_out":false,"dwell_time":65.34912109375,"response_time":1678314823858.62},{"trial":2,"action":1,"button_pressed":5,"time_out":false,"dwell_time":32.18603515625,"response_time":1678314835771.6},{"trial":2,"action":1,"button_pressed":7,"time_out":false,"dwell_time":30.713134765625,"response_time":1678314836537.38},{"trial":2,"action":1,"button_pressed":1,"time_out":false,"dwell_time":30.31005859375,"response_time":1678314836987.1},{"trial":2,"action":1,"button_pressed":9,"time_out":false,"dwell_time":48.072998046875,"response_time":1678314837521.07},{"trial":2,"action":9,"button_pressed":-1,"time_out":false,"dwell_time":47.843994140625,"response_time":1678314838237.2},{"trial":3,"action":1,"button_pressed":6,"time_out":false,"dwell_time":47.3837890625,"response_time":1678314852598.92},{"trial":3,"action":1,"button_pressed":3,"time_out":false,"dwell_time":48.26904296875,"response_time":1678314852982.11},{"trial":3,"action":1,"button_pressed":8,"time_out":false,"dwell_time":63.54296875,"response_time":1678314853481.5},{"trial":3,"action":1,"button_pressed":11,"time_out":false,"dwell_time":64.39306640625,"response_time":1678314854081.22},{"trial":3,"action":1,"button_pressed":0,"time_out":false,"dwell_time":48.152099609375,"response_time":1678314854998.05},{"trial":3,"action":9,"button_pressed":-1,"time_out":false,"dwell_time":31.298095703125,"response_time":1678314855565.07},{"trial":4,"action":1,"button_pressed":1,"time_out":false,"dwell_time":31.68310546875,"response_time":1678314872509.2},{"trial":4,"action":1,"button_pressed":9,"time_out":false,"dwell_time":63.985107421875,"response_time":1678314873025.66},{"trial":4,"action":1,"button_pressed":5,"time_out":false,"dwell_time":31.534912109375,"response_time":1678314873642.78},{"trial":4,"action":1,"button_pressed":6,"time_out":false,"dwell_time":114.85693359375,"response_time":1678314876990.77},{"trial":4,"action":1,"button_pressed":7,"time_out":false,"dwell_time":30.6162109375,"response_time":1678314877374.18},{"trial":4,"action":1,"button_pressed":2,"time_out":false,"dwell_time":48.60791015625,"response_time":1678314878357.86},{"trial":4,"action":9,"button_pressed":-1,"time_out":false,"dwell_time":47.598876953125,"response_time":1678314878924.09},{"trial":5,"action":1,"button_pressed":2,"time_out":false,"dwell_time":48.3310546875,"response_time":1678314899200.67},{"trial":5,"action":1,"button_pressed":2,"time_out":false,"dwell_time":80.39306640625,"response_time":1678314900749.69},{"trial":5,"action":0,"button_pressed":-1,"time_out":false,"dwell_time":97.98388671875,"response_time":1678314902832.55},{"trial":5,"action":1,"button_pressed":10,"time_out":false,"dwell_time":48.045166015625,"response_time":1678314903633.18},{"trial":5,"action":1,"button_pressed":1,"time_out":false,"dwell_time":47.364990234375,"response_time":1678314904482.2},{"trial":5,"action":1,"button_pressed":2,"time_out":false,"dwell_time":80.72607421875,"response_time":1678314906148.4},{"trial":5,"action":1,"button_pressed":7,"time_out":false,"dwell_time":64.907958984375,"response_time":1678314908747.67},{"trial":5,"action":1,"button_pressed":6,"time_out":false,"dwell_time":48.56103515625,"response_time":1678314909047.96},{"trial":5,"action":1,"button_pressed":0,"time_out":false,"dwell_time":31.291015625,"response_time":1678314910280.95},{"trial":5,"action":1,"button_pressed":4,"time_out":false,"dwell_time":31.6240234375,"response_time":1678314910547.02},{"trial":5,"action":9,"button_pressed":-1,"time_out":false,"dwell_time":83.343017578125,"response_time":1678314911231.84},{"trial":6,"action":1,"button_pressed":3,"time_out":false,"dwell_time":64.319091796875,"response_time":1678314933189.9},{"trial":6,"action":1,"button_pressed":1,"time_out":false,"dwell_time":65.18603515625,"response_time":1678314933473.27},{"trial":6,"action":1,"button_pressed":8,"time_out":false,"dwell_time":47.22998046875,"response_time":1678314934139.32},{"trial":6,"action":1,"button_pressed":5,"time_out":false,"dwell_time":48.93603515625,"response_time":1678314934423.38},{"trial":6,"action":1,"button_pressed":7,"time_out":false,"dwell_time":47.927001953125,"response_time":1678314938304.7},{"trial":6,"action":1,"button_pressed":0,"time_out":false,"dwell_time":64.2958984375,"response_time":1678314940570.08},{"trial":6,"action":1,"button_pressed":9,"time_out":false,"dwell_time":47.93408203125,"response_time":1678314941754.25},{"trial":6,"action":1,"button_pressed":10,"time_out":false,"dwell_time":48.2861328125,"response_time":1678314942036.99},{"trial":6,"action":9,"button_pressed":-1,"time_out":false,"dwell_time":31.294921875,"response_time":1678314943103.78},{"trial":7,"action":1,"button_pressed":4,"time_out":false,"dwell_time":49.9599609375,"response_time":1678314967728.73},{"trial":7,"action":1,"button_pressed":2,"time_out":false,"dwell_time":48.8720703125,"response_time":1678314968112.63},{"trial":7,"action":1,"button_pressed":9,"time_out":false,"dwell_time":47.921875,"response_time":1678314969012.21},{"trial":7,"action":1,"button_pressed":1,"time_out":false,"dwell_time":48.22998046875,"response_time":1678314970444.48},{"trial":7,"action":1,"button_pressed":5,"time_out":false,"dwell_time":64.2451171875,"response_time":1678314972360.58},{"trial":7,"action":1,"button_pressed":3,"time_out":false,"dwell_time":81.281005859375,"response_time":1678314973977.14},{"trial":7,"action":1,"button_pressed":6,"time_out":false,"dwell_time":63.408935546875,"response_time":1678314974292.72},{"trial":7,"action":1,"button_pressed":7,"time_out":false,"dwell_time":47.903076171875,"response_time":1678314974710.22},{"trial":7,"action":1,"button_pressed":11,"time_out":false,"dwell_time":81.7958984375,"response_time":1678314975026.78},{"trial":7,"action":9,"button_pressed":-1,"time_out":false,"dwell_time":83.259033203125,"response_time":1678314975844.54},{"trial":8,"action":1,"button_pressed":6,"time_out":false,"dwell_time":30.53515625,"response_time":1678315000634.91},{"trial":8,"action":1,"button_pressed":7,"time_out":false,"dwell_time":30.2509765625,"response_time":1678315000918.03},{"trial":8,"action":1,"button_pressed":8,"time_out":false,"dwell_time":64.291015625,"response_time":1678315002000.61},{"trial":8,"action":1,"button_pressed":4,"time_out":false,"dwell_time":80.883056640625,"response_time":1678315002301.08},{"trial":8,"action":1,"button_pressed":10,"time_out":false,"dwell_time":64.369140625,"response_time":1678315002551.35},{"trial":8,"action":1,"button_pressed":3,"time_out":false,"dwell_time":47.919921875,"response_time":1678315003834.5},{"trial":8,"action":1,"button_pressed":1,"time_out":false,"dwell_time":48.244140625,"response_time":1678315004067.75},{"trial":8,"action":1,"button_pressed":11,"time_out":false,"dwell_time":48.113037109375,"response_time":1678315005017.44},{"trial":8,"action":1,"button_pressed":2,"time_out":false,"dwell_time":30.72412109375,"response_time":1678315005966.51},{"trial":8,"action":1,"button_pressed":5,"time_out":false,"dwell_time":31.47607421875,"response_time":1678315006199.6},{"trial":8,"action":9,"button_pressed":-1,"time_out":false,"dwell_time":31.092041015625,"response_time":1678315006966.59},{"trial":9,"action":1,"button_pressed":11,"time_out":false,"dwell_time":80.614990234375,"response_time":1678315027176.29},{"trial":9,"action":1,"button_pressed":4,"time_out":false,"dwell_time":47.338134765625,"response_time":1678315027709.36},{"trial":9,"action":1,"button_pressed":3,"time_out":false,"dwell_time":65.301025390625,"response_time":1678315027976.44},{"trial":9,"action":1,"button_pressed":10,"time_out":false,"dwell_time":64.133056640625,"response_time":1678315029259.29},{"trial":9,"action":1,"button_pressed":2,"time_out":false,"dwell_time":81.89501953125,"response_time":1678315030908.83},{"trial":9,"action":1,"button_pressed":8,"time_out":false,"dwell_time":63.985107421875,"response_time":1678315031408.51},{"trial":9,"action":1,"button_pressed":1,"time_out":false,"dwell_time":64.64501953125,"response_time":1678315032741.33},{"trial":9,"action":9,"button_pressed":-1,"time_out":false,"dwell_time":49.19482421875,"response_time":1678315033375.42},{"trial":10,"action":1,"button_pressed":0,"time_out":false,"dwell_time":64.52001953125,"response_time":1678315055684.19},{"trial":10,"action":1,"button_pressed":11,"time_out":false,"dwell_time":63.76806640625,"response_time":1678315056916.91},{"trial":10,"action":1,"button_pressed":7,"time_out":false,"dwell_time":65.2890625,"response_time":1678315057134},{"trial":10,"action":1,"button_pressed":2,"time_out":false,"dwell_time":48.752197265625,"response_time":1678315059966.53},{"trial":10,"action":1,"button_pressed":6,"time_out":false,"dwell_time":47.156005859375,"response_time":1678315061781.88},{"trial":10,"action":1,"button_pressed":3,"time_out":false,"dwell_time":48.75390625,"response_time":1678315062299.09},{"trial":10,"action":1,"button_pressed":1,"time_out":false,"dwell_time":65.3251953125,"response_time":1678315062548.89},{"trial":10,"action":1,"button_pressed":9,"time_out":false,"dwell_time":47.927001953125,"response_time":1678315062964.74},{"trial":10,"action":9,"button_pressed":-1,"time_out":false,"dwell_time":64.56396484375,"response_time":1678315063798.63},{"trial":11,"action":1,"button_pressed":4,"time_out":false,"dwell_time":48.073974609375,"response_time":1678315086290.8},{"trial":11,"action":0,"button_pressed":-1,"time_out":false,"dwell_time":47.4150390625,"response_time":1678315087823.74},{"trial":11,"action":1,"button_pressed":2,"time_out":false,"dwell_time":80.785888671875,"response_time":1678315088539.46},{"trial":11,"action":1,"button_pressed":4,"time_out":false,"dwell_time":65.033935546875,"response_time":1678315088806.85},{"trial":11,"action":1,"button_pressed":11,"time_out":false,"dwell_time":64.10302734375,"response_time":1678315090088.96},{"trial":11,"action":1,"button_pressed":6,"time_out":false,"dwell_time":30.52001953125,"response_time":1678315090422.78},{"trial":11,"action":1,"button_pressed":5,"time_out":false,"dwell_time":97.455078125,"response_time":1678315091521.92},{"trial":11,"action":1,"button_pressed":3,"time_out":false,"dwell_time":64.274169921875,"response_time":1678315092105},{"trial":11,"action":1,"button_pressed":0,"time_out":false,"dwell_time":47.10400390625,"response_time":1678315092538.68},{"trial":11,"action":1,"button_pressed":9,"time_out":false,"dwell_time":64.327880859375,"response_time":1678315093505.33},{"trial":11,"action":1,"button_pressed":1,"time_out":false,"dwell_time":48.5439453125,"response_time":1678315093905.6},{"trial":11,"action":9,"button_pressed":-1,"time_out":false,"dwell_time":65.574951171875,"response_time":1678315094672.17}]}