{"meta_data":{"additional_headers":{},"game_name":"Recollect","version":"2.53.01","user_name":"49","organization":"braingamecenter","study":"mpl2_2022_11","session_number":0,"device_id":"74342D95-EE82-45E3-8ADF-48FB3203C5DD"},"data":[{"trial":0,"action":1,"button_pressed":6,"time_out":false,"dwell_time":48.637939453125,"response_time":1678390272156.61},{"trial":0,"action":1,"button_pressed":10,"time_out":false,"dwell_time":47.27099609375,"response_time":1678390272538.9},{"trial":0,"action":9,"button_pressed":-1,"time_out":false,"dwell_time":28.068115234375,"response_time":1678390273316.34},{"trial":1,"action":1,"button_pressed":7,"time_out":false,"dwell_time":48.130126953125,"response_time":1678390283019.54},{"trial":1,"action":1,"button_pressed":3,"time_out":false,"dwell_time":48.02392578125,"response_time":1678390283502.56},{"trial":1,"action":1,"button_pressed":2,"time_out":false,"dwell_time":47.486083984375,"response_time":1678390283935.11},{"trial":1,"action":9,"button_pressed":-1,"time_out":false,"dwell_time":47.666015625,"response_time":1678390284335.38},{"trial":2,"action":1,"button_pressed":6,"time_out":false,"dwell_time":48.18212890625,"response_time":1678390296381},{"trial":2,"action":1,"button_pressed":8,"time_out":false,"dwell_time":64.989013671875,"response_time":1678390296780.98},{"trial":2,"action":1,"button_pressed":11,"time_out":false,"dwell_time":30.55810546875,"response_time":1678390297213.85},{"trial":2,"action":1,"button_pressed":7,"time_out":false,"dwell_time":48.748046875,"response_time":1678390297647.85},{"trial":2,"action":9,"button_pressed":-1,"time_out":false,"dwell_time":47.991943359375,"response_time":1678390298663.96},{"trial":3,"action":1,"button_pressed":3,"time_out":false,"dwell_time":48.01806640625,"response_time":1678390313025.97},{"trial":3,"action":1,"button_pressed":8,"time_out":false,"dwell_time":64.8388671875,"response_time":1678390313358.86},{"trial":3,"action":1,"button_pressed":4,"time_out":false,"dwell_time":64.39599609375,"response_time":1678390313642.01},{"trial":3,"action":1,"button_pressed":10,"time_out":false,"dwell_time":47.5390625,"response_time":1678390313908.53},{"trial":3,"action":1,"button_pressed":11,"time_out":false,"dwell_time":30.626953125,"response_time":1678390314358.07},{"trial":3,"action":9,"button_pressed":-1,"time_out":false,"dwell_time":48.56005859375,"response_time":1678390314941.87},{"trial":4,"action":1,"button_pressed":6,"time_out":false,"dwell_time":31.71484375,"response_time":1678390332902.21},{"trial":4,"action":1,"button_pressed":5,"time_out":false,"dwell_time":47.296875,"response_time":1678390333485.01},{"trial":4,"action":1,"button_pressed":0,"time_out":false,"dwell_time":48.343994140625,"response_time":1678390334968.87},{"trial":4,"action":1,"button_pressed":11,"time_out":false,"dwell_time":31.119873046875,"response_time":1678390337134.46},{"trial":4,"action":1,"button_pressed":8,"time_out":false,"dwell_time":64.85986328125,"response_time":1678390338516.87},{"trial":4,"action":1,"button_pressed":4,"time_out":false,"dwell_time":30.93212890625,"response_time":1678390338850.07},{"trial":4,"action":9,"button_pressed":-1,"time_out":false,"dwell_time":115.6171875,"response_time":1678390340216.87},{"trial":5,"action":1,"button_pressed":7,"time_out":false,"dwell_time":48.112060546875,"response_time":1678390360376.88},{"trial":5,"action":1,"button_pressed":11,"time_out":false,"dwell_time":30.6708984375,"response_time":1678390360825.89},{"trial":5,"action":1,"button_pressed":0,"time_out":false,"dwell_time":47.4150390625,"response_time":1678390361442.43},{"trial":5,"action":1,"button_pressed":4,"time_out":false,"dwell_time":64.388916015625,"response_time":1678390362092.38},{"trial":5,"action":1,"button_pressed":9,"time_out":false,"dwell_time":13.98095703125,"response_time":1678390363974.75},{"trial":5,"action":1,"button_pressed":5,"time_out":false,"dwell_time":48.112060546875,"response_time":1678390364408.68},{"trial":5,"action":1,"button_pressed":6,"time_out":false,"dwell_time":30.470947265625,"response_time":1678390364907.96},{"trial":5,"action":9,"button_pressed":-1,"time_out":false,"dwell_time":97.362060546875,"response_time":1678390365457.7},{"trial":6,"action":1,"button_pressed":1,"time_out":false,"dwell_time":48.97802734375,"response_time":1678390385651.62},{"trial":6,"action":1,"button_pressed":2,"time_out":false,"dwell_time":64.84619140625,"response_time":1678390389999.56},{"trial":6,"action":1,"button_pressed":7,"time_out":false,"dwell_time":47.93505859375,"response_time":1678390391482.93},{"trial":6,"action":1,"button_pressed":5,"time_out":false,"dwell_time":47.321044921875,"response_time":1678390392648.47},{"trial":6,"action":1,"button_pressed":9,"time_out":false,"dwell_time":47.985107421875,"response_time":1678390396048.04},{"trial":6,"action":1,"button_pressed":6,"time_out":false,"dwell_time":47.905029296875,"response_time":1678390396981.06},{"trial":6,"action":9,"button_pressed":-1,"time_out":false,"dwell_time":1065.791015625,"response_time":1678390399297.58},{"trial":7,"action":1,"button_pressed":6,"time_out":false,"dwell_time":64.06884765625,"response_time":1678390413991.44},{"trial":7,"action":1,"button_pressed":3,"time_out":false,"dwell_time":65.078125,"response_time":1678390414224.85},{"trial":7,"action":1,"button_pressed":8,"time_out":false,"dwell_time":81.64306640625,"response_time":1678390414557.95},{"trial":7,"action":1,"button_pressed":11,"time_out":false,"dwell_time":48.032958984375,"response_time":1678390414990.93},{"trial":7,"action":1,"button_pressed":0,"time_out":false,"dwell_time":30.699951171875,"response_time":1678390415424.2},{"trial":7,"action":9,"button_pressed":-1,"time_out":false,"dwell_time":65.5009765625,"response_time":1678390415691.48},{"trial":8,"action":1,"button_pressed":3,"time_out":false,"dwell_time":48.718017578125,"response_time":1678390433602.13},{"trial":8,"action":0,"button_pressed":-1,"time_out":false,"dwell_time":80.574951171875,"response_time":1678390435250.55},{"trial":8,"action":1,"button_pressed":7,"time_out":false,"dwell_time":47.94189453125,"response_time":1678390435783.99},{"trial":8,"action":1,"button_pressed":3,"time_out":false,"dwell_time":48.167236328125,"response_time":1678390436250.48},{"trial":8,"action":1,"button_pressed":8,"time_out":false,"dwell_time":64.077880859375,"response_time":1678390436750.53},{"trial":8,"action":1,"button_pressed":0,"time_out":false,"dwell_time":48.14111328125,"response_time":1678390437283.51},{"trial":8,"action":1,"button_pressed":4,"time_out":false,"dwell_time":30.739013671875,"response_time":1678390437700.02},{"trial":8,"action":1,"button_pressed":1,"time_out":false,"dwell_time":30.62109375,"response_time":1678390438083.12},{"trial":8,"action":9,"button_pressed":-1,"time_out":false,"dwell_time":47.987060546875,"response_time":1678390438583.65},{"trial":9,"action":1,"button_pressed":3,"time_out":false,"dwell_time":64.919921875,"response_time":1678390458509.9},{"trial":9,"action":1,"button_pressed":0,"time_out":false,"dwell_time":47.507080078125,"response_time":1678390458859.63},{"trial":9,"action":1,"button_pressed":10,"time_out":false,"dwell_time":47.93408203125,"response_time":1678390459276.71},{"trial":9,"action":1,"button_pressed":5,"time_out":false,"dwell_time":47.18701171875,"response_time":1678390459726.1},{"trial":9,"action":1,"button_pressed":4,"time_out":false,"dwell_time":30.720947265625,"response_time":1678390460125.73},{"trial":9,"action":1,"button_pressed":1,"time_out":false,"dwell_time":49.023193359375,"response_time":1678390460626.44},{"trial":9,"action":1,"button_pressed":2,"time_out":false,"dwell_time":64.97998046875,"response_time":1678390461025.75},{"trial":9,"action":9,"button_pressed":-1,"time_out":false,"dwell_time":16.56591796875,"response_time":1678390461574.91},{"trial":10,"action":1,"button_pressed":1,"time_out":false,"dwell_time":65.489013671875,"response_time":1678390486517.39},{"trial":10,"action":1,"button_pressed":10,"time_out":false,"dwell_time":65.14794921875,"response_time":1678390487050.43},{"trial":10,"action":1,"button_pressed":0,"time_out":false,"dwell_time":30.7939453125,"response_time":1678390487500.06},{"trial":10,"action":1,"button_pressed":2,"time_out":false,"dwell_time":48.129150390625,"response_time":1678390487899.74},{"trial":10,"action":1,"button_pressed":7,"time_out":false,"dwell_time":48.117919921875,"response_time":1678390489433.32},{"trial":10,"action":1,"button_pressed":9,"time_out":false,"dwell_time":31.2060546875,"response_time":1678390489999.76},{"trial":10,"action":1,"button_pressed":4,"time_out":false,"dwell_time":48.06103515625,"response_time":1678390490665.51},{"trial":10,"action":9,"button_pressed":-1,"time_out":false,"dwell_time":64.843994140625,"response_time":1678390491698.59},{"trial":11,"action":1,"button_pressed":2,"time_out":false,"dwell_time":64.56396484375,"response_time":1678390513924.09},{"trial":11,"action":1,"button_pressed":10,"time_out":false,"dwell_time":64.22509765625,"response_time":1678390514357.82},{"trial":11,"action":1,"button_pressed":9,"time_out":false,"dwell_time":64.131103515625,"response_time":1678390514724.33},{"trial":11,"action":1,"button_pressed":8,"time_out":false,"dwell_time":47.92919921875,"response_time":1678390515157.95},{"trial":11,"action":1,"button_pressed":0,"time_out":false,"dwell_time":30.8359375,"response_time":1678390516873.45},{"trial":11,"action":1,"button_pressed":1,"time_out":false,"dwell_time":31.4150390625,"response_time":1678390517273.97},{"trial":11,"action":1,"button_pressed":5,"time_out":false,"dwell_time":30.864013671875,"response_time":1678390517706.52},{"trial":11,"action":9,"button_pressed":-1,"time_out":false,"dwell_time":99.386962890625,"response_time":1678390518207.58}]}