{"meta_data":{"additional_headers":{},"game_name":"Recollect","version":"2.53.01","user_name":"4","organization":"braingamecenter","study":"mpl2_2022_11","session_number":0,"device_id":"5D058FBB-ECD0-4D46-BF5F-BB154308C3EF"},"data":[{"trial":0,"action":1,"button_pressed":11,"time_out":false,"dwell_time":30.93408203125,"response_time":1675359521088.89},{"trial":0,"action":1,"button_pressed":8,"time_out":false,"dwell_time":31.4970703125,"response_time":1675359521921.89},{"trial":0,"action":9,"button_pressed":-1,"time_out":false,"dwell_time":27.956787109375,"response_time":1675359522682.4},{"trial":1,"action":1,"button_pressed":5,"time_out":false,"dwell_time":82.06396484375,"response_time":1675359531968.96},{"trial":1,"action":1,"button_pressed":8,"time_out":false,"dwell_time":47.322021484375,"response_time":1675359532301.78},{"trial":1,"action":1,"button_pressed":0,"time_out":false,"dwell_time":48.277099609375,"response_time":1675359532834.93},{"trial":1,"action":9,"button_pressed":-1,"time_out":false,"dwell_time":81.44677734375,"response_time":1675359533518.12},{"trial":2,"action":1,"button_pressed":10,"time_out":false,"dwell_time":48.177001953125,"response_time":1675359545765.05},{"trial":2,"action":1,"button_pressed":3,"time_out":false,"dwell_time":48.343994140625,"response_time":1675359546080.74},{"trial":2,"action":1,"button_pressed":6,"time_out":false,"dwell_time":48.132080078125,"response_time":1675359546330.51},{"trial":2,"action":1,"button_pressed":8,"time_out":false,"dwell_time":47.885986328125,"response_time":1675359546714.38},{"trial":2,"action":9,"button_pressed":-1,"time_out":false,"dwell_time":97.408935546875,"response_time":1675359547363.59},{"trial":3,"action":1,"button_pressed":7,"time_out":false,"dwell_time":31.510986328125,"response_time":1675359561792.99},{"trial":3,"action":1,"button_pressed":4,"time_out":false,"dwell_time":63.56689453125,"response_time":1675359562308.2},{"trial":3,"action":1,"button_pressed":11,"time_out":false,"dwell_time":48.1279296875,"response_time":1675359562841.74},{"trial":3,"action":1,"button_pressed":3,"time_out":false,"dwell_time":64.407958984375,"response_time":1675359563341.94},{"trial":3,"action":1,"button_pressed":10,"time_out":false,"dwell_time":64.274169921875,"response_time":1675359563808.35},{"trial":3,"action":9,"button_pressed":-1,"time_out":false,"dwell_time":98.1279296875,"response_time":1675359564575.36},{"trial":4,"action":1,"button_pressed":3,"time_out":false,"dwell_time":48.510009765625,"response_time":1675359581669.1},{"trial":4,"action":1,"button_pressed":7,"time_out":false,"dwell_time":64.094970703125,"response_time":1675359582185.61},{"trial":4,"action":1,"button_pressed":4,"time_out":false,"dwell_time":98.708984375,"response_time":1675359582669.21},{"trial":4,"action":1,"button_pressed":10,"time_out":false,"dwell_time":81.635986328125,"response_time":1675359583002.29},{"trial":4,"action":1,"button_pressed":2,"time_out":false,"dwell_time":64.587158203125,"response_time":1675359583368.11},{"trial":4,"action":1,"button_pressed":9,"time_out":false,"dwell_time":48.26904296875,"response_time":1675359583885.01},{"trial":4,"action":9,"button_pressed":-1,"time_out":false,"dwell_time":98.197998046875,"response_time":1675359584634.67},{"trial":5,"action":1,"button_pressed":3,"time_out":false,"dwell_time":64.322998046875,"response_time":1675359604378.5},{"trial":5,"action":1,"button_pressed":0,"time_out":false,"dwell_time":30.890869140625,"response_time":1675359604644.83},{"trial":5,"action":1,"button_pressed":10,"time_out":false,"dwell_time":81.80908203125,"response_time":1675359604978.29},{"trial":5,"action":1,"button_pressed":5,"time_out":false,"dwell_time":81.18896484375,"response_time":1675359605277.51},{"trial":5,"action":1,"button_pressed":1,"time_out":false,"dwell_time":48.588134765625,"response_time":1675359606162.01},{"trial":5,"action":1,"button_pressed":4,"time_out":false,"dwell_time":82.02099609375,"response_time":1675359606511.37},{"trial":5,"action":1,"button_pressed":2,"time_out":false,"dwell_time":63.675048828125,"response_time":1675359606760.39},{"trial":5,"action":9,"button_pressed":-1,"time_out":false,"dwell_time":65.350830078125,"response_time":1675359607162.08},{"trial":6,"action":1,"button_pressed":6,"time_out":false,"dwell_time":81.906005859375,"response_time":1675359628687.39},{"trial":6,"action":1,"button_pressed":11,"time_out":false,"dwell_time":48.2900390625,"response_time":1675359628953.58},{"trial":6,"action":1,"button_pressed":8,"time_out":false,"dwell_time":81.72900390625,"response_time":1675359629536.96},{"trial":6,"action":1,"button_pressed":4,"time_out":false,"dwell_time":64.299072265625,"response_time":1675359629853.55},{"trial":6,"action":1,"button_pressed":10,"time_out":false,"dwell_time":65.112060546875,"response_time":1675359630103.44},{"trial":6,"action":1,"button_pressed":3,"time_out":false,"dwell_time":65.170166015625,"response_time":1675359630519.92},{"trial":6,"action":1,"button_pressed":5,"time_out":false,"dwell_time":63.662109375,"response_time":1675359630869.22},{"trial":6,"action":9,"button_pressed":-1,"time_out":false,"dwell_time":81.423828125,"response_time":1675359631303.49},{"trial":7,"action":1,"button_pressed":2,"time_out":false,"dwell_time":48.864013671875,"response_time":1675359646082.14},{"trial":7,"action":1,"button_pressed":6,"time_out":false,"dwell_time":48.06005859375,"response_time":1675359646697.78},{"trial":7,"action":1,"button_pressed":7,"time_out":false,"dwell_time":31.41796875,"response_time":1675359646930.97},{"trial":7,"action":1,"button_pressed":0,"time_out":false,"dwell_time":64.644775390625,"response_time":1675359647364.66},{"trial":7,"action":1,"button_pressed":8,"time_out":false,"dwell_time":63.052978515625,"response_time":1675359647696.49},{"trial":7,"action":9,"button_pressed":-1,"time_out":false,"dwell_time":64.9150390625,"response_time":1675359648147.34},{"trial":8,"action":1,"button_pressed":5,"time_out":false,"dwell_time":64.611083984375,"response_time":1675359665375.52},{"trial":8,"action":1,"button_pressed":10,"time_out":false,"dwell_time":64.120849609375,"response_time":1675359665841.96},{"trial":8,"action":1,"button_pressed":7,"time_out":false,"dwell_time":48.802978515625,"response_time":1675359666425.57},{"trial":8,"action":1,"button_pressed":4,"time_out":false,"dwell_time":63.60400390625,"response_time":1675359666890.75},{"trial":8,"action":1,"button_pressed":0,"time_out":false,"dwell_time":64.35205078125,"response_time":1675359667241.37},{"trial":8,"action":1,"button_pressed":8,"time_out":false,"dwell_time":47.267822265625,"response_time":1675359667524.4},{"trial":8,"action":9,"button_pressed":-1,"time_out":false,"dwell_time":64.6728515625,"response_time":1675359668240.84},{"trial":9,"action":1,"button_pressed":2,"time_out":false,"dwell_time":98.862060546875,"response_time":1675359688034.96},{"trial":9,"action":1,"button_pressed":6,"time_out":false,"dwell_time":64.154052734375,"response_time":1675359688551.11},{"trial":9,"action":1,"button_pressed":9,"time_out":false,"dwell_time":81.360107421875,"response_time":1675359688734.66},{"trial":9,"action":1,"button_pressed":0,"time_out":false,"dwell_time":63.65380859375,"response_time":1675359689133.73},{"trial":9,"action":1,"button_pressed":3,"time_out":false,"dwell_time":65.302978515625,"response_time":1675359689417.57},{"trial":9,"action":1,"button_pressed":10,"time_out":false,"dwell_time":64.322021484375,"response_time":1675359689783.28},{"trial":9,"action":1,"button_pressed":7,"time_out":false,"dwell_time":47.989013671875,"response_time":1675359690300.18},{"trial":9,"action":9,"button_pressed":-1,"time_out":false,"dwell_time":81.43310546875,"response_time":1675359691849.66},{"trial":10,"action":1,"button_pressed":6,"time_out":false,"dwell_time":81.087158203125,"response_time":1675359714426.05},{"trial":10,"action":1,"button_pressed":0,"time_out":false,"dwell_time":64.181884765625,"response_time":1675359716375.17},{"trial":10,"action":1,"button_pressed":5,"time_out":false,"dwell_time":97.095947265625,"response_time":1675359716841.14},{"trial":10,"action":1,"button_pressed":3,"time_out":false,"dwell_time":64.18994140625,"response_time":1675359717358.15},{"trial":10,"action":1,"button_pressed":10,"time_out":false,"dwell_time":80.197998046875,"response_time":1675359717857.46},{"trial":10,"action":1,"button_pressed":8,"time_out":false,"dwell_time":63.552978515625,"response_time":1675359718340.59},{"trial":10,"action":1,"button_pressed":1,"time_out":false,"dwell_time":48.047119140625,"response_time":1675359718824.16},{"trial":10,"action":1,"button_pressed":7,"time_out":false,"dwell_time":48.2568359375,"response_time":1675359719107.54},{"trial":10,"action":9,"button_pressed":-1,"time_out":false,"dwell_time":64.56982421875,"response_time":1675359719557.85},{"trial":11,"action":1,"button_pressed":5,"time_out":false,"dwell_time":30.81298828125,"response_time":1675359744366.06},{"trial":11,"action":1,"button_pressed":11,"time_out":false,"dwell_time":30.54296875,"response_time":1675359744948.97},{"trial":11,"action":1,"button_pressed":3,"time_out":false,"dwell_time":65.0791015625,"response_time":1675359745332.56},{"trial":11,"action":1,"button_pressed":4,"time_out":false,"dwell_time":64.659912109375,"response_time":1675359745632.19},{"trial":11,"action":1,"button_pressed":8,"time_out":false,"dwell_time":63.6181640625,"response_time":1675359745948.34},{"trial":11,"action":1,"button_pressed":7,"time_out":false,"dwell_time":64.94189453125,"response_time":1675359746382.22},{"trial":11,"action":1,"button_pressed":2,"time_out":false,"dwell_time":81.2880859375,"response_time":1675359746848.93},{"trial":11,"action":1,"button_pressed":10,"time_out":false,"dwell_time":98.2490234375,"response_time":1675359747265.3},{"trial":11,"action":1,"button_pressed":9,"time_out":false,"dwell_time":48.35595703125,"response_time":1675359747431.8},{"trial":11,"action":9,"button_pressed":-1,"time_out":false,"dwell_time":64.743896484375,"response_time":1675359747948.17},{"trial":12,"action":1,"button_pressed":7,"time_out":false,"dwell_time":65.0341796875,"response_time":1675359775689.36},{"trial":12,"action":1,"button_pressed":0,"time_out":false,"dwell_time":63.383056640625,"response_time":1675359778488.16},{"trial":12,"action":1,"button_pressed":4,"time_out":false,"dwell_time":81.011962890625,"response_time":1675359778838.26},{"trial":12,"action":1,"button_pressed":8,"time_out":false,"dwell_time":98.327880859375,"response_time":1675359779121.68},{"trial":12,"action":1,"button_pressed":6,"time_out":false,"dwell_time":47.43408203125,"response_time":1675359779504.66},{"trial":12,"action":1,"button_pressed":2,"time_out":false,"dwell_time":63.806884765625,"response_time":1675359779920.71},{"trial":12,"action":1,"button_pressed":9,"time_out":false,"dwell_time":47.962158203125,"response_time":1675359780304.83},{"trial":12,"action":1,"button_pressed":5,"time_out":false,"dwell_time":48.2880859375,"response_time":1675359780621.65},{"trial":12,"action":1,"button_pressed":11,"time_out":false,"dwell_time":31.309814453125,"response_time":1675359781237.32},{"trial":12,"action":9,"button_pressed":-1,"time_out":false,"dwell_time":48.405029296875,"response_time":1675359782287.34},{"trial":13,"action":1,"button_pressed":6,"time_out":false,"dwell_time":80.91796875,"response_time":1675359813260.46},{"trial":13,"action":1,"button_pressed":1,"time_out":false,"dwell_time":47.599853515625,"response_time":1675359813660.15},{"trial":13,"action":1,"button_pressed":9,"time_out":false,"dwell_time":63.554931640625,"response_time":1675359814226.07},{"trial":13,"action":1,"button_pressed":10,"time_out":false,"dwell_time":81.04296875,"response_time":1675359815742.3},{"trial":13,"action":1,"button_pressed":8,"time_out":false,"dwell_time":97.426025390625,"response_time":1675359818042.13},{"trial":13,"action":1,"button_pressed":2,"time_out":false,"dwell_time":63.60107421875,"response_time":1675359820140.78},{"trial":13,"action":1,"button_pressed":11,"time_out":false,"dwell_time":64.762939453125,"response_time":1675359820641.29},{"trial":13,"action":1,"button_pressed":0,"time_out":false,"dwell_time":47.52197265625,"response_time":1675359821057.59},{"trial":13,"action":1,"button_pressed":4,"time_out":false,"dwell_time":64.56494140625,"response_time":1675359821357.26},{"trial":13,"action":1,"button_pressed":3,"time_out":false,"dwell_time":48.22802734375,"response_time":1675359821907.42},{"trial":13,"action":9,"button_pressed":-1,"time_out":false,"dwell_time":64.887939453125,"response_time":1675359822374.7}]}