{"meta_data":{"additional_headers":{},"game_name":"Recollect","version":"2.53.01","user_name":"50","organization":"braingamecenter","study":"mpl2_2022_11","session_number":0,"device_id":"74342D95-EE82-45E3-8ADF-48FB3203C5DD"},"data":[{"trial":0,"action":1,"button_pressed":10,"time_out":false,"dwell_time":14.483154296875,"response_time":1678473003591.96},{"trial":0,"action":1,"button_pressed":7,"time_out":false,"dwell_time":47.927001953125,"response_time":1678473004275.22},{"trial":0,"action":9,"button_pressed":-1,"time_out":false,"dwell_time":75.239990234375,"response_time":1678473005102.14},{"trial":1,"action":1,"button_pressed":3,"time_out":false,"dwell_time":49.009033203125,"response_time":1678473014588.67},{"trial":1,"action":1,"button_pressed":9,"time_out":false,"dwell_time":64.9560546875,"response_time":1678473014921.24},{"trial":1,"action":1,"button_pressed":7,"time_out":false,"dwell_time":14.280029296875,"response_time":1678473015371.48},{"trial":1,"action":9,"button_pressed":-1,"time_out":false,"dwell_time":48.583984375,"response_time":1678473016204.5},{"trial":2,"action":1,"button_pressed":4,"time_out":false,"dwell_time":64.736083984375,"response_time":1678473028333.97},{"trial":2,"action":1,"button_pressed":2,"time_out":false,"dwell_time":80.384033203125,"response_time":1678473028882.76},{"trial":2,"action":1,"button_pressed":7,"time_out":false,"dwell_time":48.012939453125,"response_time":1678473029532.89},{"trial":2,"action":1,"button_pressed":3,"time_out":false,"dwell_time":47.367919921875,"response_time":1678473029949.41},{"trial":2,"action":9,"button_pressed":-1,"time_out":false,"dwell_time":98.22705078125,"response_time":1678473030449.37},{"trial":3,"action":1,"button_pressed":1,"time_out":false,"dwell_time":64.444091796875,"response_time":1678473045144.81},{"trial":3,"action":1,"button_pressed":10,"time_out":false,"dwell_time":64.22607421875,"response_time":1678473045510.53},{"trial":3,"action":1,"button_pressed":0,"time_out":false,"dwell_time":63.596923828125,"response_time":1678473045843.87},{"trial":3,"action":1,"button_pressed":9,"time_out":false,"dwell_time":30.791015625,"response_time":1678473046194.19},{"trial":3,"action":1,"button_pressed":5,"time_out":false,"dwell_time":81.401123046875,"response_time":1678473046644.29},{"trial":3,"action":9,"button_pressed":-1,"time_out":false,"dwell_time":114.77001953125,"response_time":1678473047211.13},{"trial":4,"action":1,"button_pressed":1,"time_out":false,"dwell_time":48.095947265625,"response_time":1678473064521.52},{"trial":4,"action":1,"button_pressed":5,"time_out":false,"dwell_time":63.623046875,"response_time":1678473065220.7},{"trial":4,"action":1,"button_pressed":9,"time_out":false,"dwell_time":47.218994140625,"response_time":1678473065820.98},{"trial":4,"action":1,"button_pressed":6,"time_out":false,"dwell_time":81.589111328125,"response_time":1678473066670.92},{"trial":4,"action":1,"button_pressed":7,"time_out":false,"dwell_time":47.905029296875,"response_time":1678473067220.52},{"trial":4,"action":1,"button_pressed":2,"time_out":false,"dwell_time":65.078125,"response_time":1678473067937.26},{"trial":4,"action":9,"button_pressed":-1,"time_out":false,"dwell_time":114.23388671875,"response_time":1678473068770.19},{"trial":5,"action":1,"button_pressed":7,"time_out":false,"dwell_time":48.14208984375,"response_time":1678473086147.67},{"trial":5,"action":1,"button_pressed":3,"time_out":false,"dwell_time":48.35400390625,"response_time":1678473086431.89},{"trial":5,"action":1,"button_pressed":8,"time_out":false,"dwell_time":64.01611328125,"response_time":1678473087480.66},{"trial":5,"action":1,"button_pressed":0,"time_out":false,"dwell_time":81.609130859375,"response_time":1678473087780.46},{"trial":5,"action":1,"button_pressed":4,"time_out":false,"dwell_time":48.86083984375,"response_time":1678473088064.42},{"trial":5,"action":1,"button_pressed":1,"time_out":false,"dwell_time":47.9990234375,"response_time":1678473088446.96},{"trial":5,"action":9,"button_pressed":-1,"time_out":false,"dwell_time":81.5009765625,"response_time":1678473088914.14},{"trial":6,"action":1,"button_pressed":7,"time_out":false,"dwell_time":80.946044921875,"response_time":1678473108857.18},{"trial":6,"action":1,"button_pressed":11,"time_out":false,"dwell_time":64.54296875,"response_time":1678473109056.58},{"trial":6,"action":1,"button_pressed":0,"time_out":false,"dwell_time":64.328125,"response_time":1678473109540.29},{"trial":6,"action":1,"button_pressed":9,"time_out":false,"dwell_time":14.18798828125,"response_time":1678473111173.02},{"trial":6,"action":1,"button_pressed":9,"time_out":false,"dwell_time":30.505126953125,"response_time":1678473117004.09},{"trial":6,"action":1,"button_pressed":3,"time_out":false,"dwell_time":48.9150390625,"response_time":1678473117854.66},{"trial":6,"action":1,"button_pressed":3,"time_out":false,"dwell_time":48.192138671875,"response_time":1678473119836.6},{"trial":6,"action":0,"button_pressed":-1,"time_out":false,"dwell_time":16.556884765625,"response_time":1678473121618.74},{"trial":6,"action":1,"button_pressed":7,"time_out":false,"dwell_time":64.27294921875,"response_time":1678473122385.31},{"trial":6,"action":1,"button_pressed":11,"time_out":false,"dwell_time":65.109130859375,"response_time":1678473122619.19},{"trial":6,"action":1,"button_pressed":0,"time_out":false,"dwell_time":30.705078125,"response_time":1678473124218.42},{"trial":6,"action":1,"button_pressed":9,"time_out":false,"dwell_time":64.119873046875,"response_time":1678473125418.19},{"trial":6,"action":1,"button_pressed":3,"time_out":false,"dwell_time":48.7041015625,"response_time":1678473125968.59},{"trial":6,"action":1,"button_pressed":5,"time_out":false,"dwell_time":48.177001953125,"response_time":1678473127068.3},{"trial":6,"action":1,"button_pressed":6,"time_out":false,"dwell_time":30.73193359375,"response_time":1678473128034},{"trial":6,"action":0,"button_pressed":-1,"time_out":false,"dwell_time":64.626220703125,"response_time":1678473130033.02},{"trial":6,"action":1,"button_pressed":7,"time_out":false,"dwell_time":64.251953125,"response_time":1678473130766.68},{"trial":6,"action":1,"button_pressed":11,"time_out":false,"dwell_time":31.39013671875,"response_time":1678473130983.81},{"trial":6,"action":1,"button_pressed":0,"time_out":false,"dwell_time":14.19677734375,"response_time":1678473131416.13},{"trial":6,"action":1,"button_pressed":3,"time_out":false,"dwell_time":31.416015625,"response_time":1678473131815.85},{"trial":6,"action":1,"button_pressed":9,"time_out":false,"dwell_time":49.72802734375,"response_time":1678473132166.06},{"trial":6,"action":1,"button_pressed":5,"time_out":false,"dwell_time":48.22900390625,"response_time":1678473132549.11},{"trial":6,"action":1,"button_pressed":6,"time_out":false,"dwell_time":31.360107421875,"response_time":1678473132949.73},{"trial":6,"action":9,"button_pressed":-1,"time_out":false,"dwell_time":65.883056640625,"response_time":1678473133500.62},{"trial":7,"action":1,"button_pressed":3,"time_out":false,"dwell_time":82.092041015625,"response_time":1678473155875.22},{"trial":7,"action":1,"button_pressed":1,"time_out":false,"dwell_time":31.47802734375,"response_time":1678473156191.99},{"trial":7,"action":1,"button_pressed":8,"time_out":false,"dwell_time":64.67578125,"response_time":1678473157974.2},{"trial":7,"action":1,"button_pressed":5,"time_out":false,"dwell_time":64.6240234375,"response_time":1678473158407.44},{"trial":7,"action":1,"button_pressed":7,"time_out":false,"dwell_time":48.093017578125,"response_time":1678473159556.86},{"trial":7,"action":1,"button_pressed":0,"time_out":false,"dwell_time":98.33203125,"response_time":1678473160056.89},{"trial":7,"action":1,"button_pressed":9,"time_out":false,"dwell_time":64.122802734375,"response_time":1678473160490.04},{"trial":7,"action":9,"button_pressed":-1,"time_out":false,"dwell_time":148.066162109375,"response_time":1678473161057.16},{"trial":8,"action":1,"button_pressed":2,"time_out":false,"dwell_time":81.8330078125,"response_time":1678473183565.99},{"trial":8,"action":0,"button_pressed":-1,"time_out":false,"dwell_time":48.468017578125,"response_time":1678473185598.82},{"trial":8,"action":1,"button_pressed":8,"time_out":false,"dwell_time":48.31005859375,"response_time":1678473186382.08},{"trial":8,"action":1,"button_pressed":9,"time_out":false,"dwell_time":81.505126953125,"response_time":1678473186831.51},{"trial":8,"action":1,"button_pressed":10,"time_out":false,"dwell_time":47.6669921875,"response_time":1678473187780.88},{"trial":8,"action":0,"button_pressed":-1,"time_out":false,"dwell_time":48.43505859375,"response_time":1678473189630.64},{"trial":8,"action":1,"button_pressed":8,"time_out":false,"dwell_time":47.531982421875,"response_time":1678473190080.22},{"trial":8,"action":1,"button_pressed":9,"time_out":false,"dwell_time":64.786865234375,"response_time":1678473190480.29},{"trial":8,"action":1,"button_pressed":2,"time_out":false,"dwell_time":114.629150390625,"response_time":1678473191613.03},{"trial":8,"action":1,"button_pressed":10,"time_out":false,"dwell_time":47.64794921875,"response_time":1678473192063.51},{"trial":8,"action":1,"button_pressed":3,"time_out":false,"dwell_time":31.529052734375,"response_time":1678473195695.9},{"trial":8,"action":1,"button_pressed":1,"time_out":false,"dwell_time":48.2001953125,"response_time":1678473196812.05},{"trial":8,"action":1,"button_pressed":5,"time_out":false,"dwell_time":97.550048828125,"response_time":1678473201892.43},{"trial":8,"action":1,"button_pressed":6,"time_out":false,"dwell_time":48.096923828125,"response_time":1678473202810.13},{"trial":8,"action":9,"button_pressed":-1,"time_out":false,"dwell_time":64.179931640625,"response_time":1678473204042.3},{"trial":9,"action":1,"button_pressed":4,"time_out":false,"dwell_time":64.2060546875,"response_time":1678473221686.83},{"trial":9,"action":1,"button_pressed":11,"time_out":false,"dwell_time":64.551025390625,"response_time":1678473222203.15},{"trial":9,"action":1,"button_pressed":3,"time_out":false,"dwell_time":48.18603515625,"response_time":1678473222702.73},{"trial":9,"action":1,"button_pressed":2,"time_out":false,"dwell_time":64.305908203125,"response_time":1678473223168.9},{"trial":9,"action":1,"button_pressed":10,"time_out":false,"dwell_time":63.530029296875,"response_time":1678473223552.02},{"trial":9,"action":1,"button_pressed":6,"time_out":false,"dwell_time":47.635986328125,"response_time":1678473223986.41},{"trial":9,"action":9,"button_pressed":-1,"time_out":false,"dwell_time":31.031982421875,"response_time":1678473224469.34},{"trial":10,"action":1,"button_pressed":4,"time_out":false,"dwell_time":65.1669921875,"response_time":1678473244429.31},{"trial":10,"action":1,"button_pressed":11,"time_out":false,"dwell_time":30.39404296875,"response_time":1678473244978.82},{"trial":10,"action":1,"button_pressed":6,"time_out":false,"dwell_time":48.194091796875,"response_time":1678473245595.61},{"trial":10,"action":1,"button_pressed":0,"time_out":false,"dwell_time":47.8291015625,"response_time":1678473246711.67},{"trial":10,"action":1,"button_pressed":2,"time_out":false,"dwell_time":81.75390625,"response_time":1678473247194.97},{"trial":10,"action":1,"button_pressed":10,"time_out":false,"dwell_time":31.259033203125,"response_time":1678473247711.18},{"trial":10,"action":1,"button_pressed":8,"time_out":false,"dwell_time":30.990966796875,"response_time":1678473248044.51},{"trial":10,"action":1,"button_pressed":1,"time_out":false,"dwell_time":14.5810546875,"response_time":1678473249044.7},{"trial":10,"action":9,"button_pressed":-1,"time_out":false,"dwell_time":82.362060546875,"response_time":1678473249778.18},{"trial":11,"action":1,"button_pressed":8,"time_out":false,"dwell_time":81.39892578125,"response_time":1678473269504.03},{"trial":11,"action":1,"button_pressed":5,"time_out":false,"dwell_time":97.735107421875,"response_time":1678473269854.41},{"trial":11,"action":1,"button_pressed":3,"time_out":false,"dwell_time":64.3369140625,"response_time":1678473270787.35},{"trial":11,"action":1,"button_pressed":0,"time_out":false,"dwell_time":48.194091796875,"response_time":1678473271054.44},{"trial":11,"action":0,"button_pressed":-1,"time_out":false,"dwell_time":63.806884765625,"response_time":1678473272403.02},{"trial":11,"action":1,"button_pressed":8,"time_out":false,"dwell_time":80.8798828125,"response_time":1678473272820.07},{"trial":11,"action":1,"button_pressed":5,"time_out":false,"dwell_time":63.5869140625,"response_time":1678473273102.45},{"trial":11,"action":1,"button_pressed":1,"time_out":false,"dwell_time":47.7890625,"response_time":1678473274485.64},{"trial":11,"action":1,"button_pressed":3,"time_out":false,"dwell_time":65.090087890625,"response_time":1678473275819.08},{"trial":11,"action":1,"button_pressed":0,"time_out":false,"dwell_time":64.27099609375,"response_time":1678473276135.46},{"trial":11,"action":1,"button_pressed":7,"time_out":false,"dwell_time":48.81689453125,"response_time":1678473277235.48},{"trial":11,"action":1,"button_pressed":11,"time_out":false,"dwell_time":47.955810546875,"response_time":1678473277767.97},{"trial":11,"action":9,"button_pressed":-1,"time_out":false,"dwell_time":47.751953125,"response_time":1678473280300.94}]}