{"meta_data":{"additional_headers":{},"game_name":"Recollect","version":"2.53.01","user_name":"51","organization":"braingamecenter","study":"mpl2_2022_11","session_number":0,"device_id":"74342D95-EE82-45E3-8ADF-48FB3203C5DD"},"data":[{"trial":0,"action":1,"button_pressed":9,"time_out":false,"dwell_time":65.05615234375,"response_time":1678728699603.13},{"trial":0,"action":1,"button_pressed":1,"time_out":false,"dwell_time":81.682861328125,"response_time":1678728700002.96},{"trial":0,"action":9,"button_pressed":-1,"time_out":false,"dwell_time":92.208984375,"response_time":1678728700480.64},{"trial":1,"action":1,"button_pressed":11,"time_out":false,"dwell_time":64.320068359375,"response_time":1678728710266.53},{"trial":1,"action":1,"button_pressed":2,"time_out":false,"dwell_time":63.587158203125,"response_time":1678728710932.12},{"trial":1,"action":1,"button_pressed":9,"time_out":false,"dwell_time":47.849853515625,"response_time":1678728711466.4},{"trial":1,"action":9,"button_pressed":-1,"time_out":false,"dwell_time":47.900146484375,"response_time":1678728712199.35},{"trial":2,"action":1,"button_pressed":10,"time_out":false,"dwell_time":47.533935546875,"response_time":1678728724278.45},{"trial":2,"action":1,"button_pressed":3,"time_out":false,"dwell_time":47.3310546875,"response_time":1678728724644.9},{"trial":2,"action":1,"button_pressed":6,"time_out":false,"dwell_time":31.2509765625,"response_time":1678728724978.78},{"trial":2,"action":1,"button_pressed":8,"time_out":false,"dwell_time":47.844970703125,"response_time":1678728725478.64},{"trial":2,"action":9,"button_pressed":-1,"time_out":false,"dwell_time":65.053955078125,"response_time":1678728726194.5},{"trial":3,"action":1,"button_pressed":3,"time_out":false,"dwell_time":32.27294921875,"response_time":1678728740573.87},{"trial":3,"action":1,"button_pressed":8,"time_out":false,"dwell_time":31.98388671875,"response_time":1678728741040.25},{"trial":3,"action":1,"button_pressed":10,"time_out":false,"dwell_time":47.819091796875,"response_time":1678728744255.97},{"trial":3,"action":1,"button_pressed":4,"time_out":false,"dwell_time":47.363037109375,"response_time":1678728744505.3},{"trial":3,"action":1,"button_pressed":11,"time_out":false,"dwell_time":48.649169921875,"response_time":1678728745039.13},{"trial":3,"action":9,"button_pressed":-1,"time_out":false,"dwell_time":64.029052734375,"response_time":1678728745638.17},{"trial":4,"action":1,"button_pressed":7,"time_out":false,"dwell_time":47.73388671875,"response_time":1678728760400.9},{"trial":4,"action":1,"button_pressed":4,"time_out":false,"dwell_time":81.0791015625,"response_time":1678728760832.92},{"trial":4,"action":1,"button_pressed":11,"time_out":false,"dwell_time":64.06591796875,"response_time":1678728761282.84},{"trial":4,"action":1,"button_pressed":3,"time_out":false,"dwell_time":81.81103515625,"response_time":1678728761683.33},{"trial":4,"action":1,"button_pressed":10,"time_out":false,"dwell_time":64.260009765625,"response_time":1678728762015.87},{"trial":4,"action":9,"button_pressed":-1,"time_out":false,"dwell_time":49.550048828125,"response_time":1678728763267.32},{"trial":5,"action":1,"button_pressed":6,"time_out":false,"dwell_time":48.114990234375,"response_time":1678728780243.97},{"trial":5,"action":1,"button_pressed":5,"time_out":false,"dwell_time":47.059814453125,"response_time":1678728780660.46},{"trial":5,"action":1,"button_pressed":0,"time_out":false,"dwell_time":48.203125,"response_time":1678728781194.34},{"trial":5,"action":1,"button_pressed":11,"time_out":false,"dwell_time":64.647216796875,"response_time":1678728781693.61},{"trial":5,"action":1,"button_pressed":8,"time_out":false,"dwell_time":64.966064453125,"response_time":1678728782193.4},{"trial":5,"action":1,"button_pressed":4,"time_out":false,"dwell_time":64.409912109375,"response_time":1678728782642.64},{"trial":5,"action":9,"button_pressed":-1,"time_out":false,"dwell_time":80.7919921875,"response_time":1678728783659.57},{"trial":6,"action":1,"button_pressed":11,"time_out":false,"dwell_time":64.787109375,"response_time":1678728803436.73},{"trial":6,"action":1,"button_pressed":4,"time_out":false,"dwell_time":81.005126953125,"response_time":1678728803869.2},{"trial":6,"action":1,"button_pressed":3,"time_out":false,"dwell_time":47.387939453125,"response_time":1678728804252.83},{"trial":6,"action":1,"button_pressed":10,"time_out":false,"dwell_time":64.10205078125,"response_time":1678728804669.61},{"trial":6,"action":1,"button_pressed":2,"time_out":false,"dwell_time":63.487060546875,"response_time":1678728805135.44},{"trial":6,"action":1,"button_pressed":8,"time_out":false,"dwell_time":48.055908203125,"response_time":1678728805569.11},{"trial":6,"action":1,"button_pressed":1,"time_out":false,"dwell_time":48.22607421875,"response_time":1678728806019.08},{"trial":6,"action":9,"button_pressed":-1,"time_out":false,"dwell_time":63.843994140625,"response_time":1678728807518.51},{"trial":7,"action":1,"button_pressed":0,"time_out":false,"dwell_time":63.975830078125,"response_time":1678728829461.36},{"trial":7,"action":1,"button_pressed":8,"time_out":false,"dwell_time":64.075927734375,"response_time":1678728829844.21},{"trial":7,"action":1,"button_pressed":9,"time_out":false,"dwell_time":47.219970703125,"response_time":1678728831544.2},{"trial":7,"action":1,"button_pressed":5,"time_out":false,"dwell_time":65.006103515625,"response_time":1678728831994.26},{"trial":7,"action":1,"button_pressed":3,"time_out":false,"dwell_time":48.209228515625,"response_time":1678728832477.93},{"trial":7,"action":1,"button_pressed":7,"time_out":false,"dwell_time":64.068115234375,"response_time":1678728835043.31},{"trial":7,"action":1,"button_pressed":4,"time_out":false,"dwell_time":80.928955078125,"response_time":1678728838175.65},{"trial":7,"action":1,"button_pressed":2,"time_out":false,"dwell_time":81.1708984375,"response_time":1678728838508.25},{"trial":7,"action":9,"button_pressed":-1,"time_out":false,"dwell_time":82.640869140625,"response_time":1678728839059.59},{"trial":8,"action":1,"button_pressed":4,"time_out":false,"dwell_time":47.883056640625,"response_time":1678728861135.91},{"trial":8,"action":1,"button_pressed":11,"time_out":false,"dwell_time":64.466064453125,"response_time":1678728861567.67},{"trial":8,"action":1,"button_pressed":7,"time_out":false,"dwell_time":49.126953125,"response_time":1678728861934.46},{"trial":8,"action":1,"button_pressed":0,"time_out":false,"dwell_time":64.23291015625,"response_time":1678728862433.89},{"trial":8,"action":1,"button_pressed":2,"time_out":false,"dwell_time":81.910888671875,"response_time":1678728862851.26},{"trial":8,"action":1,"button_pressed":3,"time_out":false,"dwell_time":81.810791015625,"response_time":1678728863684.37},{"trial":8,"action":1,"button_pressed":1,"time_out":false,"dwell_time":47.39794921875,"response_time":1678728864050.56},{"trial":8,"action":1,"button_pressed":9,"time_out":false,"dwell_time":64.34814453125,"response_time":1678728864600.06},{"trial":8,"action":9,"button_pressed":-1,"time_out":false,"dwell_time":47.574951171875,"response_time":1678728866383.57},{"trial":9,"action":1,"button_pressed":3,"time_out":false,"dwell_time":47.322998046875,"response_time":1678728883911.15},{"trial":9,"action":1,"button_pressed":7,"time_out":false,"dwell_time":64.055908203125,"response_time":1678728884377.54},{"trial":9,"action":1,"button_pressed":4,"time_out":false,"dwell_time":81.52294921875,"response_time":1678728884827.55},{"trial":9,"action":1,"button_pressed":10,"time_out":false,"dwell_time":64.2109375,"response_time":1678728885226.89},{"trial":9,"action":1,"button_pressed":2,"time_out":false,"dwell_time":63.626953125,"response_time":1678728885626.71},{"trial":9,"action":1,"button_pressed":9,"time_out":false,"dwell_time":47.127197265625,"response_time":1678728886043.56},{"trial":9,"action":9,"button_pressed":-1,"time_out":false,"dwell_time":48.48095703125,"response_time":1678728887177.1},{"trial":10,"action":1,"button_pressed":1,"time_out":false,"dwell_time":81.64794921875,"response_time":1678728907287.17},{"trial":10,"action":1,"button_pressed":9,"time_out":false,"dwell_time":81.282958984375,"response_time":1678728907620.42},{"trial":10,"action":1,"button_pressed":7,"time_out":false,"dwell_time":63.954833984375,"response_time":1678728907969.54},{"trial":10,"action":1,"button_pressed":2,"time_out":false,"dwell_time":80.656982421875,"response_time":1678728910719.37},{"trial":10,"action":1,"button_pressed":5,"time_out":false,"dwell_time":64.191162109375,"response_time":1678728912901.86},{"trial":10,"action":1,"button_pressed":11,"time_out":false,"dwell_time":46.592041015625,"response_time":1678728913401.62},{"trial":10,"action":1,"button_pressed":3,"time_out":false,"dwell_time":65.055908203125,"response_time":1678728913868.33},{"trial":10,"action":9,"button_pressed":-1,"time_out":false,"dwell_time":49.31494140625,"response_time":1678728914602.3},{"trial":11,"action":1,"button_pressed":9,"time_out":false,"dwell_time":65.241943359375,"response_time":1678728936911.12},{"trial":11,"action":1,"button_pressed":7,"time_out":false,"dwell_time":64.10595703125,"response_time":1678728937394.24},{"trial":11,"action":1,"button_pressed":3,"time_out":false,"dwell_time":63.531005859375,"response_time":1678728937893.45},{"trial":11,"action":1,"button_pressed":10,"time_out":false,"dwell_time":64.05712890625,"response_time":1678728938310.62},{"trial":11,"action":1,"button_pressed":4,"time_out":false,"dwell_time":80.963134765625,"response_time":1678728939142.98},{"trial":11,"action":1,"button_pressed":8,"time_out":false,"dwell_time":63.408935546875,"response_time":1678728939409.58},{"trial":11,"action":1,"button_pressed":5,"time_out":false,"dwell_time":65.027099609375,"response_time":1678728939727.01},{"trial":11,"action":1,"button_pressed":11,"time_out":false,"dwell_time":46.86279296875,"response_time":1678728940243.09},{"trial":11,"action":9,"button_pressed":-1,"time_out":false,"dwell_time":63.5810546875,"response_time":1678728941942.78},{"trial":12,"action":1,"button_pressed":5,"time_out":false,"dwell_time":47.4599609375,"response_time":1678728964068.91},{"trial":12,"action":1,"button_pressed":11,"time_out":false,"dwell_time":63.613037109375,"response_time":1678728964684.97},{"trial":12,"action":1,"button_pressed":6,"time_out":false,"dwell_time":63.964111328125,"response_time":1678728965034.86},{"trial":12,"action":1,"button_pressed":4,"time_out":false,"dwell_time":64.912841796875,"response_time":1678728967851.13},{"trial":12,"action":1,"button_pressed":1,"time_out":false,"dwell_time":48.077880859375,"response_time":1678728968251.7},{"trial":12,"action":1,"button_pressed":10,"time_out":false,"dwell_time":64.051025390625,"response_time":1678728968883.52},{"trial":12,"action":1,"button_pressed":7,"time_out":false,"dwell_time":31.281982421875,"response_time":1678728969333.99},{"trial":12,"action":1,"button_pressed":0,"time_out":false,"dwell_time":64.27783203125,"response_time":1678728969816.64},{"trial":12,"action":9,"button_pressed":-1,"time_out":false,"dwell_time":48.22705078125,"response_time":1678728970584.43}]}