{"meta_data":{"additional_headers":{},"game_name":"Recollect","version":"2.53.01","user_name":"52","organization":"braingamecenter","study":"mpl2_2022_11","session_number":0,"device_id":"74342D95-EE82-45E3-8ADF-48FB3203C5DD"},"data":[{"trial":0,"action":1,"button_pressed":0,"time_out":false,"dwell_time":65.108154296875,"response_time":1678737378648.08},{"trial":0,"action":1,"button_pressed":6,"time_out":false,"dwell_time":48.06396484375,"response_time":1678737379280.89},{"trial":0,"action":9,"button_pressed":-1,"time_out":false,"dwell_time":93.052001953125,"response_time":1678737381091.77},{"trial":1,"action":1,"button_pressed":10,"time_out":false,"dwell_time":64.5,"response_time":1678737390560.08},{"trial":1,"action":1,"button_pressed":0,"time_out":false,"dwell_time":13.926025390625,"response_time":1678737391076.61},{"trial":1,"action":1,"button_pressed":6,"time_out":false,"dwell_time":64.68603515625,"response_time":1678737391726.71},{"trial":1,"action":9,"button_pressed":-1,"time_out":false,"dwell_time":81.671142578125,"response_time":1678737396108.6},{"trial":2,"action":1,"button_pressed":10,"time_out":false,"dwell_time":64.446044921875,"response_time":1678737408287.29},{"trial":2,"action":1,"button_pressed":3,"time_out":false,"dwell_time":81.868896484375,"response_time":1678737408854.3},{"trial":2,"action":1,"button_pressed":6,"time_out":false,"dwell_time":63.412841796875,"response_time":1678737409270.2},{"trial":2,"action":1,"button_pressed":8,"time_out":false,"dwell_time":81.02099609375,"response_time":1678737409903.4},{"trial":2,"action":9,"button_pressed":-1,"time_out":false,"dwell_time":98.071044921875,"response_time":1678737410887.46},{"trial":3,"action":1,"button_pressed":6,"time_out":false,"dwell_time":31.48388671875,"response_time":1678737425665.86},{"trial":3,"action":1,"button_pressed":3,"time_out":false,"dwell_time":81.466064453125,"response_time":1678737426131.74},{"trial":3,"action":1,"button_pressed":8,"time_out":false,"dwell_time":80.8408203125,"response_time":1678737426681.11},{"trial":3,"action":1,"button_pressed":11,"time_out":false,"dwell_time":47.1748046875,"response_time":1678737427331.07},{"trial":3,"action":1,"button_pressed":0,"time_out":false,"dwell_time":64.14501953125,"response_time":1678737428047.73},{"trial":3,"action":9,"button_pressed":-1,"time_out":false,"dwell_time":131.4951171875,"response_time":1678737428897.34},{"trial":4,"action":1,"button_pressed":6,"time_out":false,"dwell_time":47.427001953125,"response_time":1678737447857.68},{"trial":4,"action":1,"button_pressed":10,"time_out":false,"dwell_time":81.722900390625,"response_time":1678737448407.56},{"trial":4,"action":1,"button_pressed":2,"time_out":false,"dwell_time":81.72509765625,"response_time":1678737449040.89},{"trial":4,"action":1,"button_pressed":7,"time_out":false,"dwell_time":63.491943359375,"response_time":1678737449806.47},{"trial":4,"action":1,"button_pressed":9,"time_out":false,"dwell_time":47.223876953125,"response_time":1678737450340.01},{"trial":4,"action":1,"button_pressed":3,"time_out":false,"dwell_time":31.2490234375,"response_time":1678737450923.73},{"trial":4,"action":9,"button_pressed":-1,"time_out":false,"dwell_time":97.8720703125,"response_time":1678737451956.16},{"trial":5,"action":1,"button_pressed":6,"time_out":false,"dwell_time":64.29296875,"response_time":1678737469383.79},{"trial":5,"action":1,"button_pressed":5,"time_out":false,"dwell_time":81.081787109375,"response_time":1678737470199.48},{"trial":5,"action":1,"button_pressed":0,"time_out":false,"dwell_time":63.5888671875,"response_time":1678737470765.91},{"trial":5,"action":1,"button_pressed":11,"time_out":false,"dwell_time":64.344970703125,"response_time":1678737471532.37},{"trial":5,"action":1,"button_pressed":8,"time_out":false,"dwell_time":98.058837890625,"response_time":1678737472216.04},{"trial":5,"action":1,"button_pressed":4,"time_out":false,"dwell_time":64.4541015625,"response_time":1678737472915.3},{"trial":5,"action":9,"button_pressed":-1,"time_out":false,"dwell_time":98.14208984375,"response_time":1678737474216.04},{"trial":6,"action":1,"button_pressed":6,"time_out":false,"dwell_time":81.5009765625,"response_time":1678737494158.86},{"trial":6,"action":1,"button_pressed":10,"time_out":false,"dwell_time":80.10205078125,"response_time":1678737494674.52},{"trial":6,"action":1,"button_pressed":11,"time_out":false,"dwell_time":64.35400390625,"response_time":1678737495257.71},{"trial":6,"action":1,"button_pressed":4,"time_out":false,"dwell_time":80.468994140625,"response_time":1678737495991.02},{"trial":6,"action":1,"button_pressed":8,"time_out":false,"dwell_time":80.916015625,"response_time":1678737497024.54},{"trial":6,"action":1,"button_pressed":3,"time_out":false,"dwell_time":65.416015625,"response_time":1678737499456.28},{"trial":6,"action":1,"button_pressed":5,"time_out":false,"dwell_time":64.197021484375,"response_time":1678737500105.98},{"trial":6,"action":9,"button_pressed":-1,"time_out":false,"dwell_time":64.789794921875,"response_time":1678737500972.76},{"trial":7,"action":1,"button_pressed":9,"time_out":false,"dwell_time":82.00390625,"response_time":1678737523498.98},{"trial":7,"action":1,"button_pressed":2,"time_out":false,"dwell_time":80.24609375,"response_time":1678737524131.1},{"trial":7,"action":1,"button_pressed":8,"time_out":false,"dwell_time":96.941162109375,"response_time":1678737524797.6},{"trial":7,"action":1,"button_pressed":4,"time_out":false,"dwell_time":97.81396484375,"response_time":1678737525330.67},{"trial":7,"action":1,"button_pressed":10,"time_out":false,"dwell_time":80.644775390625,"response_time":1678737525880.57},{"trial":7,"action":1,"button_pressed":1,"time_out":false,"dwell_time":81.1650390625,"response_time":1678737526446.97},{"trial":7,"action":1,"button_pressed":0,"time_out":false,"dwell_time":81.7099609375,"response_time":1678737527014.15},{"trial":7,"action":1,"button_pressed":5,"time_out":false,"dwell_time":64.56298828125,"response_time":1678737527580.09},{"trial":7,"action":9,"button_pressed":-1,"time_out":false,"dwell_time":81.9580078125,"response_time":1678737528364.14},{"trial":8,"action":1,"button_pressed":11,"time_out":false,"dwell_time":65.39990234375,"response_time":1678737550756.35},{"trial":8,"action":1,"button_pressed":3,"time_out":false,"dwell_time":65.0439453125,"response_time":1678737551289.16},{"trial":8,"action":1,"button_pressed":9,"time_out":false,"dwell_time":81.492919921875,"response_time":1678737551722.46},{"trial":8,"action":1,"button_pressed":7,"time_out":false,"dwell_time":47.619140625,"response_time":1678737552238.62},{"trial":8,"action":1,"button_pressed":4,"time_out":false,"dwell_time":80.843994140625,"response_time":1678737552972.29},{"trial":8,"action":1,"button_pressed":2,"time_out":false,"dwell_time":50.497802734375,"response_time":1678737553371.6},{"trial":8,"action":1,"button_pressed":10,"time_out":false,"dwell_time":47.052978515625,"response_time":1678737553838.04},{"trial":8,"action":1,"button_pressed":1,"time_out":false,"dwell_time":98.298095703125,"response_time":1678737554554.77},{"trial":8,"action":9,"button_pressed":-1,"time_out":false,"dwell_time":82.615966796875,"response_time":1678737556255.02},{"trial":9,"action":1,"button_pressed":8,"time_out":false,"dwell_time":97.65087890625,"response_time":1678737580845.9},{"trial":9,"action":1,"button_pressed":10,"time_out":false,"dwell_time":63.427001953125,"response_time":1678737581344.8},{"trial":9,"action":1,"button_pressed":1,"time_out":false,"dwell_time":48.787109375,"response_time":1678737584228.32},{"trial":9,"action":1,"button_pressed":2,"time_out":false,"dwell_time":64.180908203125,"response_time":1678737587909.91},{"trial":9,"action":1,"button_pressed":4,"time_out":false,"dwell_time":47.905029296875,"response_time":1678737588309.54},{"trial":9,"action":1,"button_pressed":7,"time_out":false,"dwell_time":64.95703125,"response_time":1678737589142.83},{"trial":9,"action":9,"button_pressed":-1,"time_out":false,"dwell_time":98.72900390625,"response_time":1678737589826.65},{"trial":10,"action":1,"button_pressed":7,"time_out":false,"dwell_time":114.370849609375,"response_time":1678737614317.38},{"trial":10,"action":1,"button_pressed":1,"time_out":false,"dwell_time":96.903076171875,"response_time":1678737614983.6},{"trial":10,"action":1,"button_pressed":0,"time_out":false,"dwell_time":97.81103515625,"response_time":1678737615566.86},{"trial":10,"action":1,"button_pressed":10,"time_out":false,"dwell_time":131.48291015625,"response_time":1678737616133.91},{"trial":10,"action":1,"button_pressed":3,"time_out":false,"dwell_time":63.432861328125,"response_time":1678737616866.36},{"trial":10,"action":1,"button_pressed":2,"time_out":false,"dwell_time":131.845947265625,"response_time":1678737617616.76},{"trial":10,"action":9,"button_pressed":-1,"time_out":false,"dwell_time":132.31494140625,"response_time":1678737618317.09},{"trial":11,"action":1,"button_pressed":6,"time_out":false,"dwell_time":80.4599609375,"response_time":1678737638209.25},{"trial":11,"action":1,"button_pressed":1,"time_out":false,"dwell_time":130.89892578125,"response_time":1678737639509.13},{"trial":11,"action":1,"button_pressed":8,"time_out":false,"dwell_time":114.298828125,"response_time":1678737640091.88},{"trial":11,"action":1,"button_pressed":5,"time_out":false,"dwell_time":130.614013671875,"response_time":1678737641041.95},{"trial":11,"action":1,"button_pressed":7,"time_out":false,"dwell_time":164.288818359375,"response_time":1678737642341.65},{"trial":11,"action":1,"button_pressed":0,"time_out":false,"dwell_time":80.3720703125,"response_time":1678737643190.67},{"trial":11,"action":1,"button_pressed":7,"time_out":false,"dwell_time":164.672119140625,"response_time":1678737643857.61},{"trial":11,"action":1,"button_pressed":11,"time_out":false,"dwell_time":64.4111328125,"response_time":1678737644656.69},{"trial":11,"action":9,"button_pressed":-1,"time_out":false,"dwell_time":16.736083984375,"response_time":1678737645289.94},{"trial":12,"action":1,"button_pressed":7,"time_out":false,"dwell_time":63.80712890625,"response_time":1678737664899.98},{"trial":12,"action":1,"button_pressed":11,"time_out":false,"dwell_time":80.758056640625,"response_time":1678737665332.97},{"trial":12,"action":1,"button_pressed":0,"time_out":false,"dwell_time":48.2919921875,"response_time":1678737666583.02},{"trial":12,"action":1,"button_pressed":4,"time_out":false,"dwell_time":80.93701171875,"response_time":1678737667116.3},{"trial":12,"action":1,"button_pressed":5,"time_out":false,"dwell_time":97.739990234375,"response_time":1678737667932.16},{"trial":12,"action":1,"button_pressed":6,"time_out":false,"dwell_time":113.989013671875,"response_time":1678737668848.97},{"trial":12,"action":1,"button_pressed":9,"time_out":false,"dwell_time":97.587158203125,"response_time":1678737669398.88},{"trial":12,"action":9,"button_pressed":-1,"time_out":false,"dwell_time":131.4638671875,"response_time":1678737670215.74}]}