{"meta_data":{"additional_headers":{},"game_name":"Recollect","version":"2.53.01","user_name":"53","organization":"braingamecenter","study":"mpl2_2022_11","session_number":0,"device_id":"74342D95-EE82-45E3-8ADF-48FB3203C5DD"},"data":[{"trial":0,"action":1,"button_pressed":11,"time_out":false,"dwell_time":48.74609375,"response_time":1678744270484.28},{"trial":0,"action":1,"button_pressed":8,"time_out":false,"dwell_time":48.712890625,"response_time":1678744271067.44},{"trial":0,"action":9,"button_pressed":-1,"time_out":false,"dwell_time":74.10791015625,"response_time":1678744271725.91},{"trial":1,"action":1,"button_pressed":7,"time_out":false,"dwell_time":80.4580078125,"response_time":1678744280913.25},{"trial":1,"action":1,"button_pressed":3,"time_out":false,"dwell_time":64.215087890625,"response_time":1678744281463.5},{"trial":1,"action":1,"button_pressed":2,"time_out":false,"dwell_time":64.223876953125,"response_time":1678744281980.01},{"trial":1,"action":9,"button_pressed":-1,"time_out":false,"dwell_time":98.85302734375,"response_time":1678744282496.99},{"trial":2,"action":1,"button_pressed":11,"time_out":false,"dwell_time":81.073974609375,"response_time":1678744294609.52},{"trial":2,"action":1,"button_pressed":0,"time_out":false,"dwell_time":48.1630859375,"response_time":1678744295092.99},{"trial":2,"action":1,"button_pressed":4,"time_out":false,"dwell_time":81.0009765625,"response_time":1678744295658.37},{"trial":2,"action":9,"button_pressed":-1,"time_out":false,"dwell_time":114.906982421875,"response_time":1678744296192},{"trial":3,"action":1,"button_pressed":7,"time_out":false,"dwell_time":48.885009765625,"response_time":1678744309205.09},{"trial":3,"action":1,"button_pressed":9,"time_out":false,"dwell_time":64.72802734375,"response_time":1678744309804.32},{"trial":3,"action":1,"button_pressed":0,"time_out":false,"dwell_time":64.531005859375,"response_time":1678744310353.62},{"trial":3,"action":1,"button_pressed":4,"time_out":false,"dwell_time":31.345947265625,"response_time":1678744310754.42},{"trial":3,"action":9,"button_pressed":-1,"time_out":false,"dwell_time":48.76904296875,"response_time":1678744311404.3},{"trial":4,"action":1,"button_pressed":9,"time_out":false,"dwell_time":48.91015625,"response_time":1678744325866.53},{"trial":4,"action":1,"button_pressed":0,"time_out":false,"dwell_time":64.211181640625,"response_time":1678744326448.85},{"trial":4,"action":1,"button_pressed":2,"time_out":false,"dwell_time":64.828857421875,"response_time":1678744326915.3},{"trial":4,"action":1,"button_pressed":1,"time_out":false,"dwell_time":48.837890625,"response_time":1678744327848.92},{"trial":4,"action":1,"button_pressed":6,"time_out":false,"dwell_time":48.674072265625,"response_time":1678744328282.15},{"trial":4,"action":9,"button_pressed":-1,"time_out":false,"dwell_time":32.696044921875,"response_time":1678744328965.62},{"trial":5,"action":1,"button_pressed":3,"time_out":false,"dwell_time":47.572021484375,"response_time":1678744348125.05},{"trial":5,"action":1,"button_pressed":4,"time_out":false,"dwell_time":65.18603515625,"response_time":1678744348908.26},{"trial":5,"action":1,"button_pressed":6,"time_out":false,"dwell_time":47.77587890625,"response_time":1678744350190.96},{"trial":5,"action":1,"button_pressed":5,"time_out":false,"dwell_time":48.94482421875,"response_time":1678744351274.69},{"trial":5,"action":1,"button_pressed":1,"time_out":false,"dwell_time":80.992919921875,"response_time":1678744353222.8},{"trial":5,"action":1,"button_pressed":7,"time_out":false,"dwell_time":64.887939453125,"response_time":1678744353656.63},{"trial":5,"action":9,"button_pressed":-1,"time_out":false,"dwell_time":65.444091796875,"response_time":1678744354256.98},{"trial":6,"action":1,"button_pressed":5,"time_out":false,"dwell_time":97.84619140625,"response_time":1678744371334.44},{"trial":6,"action":1,"button_pressed":10,"time_out":false,"dwell_time":64.10400390625,"response_time":1678744371850.72},{"trial":6,"action":1,"button_pressed":7,"time_out":false,"dwell_time":80.697021484375,"response_time":1678744372383.92},{"trial":6,"action":1,"button_pressed":0,"time_out":false,"dwell_time":80.02685546875,"response_time":1678744373049.8},{"trial":6,"action":1,"button_pressed":6,"time_out":false,"dwell_time":14.218017578125,"response_time":1678744376215.27},{"trial":6,"action":1,"button_pressed":4,"time_out":false,"dwell_time":48.947998046875,"response_time":1678744376666.33},{"trial":6,"action":1,"button_pressed":8,"time_out":false,"dwell_time":13.731201171875,"response_time":1678744376965.36},{"trial":6,"action":9,"button_pressed":-1,"time_out":false,"dwell_time":15.324951171875,"response_time":1678744378516.21},{"trial":7,"action":1,"button_pressed":3,"time_out":false,"dwell_time":82.06396484375,"response_time":1678744391094.77},{"trial":7,"action":1,"button_pressed":5,"time_out":false,"dwell_time":48.01611328125,"response_time":1678744391577.52},{"trial":7,"action":1,"button_pressed":9,"time_out":false,"dwell_time":48.094970703125,"response_time":1678744392077.36},{"trial":7,"action":1,"button_pressed":2,"time_out":false,"dwell_time":64.9951171875,"response_time":1678744392610.67},{"trial":7,"action":9,"button_pressed":-1,"time_out":false,"dwell_time":64.7939453125,"response_time":1678744393110.4},{"trial":8,"action":1,"button_pressed":6,"time_out":false,"dwell_time":98.5810546875,"response_time":1678744408722.52},{"trial":8,"action":1,"button_pressed":7,"time_out":false,"dwell_time":80.93603515625,"response_time":1678744409138.07},{"trial":8,"action":1,"button_pressed":10,"time_out":false,"dwell_time":64.10693359375,"response_time":1678744409655.22},{"trial":8,"action":1,"button_pressed":4,"time_out":false,"dwell_time":32.126953125,"response_time":1678744410172.04},{"trial":8,"action":1,"button_pressed":1,"time_out":false,"dwell_time":48.698974609375,"response_time":1678744410854.92},{"trial":8,"action":9,"button_pressed":-1,"time_out":false,"dwell_time":80.9169921875,"response_time":1678744411421.23},{"trial":9,"action":1,"button_pressed":3,"time_out":false,"dwell_time":64.515869140625,"response_time":1678744426182.61},{"trial":9,"action":1,"button_pressed":4,"time_out":false,"dwell_time":65.0478515625,"response_time":1678744426649.64},{"trial":9,"action":1,"button_pressed":8,"time_out":false,"dwell_time":48.1669921875,"response_time":1678744427615.77},{"trial":9,"action":1,"button_pressed":10,"time_out":false,"dwell_time":64.68798828125,"response_time":1678744428115.72},{"trial":9,"action":1,"button_pressed":11,"time_out":false,"dwell_time":81.822998046875,"response_time":1678744428649.31},{"trial":9,"action":1,"button_pressed":2,"time_out":false,"dwell_time":47.301025390625,"response_time":1678744431114.46},{"trial":9,"action":9,"button_pressed":-1,"time_out":false,"dwell_time":114.8251953125,"response_time":1678744431715.24}]}