{"meta_data":{"additional_headers":{},"game_name":"Recollect","version":"2.53.01","user_name":"54","organization":"braingamecenter","study":"mpl2_2022_11","session_number":0,"device_id":"74342D95-EE82-45E3-8ADF-48FB3203C5DD"},"data":[{"trial":0,"action":1,"button_pressed":2,"time_out":false,"dwell_time":64.365966796875,"response_time":1678751749462.89},{"trial":0,"action":1,"button_pressed":9,"time_out":false,"dwell_time":64.114013671875,"response_time":1678751750045.76},{"trial":0,"action":9,"button_pressed":-1,"time_out":false,"dwell_time":27.9638671875,"response_time":1678751750873.07},{"trial":1,"action":1,"button_pressed":5,"time_out":false,"dwell_time":98.384033203125,"response_time":1678751760342.68},{"trial":1,"action":1,"button_pressed":8,"time_out":false,"dwell_time":47.14599609375,"response_time":1678751760692.05},{"trial":1,"action":1,"button_pressed":0,"time_out":false,"dwell_time":47.455078125,"response_time":1678751761225.34},{"trial":1,"action":9,"button_pressed":-1,"time_out":false,"dwell_time":114.997802734375,"response_time":1678751763707.98},{"trial":2,"action":1,"button_pressed":5,"time_out":false,"dwell_time":82.05419921875,"response_time":1678751775670.95},{"trial":2,"action":1,"button_pressed":7,"time_out":false,"dwell_time":81.677001953125,"response_time":1678751776170.66},{"trial":2,"action":1,"button_pressed":1,"time_out":false,"dwell_time":64.384033203125,"response_time":1678751776469.86},{"trial":2,"action":1,"button_pressed":9,"time_out":false,"dwell_time":48.73095703125,"response_time":1678751776920.93},{"trial":2,"action":9,"button_pressed":-1,"time_out":false,"dwell_time":64.692138671875,"response_time":1678751777520.5},{"trial":3,"action":1,"button_pressed":5,"time_out":false,"dwell_time":47.55615234375,"response_time":1678751792131.84},{"trial":3,"action":1,"button_pressed":6,"time_out":false,"dwell_time":48.800048828125,"response_time":1678751792682.34},{"trial":3,"action":1,"button_pressed":6,"time_out":false,"dwell_time":64.795166015625,"response_time":1678751793548.08},{"trial":3,"action":1,"button_pressed":6,"time_out":false,"dwell_time":47.864013671875,"response_time":1678751794465.03},{"trial":3,"action":0,"button_pressed":-1,"time_out":false,"dwell_time":47.744873046875,"response_time":1678751795731.06},{"trial":3,"action":1,"button_pressed":5,"time_out":false,"dwell_time":64.25390625,"response_time":1678751796347.21},{"trial":3,"action":1,"button_pressed":9,"time_out":false,"dwell_time":64.23291015625,"response_time":1678751796880.52},{"trial":3,"action":1,"button_pressed":6,"time_out":false,"dwell_time":64.261962890625,"response_time":1678751797246.68},{"trial":3,"action":1,"button_pressed":8,"time_out":false,"dwell_time":64.078857421875,"response_time":1678751797713.54},{"trial":3,"action":1,"button_pressed":7,"time_out":false,"dwell_time":32.1162109375,"response_time":1678751798196.38},{"trial":3,"action":9,"button_pressed":-1,"time_out":false,"dwell_time":48.622802734375,"response_time":1678751799780.38},{"trial":4,"action":1,"button_pressed":0,"time_out":false,"dwell_time":48.177978515625,"response_time":1678751816991.01},{"trial":4,"action":1,"button_pressed":4,"time_out":false,"dwell_time":47.52197265625,"response_time":1678751817256.92},{"trial":4,"action":1,"button_pressed":11,"time_out":false,"dwell_time":64.990966796875,"response_time":1678751817656.9},{"trial":4,"action":1,"button_pressed":3,"time_out":false,"dwell_time":48.864013671875,"response_time":1678751817973.85},{"trial":4,"action":1,"button_pressed":5,"time_out":false,"dwell_time":48.14208984375,"response_time":1678751818323.13},{"trial":4,"action":1,"button_pressed":7,"time_out":false,"dwell_time":48.382080078125,"response_time":1678751818806.86},{"trial":4,"action":9,"button_pressed":-1,"time_out":false,"dwell_time":63.873046875,"response_time":1678751819572.75},{"trial":5,"action":1,"button_pressed":2,"time_out":false,"dwell_time":81.238037109375,"response_time":1678751839283.34},{"trial":5,"action":1,"button_pressed":6,"time_out":false,"dwell_time":31.39306640625,"response_time":1678751839732.74},{"trial":5,"action":1,"button_pressed":9,"time_out":false,"dwell_time":30.56396484375,"response_time":1678751840099.23},{"trial":5,"action":1,"button_pressed":0,"time_out":false,"dwell_time":81.031982421875,"response_time":1678751840516.06},{"trial":5,"action":1,"button_pressed":3,"time_out":false,"dwell_time":30.885009765625,"response_time":1678751840799.12},{"trial":5,"action":1,"button_pressed":10,"time_out":false,"dwell_time":30.509765625,"response_time":1678751841115.57},{"trial":5,"action":1,"button_pressed":7,"time_out":false,"dwell_time":48.23779296875,"response_time":1678751841565.5},{"trial":5,"action":9,"button_pressed":-1,"time_out":false,"dwell_time":18.037109375,"response_time":1678751842699.42},{"trial":6,"action":1,"button_pressed":11,"time_out":false,"dwell_time":47.064208984375,"response_time":1678751864874.6},{"trial":6,"action":1,"button_pressed":6,"time_out":false,"dwell_time":47.882080078125,"response_time":1678751865191.02},{"trial":6,"action":1,"button_pressed":4,"time_out":false,"dwell_time":63.72802734375,"response_time":1678751865574.04},{"trial":6,"action":1,"button_pressed":9,"time_out":false,"dwell_time":48.7919921875,"response_time":1678751865858.47},{"trial":6,"action":1,"button_pressed":7,"time_out":false,"dwell_time":48.590087890625,"response_time":1678751866124.88},{"trial":6,"action":1,"button_pressed":2,"time_out":false,"dwell_time":81.078125,"response_time":1678751866590.22},{"trial":6,"action":1,"button_pressed":10,"time_out":false,"dwell_time":30.635009765625,"response_time":1678751866890.55},{"trial":6,"action":1,"button_pressed":1,"time_out":false,"dwell_time":47.876953125,"response_time":1678751867491.01},{"trial":6,"action":9,"button_pressed":-1,"time_out":false,"dwell_time":31.97802734375,"response_time":1678751870057.51},{"trial":7,"action":1,"button_pressed":0,"time_out":false,"dwell_time":64.39599609375,"response_time":1678751892765.64},{"trial":7,"action":1,"button_pressed":10,"time_out":false,"dwell_time":64.1220703125,"response_time":1678751893764.55},{"trial":7,"action":1,"button_pressed":2,"time_out":false,"dwell_time":48.900146484375,"response_time":1678751894215.57},{"trial":7,"action":1,"button_pressed":7,"time_out":false,"dwell_time":31.35888671875,"response_time":1678751894948.03},{"trial":7,"action":1,"button_pressed":4,"time_out":false,"dwell_time":47.8369140625,"response_time":1678751895414.95},{"trial":7,"action":1,"button_pressed":1,"time_out":false,"dwell_time":48.44482421875,"response_time":1678751900247.19},{"trial":7,"action":1,"button_pressed":3,"time_out":false,"dwell_time":64.43701171875,"response_time":1678751900579.77},{"trial":7,"action":1,"button_pressed":9,"time_out":false,"dwell_time":48.5439453125,"response_time":1678751900763.34},{"trial":7,"action":9,"button_pressed":-1,"time_out":false,"dwell_time":82.240966796875,"response_time":1678751902496.96},{"trial":8,"action":1,"button_pressed":11,"time_out":false,"dwell_time":47.64208984375,"response_time":1678751919739.98},{"trial":8,"action":1,"button_pressed":4,"time_out":false,"dwell_time":81.168212890625,"response_time":1678751920156.62},{"trial":8,"action":1,"button_pressed":6,"time_out":false,"dwell_time":31.3310546875,"response_time":1678751920473.71},{"trial":8,"action":1,"button_pressed":5,"time_out":false,"dwell_time":81.72607421875,"response_time":1678751920873.12},{"trial":8,"action":1,"button_pressed":1,"time_out":false,"dwell_time":64.945068359375,"response_time":1678751921222.89},{"trial":8,"action":1,"button_pressed":10,"time_out":false,"dwell_time":30.412841796875,"response_time":1678751921555.89},{"trial":8,"action":9,"button_pressed":-1,"time_out":false,"dwell_time":31.1279296875,"response_time":1678751922206.1},{"trial":9,"action":1,"button_pressed":7,"time_out":false,"dwell_time":48.48291015625,"response_time":1678751940184.13},{"trial":9,"action":1,"button_pressed":3,"time_out":false,"dwell_time":31.6181640625,"response_time":1678751941166.06},{"trial":9,"action":1,"button_pressed":8,"time_out":false,"dwell_time":31.0419921875,"response_time":1678751941515.8},{"trial":9,"action":1,"button_pressed":0,"time_out":false,"dwell_time":65.16796875,"response_time":1678751942315.84},{"trial":9,"action":1,"button_pressed":4,"time_out":false,"dwell_time":48.947998046875,"response_time":1678751942566.31},{"trial":9,"action":1,"button_pressed":1,"time_out":false,"dwell_time":31.30908203125,"response_time":1678751942982.59},{"trial":9,"action":9,"button_pressed":-1,"time_out":false,"dwell_time":63.884033203125,"response_time":1678751944264.87},{"trial":10,"action":1,"button_pressed":7,"time_out":false,"dwell_time":47.31591796875,"response_time":1678751963941.88},{"trial":10,"action":1,"button_pressed":11,"time_out":false,"dwell_time":46.263916015625,"response_time":1678751964240.94},{"trial":10,"action":1,"button_pressed":3,"time_out":false,"dwell_time":62.7490234375,"response_time":1678751965091.03},{"trial":10,"action":0,"button_pressed":-1,"time_out":false,"dwell_time":30.8310546875,"response_time":1678751966491.19},{"trial":10,"action":1,"button_pressed":7,"time_out":false,"dwell_time":47.56787109375,"response_time":1678751967090.84},{"trial":10,"action":1,"button_pressed":11,"time_out":false,"dwell_time":31.300048828125,"response_time":1678751967323.98},{"trial":10,"action":1,"button_pressed":0,"time_out":false,"dwell_time":64.4560546875,"response_time":1678751967974.23},{"trial":10,"action":1,"button_pressed":9,"time_out":false,"dwell_time":30.434814453125,"response_time":1678751968223.74},{"trial":10,"action":1,"button_pressed":5,"time_out":false,"dwell_time":64.611083984375,"response_time":1678751968690.9},{"trial":10,"action":1,"button_pressed":3,"time_out":false,"dwell_time":63.73779296875,"response_time":1678751969123.07},{"trial":10,"action":1,"button_pressed":6,"time_out":false,"dwell_time":48.642822265625,"response_time":1678751969857.59},{"trial":10,"action":9,"button_pressed":-1,"time_out":false,"dwell_time":65.06005859375,"response_time":1678751970890.57},{"trial":11,"action":1,"button_pressed":4,"time_out":false,"dwell_time":49.214111328125,"response_time":1678751990500.64},{"trial":11,"action":1,"button_pressed":2,"time_out":false,"dwell_time":64.8681640625,"response_time":1678751990766.44},{"trial":11,"action":1,"button_pressed":0,"time_out":false,"dwell_time":81.81689453125,"response_time":1678751991283.07},{"trial":11,"action":1,"button_pressed":1,"time_out":false,"dwell_time":64.56689453125,"response_time":1678751991566.6},{"trial":11,"action":1,"button_pressed":6,"time_out":false,"dwell_time":47.18603515625,"response_time":1678751991832.66},{"trial":11,"action":1,"button_pressed":9,"time_out":false,"dwell_time":31.342041015625,"response_time":1678751992149.23},{"trial":11,"action":1,"button_pressed":5,"time_out":false,"dwell_time":64.4638671875,"response_time":1678751993315.87},{"trial":11,"action":1,"button_pressed":5,"time_out":false,"dwell_time":65.241943359375,"response_time":1678751993832.29},{"trial":11,"action":0,"button_pressed":-1,"time_out":false,"dwell_time":47.532958984375,"response_time":1678751995048.4},{"trial":11,"action":1,"button_pressed":4,"time_out":false,"dwell_time":63.618896484375,"response_time":1678751995981.26},{"trial":11,"action":1,"button_pressed":2,"time_out":false,"dwell_time":80.801025390625,"response_time":1678751996197.99},{"trial":11,"action":1,"button_pressed":0,"time_out":false,"dwell_time":47.197021484375,"response_time":1678751996447.62},{"trial":11,"action":1,"button_pressed":1,"time_out":false,"dwell_time":64.364990234375,"response_time":1678751997497.08},{"trial":11,"action":1,"button_pressed":6,"time_out":false,"dwell_time":48.777099609375,"response_time":1678751997714.96},{"trial":11,"action":1,"button_pressed":9,"time_out":false,"dwell_time":14.509033203125,"response_time":1678751998264.51},{"trial":11,"action":1,"button_pressed":5,"time_out":false,"dwell_time":48.283935546875,"response_time":1678751998647.25},{"trial":11,"action":9,"button_pressed":-1,"time_out":false,"dwell_time":16.5830078125,"response_time":1678751999179.83}]}