{"meta_data":{"additional_headers":{},"game_name":"Recollect","version":"2.53.01","user_name":"56","organization":"braingamecenter","study":"mpl2_2022_11","session_number":0,"device_id":"74342D95-EE82-45E3-8ADF-48FB3203C5DD"},"data":[{"trial":0,"action":1,"button_pressed":1,"time_out":false,"dwell_time":48.219970703125,"response_time":1678901365771.79},{"trial":0,"action":1,"button_pressed":5,"time_out":false,"dwell_time":64.39404296875,"response_time":1678901365987.94},{"trial":0,"action":9,"button_pressed":-1,"time_out":false,"dwell_time":76.0380859375,"response_time":1678901366698.52},{"trial":1,"action":1,"button_pressed":10,"time_out":false,"dwell_time":64.48095703125,"response_time":1678901376100.57},{"trial":1,"action":1,"button_pressed":0,"time_out":false,"dwell_time":80.901123046875,"response_time":1678901376583.6},{"trial":1,"action":1,"button_pressed":6,"time_out":false,"dwell_time":98.148193359375,"response_time":1678901377034.05},{"trial":1,"action":9,"button_pressed":-1,"time_out":false,"dwell_time":63.9599609375,"response_time":1678901377533.7},{"trial":2,"action":1,"button_pressed":5,"time_out":false,"dwell_time":98.6240234375,"response_time":1678901389330.18},{"trial":2,"action":1,"button_pressed":7,"time_out":false,"dwell_time":64.051025390625,"response_time":1678901389662.33},{"trial":2,"action":1,"button_pressed":1,"time_out":false,"dwell_time":47.26904296875,"response_time":1678901390079.38},{"trial":2,"action":1,"button_pressed":9,"time_out":false,"dwell_time":47.381103515625,"response_time":1678901390329.46},{"trial":2,"action":9,"button_pressed":-1,"time_out":false,"dwell_time":16.740966796875,"response_time":1678901390962.28},{"trial":3,"action":1,"button_pressed":5,"time_out":false,"dwell_time":47.572998046875,"response_time":1678901405341.06},{"trial":3,"action":1,"button_pressed":9,"time_out":false,"dwell_time":47.31103515625,"response_time":1678901405790.76},{"trial":3,"action":1,"button_pressed":6,"time_out":false,"dwell_time":63.251953125,"response_time":1678901406123.49},{"trial":3,"action":1,"button_pressed":8,"time_out":false,"dwell_time":47.59716796875,"response_time":1678901406374.13},{"trial":3,"action":1,"button_pressed":7,"time_out":false,"dwell_time":64.848876953125,"response_time":1678901406890.61},{"trial":3,"action":9,"button_pressed":-1,"time_out":false,"dwell_time":64.799072265625,"response_time":1678901407424.19},{"trial":4,"action":1,"button_pressed":1,"time_out":false,"dwell_time":80.56005859375,"response_time":1678901424367.55},{"trial":4,"action":1,"button_pressed":9,"time_out":false,"dwell_time":48.026123046875,"response_time":1678901424618.47},{"trial":4,"action":1,"button_pressed":5,"time_out":false,"dwell_time":64.05908203125,"response_time":1678901425117.19},{"trial":4,"action":1,"button_pressed":6,"time_out":false,"dwell_time":81.679931640625,"response_time":1678901425384.51},{"trial":4,"action":1,"button_pressed":7,"time_out":false,"dwell_time":64.0810546875,"response_time":1678901425717.43},{"trial":4,"action":1,"button_pressed":2,"time_out":false,"dwell_time":30.808837890625,"response_time":1678901427083.69},{"trial":4,"action":9,"button_pressed":-1,"time_out":false,"dwell_time":64.450927734375,"response_time":1678901429199.95},{"trial":5,"action":1,"button_pressed":10,"time_out":false,"dwell_time":63.587158203125,"response_time":1678901448725.83},{"trial":5,"action":1,"button_pressed":1,"time_out":false,"dwell_time":81.06689453125,"response_time":1678901449059},{"trial":5,"action":1,"button_pressed":2,"time_out":false,"dwell_time":97.568115234375,"response_time":1678901449542.78},{"trial":5,"action":1,"button_pressed":7,"time_out":false,"dwell_time":97.3349609375,"response_time":1678901449892.63},{"trial":5,"action":1,"button_pressed":6,"time_out":false,"dwell_time":63.31103515625,"response_time":1678901450258.51},{"trial":5,"action":1,"button_pressed":4,"time_out":false,"dwell_time":47.4921875,"response_time":1678901450542.36},{"trial":5,"action":1,"button_pressed":0,"time_out":false,"dwell_time":64.43212890625,"response_time":1678901450891.73},{"trial":5,"action":9,"button_pressed":-1,"time_out":false,"dwell_time":65.421142578125,"response_time":1678901451292.62},{"trial":6,"action":1,"button_pressed":7,"time_out":false,"dwell_time":48.112060546875,"response_time":1678901471186.16},{"trial":6,"action":1,"button_pressed":11,"time_out":false,"dwell_time":31.56201171875,"response_time":1678901471435.23},{"trial":6,"action":1,"button_pressed":0,"time_out":false,"dwell_time":47.424072265625,"response_time":1678901472018.37},{"trial":6,"action":1,"button_pressed":3,"time_out":false,"dwell_time":49.002197265625,"response_time":1678901472418.95},{"trial":6,"action":1,"button_pressed":9,"time_out":false,"dwell_time":30.3330078125,"response_time":1678901472718.11},{"trial":6,"action":1,"button_pressed":5,"time_out":false,"dwell_time":64.98388671875,"response_time":1678901473168.09},{"trial":6,"action":1,"button_pressed":6,"time_out":false,"dwell_time":13.8310546875,"response_time":1678901473634.38},{"trial":6,"action":9,"button_pressed":-1,"time_out":false,"dwell_time":80.939208984375,"response_time":1678901474468.11},{"trial":7,"action":1,"button_pressed":11,"time_out":false,"dwell_time":31.3310546875,"response_time":1678901496526.81},{"trial":7,"action":1,"button_pressed":0,"time_out":false,"dwell_time":48.175048828125,"response_time":1678901497309.75},{"trial":7,"action":1,"button_pressed":7,"time_out":false,"dwell_time":64.801025390625,"response_time":1678901498009.56},{"trial":7,"action":1,"button_pressed":9,"time_out":false,"dwell_time":48.766845703125,"response_time":1678901498426.62},{"trial":7,"action":1,"button_pressed":6,"time_out":false,"dwell_time":30.537109375,"response_time":1678901498742.5},{"trial":7,"action":1,"button_pressed":2,"time_out":false,"dwell_time":48.9951171875,"response_time":1678901499226.52},{"trial":7,"action":1,"button_pressed":10,"time_out":false,"dwell_time":48.661865234375,"response_time":1678901499659.67},{"trial":7,"action":1,"button_pressed":1,"time_out":false,"dwell_time":32.319091796875,"response_time":1678901500059.63},{"trial":7,"action":9,"button_pressed":-1,"time_out":false,"dwell_time":80.97802734375,"response_time":1678901501024.81},{"trial":8,"action":1,"button_pressed":2,"time_out":false,"dwell_time":80.92578125,"response_time":1678901524000.98},{"trial":8,"action":1,"button_pressed":4,"time_out":false,"dwell_time":64.534912109375,"response_time":1678901524533.85},{"trial":8,"action":1,"button_pressed":11,"time_out":false,"dwell_time":48.113037109375,"response_time":1678901525133.61},{"trial":8,"action":1,"button_pressed":5,"time_out":false,"dwell_time":80.30908203125,"response_time":1678901527149.15},{"trial":8,"action":1,"button_pressed":6,"time_out":false,"dwell_time":30.587890625,"response_time":1678901528065.9},{"trial":8,"action":1,"button_pressed":10,"time_out":false,"dwell_time":48.133056640625,"response_time":1678901529666.2},{"trial":8,"action":1,"button_pressed":0,"time_out":false,"dwell_time":48.257080078125,"response_time":1678901530149.28},{"trial":8,"action":1,"button_pressed":3,"time_out":false,"dwell_time":65.06201171875,"response_time":1678901530465.29},{"trial":8,"action":9,"button_pressed":-1,"time_out":false,"dwell_time":65.135986328125,"response_time":1678901531199.35},{"trial":9,"action":1,"button_pressed":11,"time_out":false,"dwell_time":48.974853515625,"response_time":1678901550559.08},{"trial":9,"action":1,"button_pressed":8,"time_out":false,"dwell_time":64.64501953125,"response_time":1678901551074.95},{"trial":9,"action":1,"button_pressed":6,"time_out":false,"dwell_time":30.573974609375,"response_time":1678901551607.89},{"trial":9,"action":1,"button_pressed":4,"time_out":false,"dwell_time":30.742919921875,"response_time":1678901552057.8},{"trial":9,"action":1,"button_pressed":1,"time_out":false,"dwell_time":30.5439453125,"response_time":1678901552557.48},{"trial":9,"action":1,"button_pressed":10,"time_out":false,"dwell_time":47.467041015625,"response_time":1678901553008.2},{"trial":9,"action":9,"button_pressed":-1,"time_out":false,"dwell_time":49.264892578125,"response_time":1678901553641.74},{"trial":10,"action":1,"button_pressed":9,"time_out":false,"dwell_time":47.81005859375,"response_time":1678901573250.65},{"trial":10,"action":1,"button_pressed":1,"time_out":false,"dwell_time":30.52294921875,"response_time":1678901573600.42},{"trial":10,"action":1,"button_pressed":5,"time_out":false,"dwell_time":81.64208984375,"response_time":1678901574067.17},{"trial":10,"action":1,"button_pressed":11,"time_out":false,"dwell_time":13.984130859375,"response_time":1678901574800.06},{"trial":10,"action":1,"button_pressed":3,"time_out":false,"dwell_time":30.673095703125,"response_time":1678901575333.2},{"trial":10,"action":9,"button_pressed":-1,"time_out":false,"dwell_time":65.281005859375,"response_time":1678901576183.48},{"trial":11,"action":1,"button_pressed":9,"time_out":false,"dwell_time":47.760986328125,"response_time":1678901595710.24},{"trial":11,"action":1,"button_pressed":7,"time_out":false,"dwell_time":30.6259765625,"response_time":1678901596059.55},{"trial":11,"action":1,"button_pressed":4,"time_out":false,"dwell_time":47.974853515625,"response_time":1678901596543.32},{"trial":11,"action":1,"button_pressed":1,"time_out":false,"dwell_time":64.81591796875,"response_time":1678901596975.94},{"trial":11,"action":1,"button_pressed":11,"time_out":false,"dwell_time":48.225830078125,"response_time":1678901597359.19},{"trial":11,"action":1,"button_pressed":6,"time_out":false,"dwell_time":47.864013671875,"response_time":1678901597693.05},{"trial":11,"action":1,"button_pressed":8,"time_out":false,"dwell_time":47.284912109375,"response_time":1678901598108.81},{"trial":11,"action":9,"button_pressed":-1,"time_out":false,"dwell_time":64.876953125,"response_time":1678901598758.66},{"trial":12,"action":1,"button_pressed":6,"time_out":false,"dwell_time":64.511962890625,"response_time":1678901621184.64},{"trial":12,"action":1,"button_pressed":0,"time_out":false,"dwell_time":48.071044921875,"response_time":1678901621584.14},{"trial":12,"action":1,"button_pressed":3,"time_out":false,"dwell_time":30.656982421875,"response_time":1678901622350.56},{"trial":12,"action":1,"button_pressed":10,"time_out":false,"dwell_time":31.239013671875,"response_time":1678901622767.17},{"trial":12,"action":1,"button_pressed":8,"time_out":false,"dwell_time":47.908203125,"response_time":1678901623633.49},{"trial":12,"action":1,"button_pressed":1,"time_out":false,"dwell_time":30.684814453125,"response_time":1678901624616.51},{"trial":12,"action":1,"button_pressed":7,"time_out":false,"dwell_time":31.6259765625,"response_time":1678901625149.99},{"trial":12,"action":9,"button_pressed":-1,"time_out":false,"dwell_time":63.820068359375,"response_time":1678901626066.08},{"trial":13,"action":1,"button_pressed":10,"time_out":false,"dwell_time":48.281005859375,"response_time":1678901648225.22},{"trial":13,"action":1,"button_pressed":1,"time_out":false,"dwell_time":64.324951171875,"response_time":1678901648607.88},{"trial":13,"action":1,"button_pressed":0,"time_out":false,"dwell_time":48.10693359375,"response_time":1678901649008.21},{"trial":13,"action":1,"button_pressed":2,"time_out":false,"dwell_time":48.161865234375,"response_time":1678901649408.84},{"trial":13,"action":1,"button_pressed":3,"time_out":false,"dwell_time":65.0380859375,"response_time":1678901649824.8},{"trial":13,"action":1,"button_pressed":7,"time_out":false,"dwell_time":32.710205078125,"response_time":1678901650492.31},{"trial":13,"action":1,"button_pressed":4,"time_out":false,"dwell_time":31.905029296875,"response_time":1678901651291.42},{"trial":13,"action":9,"button_pressed":-1,"time_out":false,"dwell_time":98.3720703125,"response_time":1678901652391.28}]}