{"meta_data":{"additional_headers":{},"game_name":"Recollect","version":"2.53.01","user_name":"57","organization":"braingamecenter","study":"mpl2_2022_11","session_number":0,"device_id":"74342D95-EE82-45E3-8ADF-48FB3203C5DD"},"data":[{"trial":0,"action":1,"button_pressed":7,"time_out":false,"dwell_time":31.432861328125,"response_time":1678910529858.51},{"trial":0,"action":1,"button_pressed":4,"time_out":false,"dwell_time":32.14404296875,"response_time":1678910530491.52},{"trial":0,"action":9,"button_pressed":-1,"time_out":false,"dwell_time":57.64697265625,"response_time":1678910531017.65},{"trial":1,"action":1,"button_pressed":10,"time_out":false,"dwell_time":48.3291015625,"response_time":1678910540871.05},{"trial":1,"action":1,"button_pressed":0,"time_out":false,"dwell_time":47.276123046875,"response_time":1678910541370.55},{"trial":1,"action":1,"button_pressed":6,"time_out":false,"dwell_time":64.7080078125,"response_time":1678910541854.05},{"trial":1,"action":9,"button_pressed":-1,"time_out":false,"dwell_time":82.251953125,"response_time":1678910543303.99},{"trial":2,"action":1,"button_pressed":11,"time_out":false,"dwell_time":64.726806640625,"response_time":1678910555083.08},{"trial":2,"action":1,"button_pressed":0,"time_out":false,"dwell_time":98.32080078125,"response_time":1678910555716.13},{"trial":2,"action":1,"button_pressed":4,"time_out":false,"dwell_time":30.697998046875,"response_time":1678910556115.78},{"trial":2,"action":1,"button_pressed":1,"time_out":false,"dwell_time":48.8359375,"response_time":1678910556582.97},{"trial":2,"action":9,"button_pressed":-1,"time_out":false,"dwell_time":16.712890625,"response_time":1678910557181.8},{"trial":3,"action":1,"button_pressed":2,"time_out":false,"dwell_time":49.076904296875,"response_time":1678910571694.87},{"trial":3,"action":1,"button_pressed":6,"time_out":false,"dwell_time":47.8359375,"response_time":1678910572211.11},{"trial":3,"action":1,"button_pressed":7,"time_out":false,"dwell_time":31.068115234375,"response_time":1678910572560.88},{"trial":3,"action":1,"button_pressed":0,"time_out":false,"dwell_time":47.364990234375,"response_time":1678910573043.51},{"trial":3,"action":1,"button_pressed":8,"time_out":false,"dwell_time":31.341064453125,"response_time":1678910573576.65},{"trial":3,"action":9,"button_pressed":-1,"time_out":false,"dwell_time":16.83203125,"response_time":1678910574309.63},{"trial":4,"action":1,"button_pressed":8,"time_out":false,"dwell_time":65.052001953125,"response_time":1678910591454.54},{"trial":4,"action":1,"button_pressed":0,"time_out":false,"dwell_time":64.945068359375,"response_time":1678910592020.89},{"trial":4,"action":1,"button_pressed":1,"time_out":false,"dwell_time":32.10595703125,"response_time":1678910592371.3},{"trial":4,"action":1,"button_pressed":9,"time_out":false,"dwell_time":64.94091796875,"response_time":1678910592903.96},{"trial":4,"action":1,"button_pressed":3,"time_out":false,"dwell_time":48.14013671875,"response_time":1678910593303.6},{"trial":4,"action":1,"button_pressed":2,"time_out":false,"dwell_time":31.3779296875,"response_time":1678910595019.62},{"trial":4,"action":9,"button_pressed":-1,"time_out":false,"dwell_time":81.408935546875,"response_time":1678910597502.2},{"trial":5,"action":1,"button_pressed":5,"time_out":false,"dwell_time":80.443115234375,"response_time":1678910614796.26},{"trial":5,"action":1,"button_pressed":10,"time_out":false,"dwell_time":48.630859375,"response_time":1678910615363.67},{"trial":5,"action":1,"button_pressed":7,"time_out":false,"dwell_time":47.77490234375,"response_time":1678910616380.13},{"trial":5,"action":1,"button_pressed":4,"time_out":false,"dwell_time":63.692138671875,"response_time":1678910616912.15},{"trial":5,"action":1,"button_pressed":0,"time_out":false,"dwell_time":81.10888671875,"response_time":1678910617328.72},{"trial":5,"action":1,"button_pressed":8,"time_out":false,"dwell_time":48.448974609375,"response_time":1678910617779.49},{"trial":5,"action":9,"button_pressed":-1,"time_out":false,"dwell_time":80.735107421875,"response_time":1678910619511.68},{"trial":6,"action":1,"button_pressed":10,"time_out":false,"dwell_time":65.160888671875,"response_time":1678910639672.21},{"trial":6,"action":1,"button_pressed":1,"time_out":false,"dwell_time":48,"response_time":1678910640122.21},{"trial":6,"action":1,"button_pressed":2,"time_out":false,"dwell_time":81.72802734375,"response_time":1678910640788.39},{"trial":6,"action":1,"button_pressed":7,"time_out":false,"dwell_time":47.196044921875,"response_time":1678910641737.65},{"trial":6,"action":1,"button_pressed":6,"time_out":false,"dwell_time":81.024169921875,"response_time":1678910642103.94},{"trial":6,"action":1,"button_pressed":0,"time_out":false,"dwell_time":48.15478515625,"response_time":1678910642520.83},{"trial":6,"action":1,"button_pressed":4,"time_out":false,"dwell_time":14.779052734375,"response_time":1678910642871.4},{"trial":6,"action":9,"button_pressed":-1,"time_out":false,"dwell_time":16.626953125,"response_time":1678910643436.9},{"trial":7,"action":1,"button_pressed":10,"time_out":false,"dwell_time":81.81591796875,"response_time":1678910668062.91},{"trial":7,"action":1,"button_pressed":7,"time_out":false,"dwell_time":114.22900390625,"response_time":1678910668778.49},{"trial":7,"action":1,"button_pressed":4,"time_out":false,"dwell_time":64.39208984375,"response_time":1678910669194.96},{"trial":7,"action":1,"button_pressed":3,"time_out":false,"dwell_time":30.755859375,"response_time":1678910669528.68},{"trial":7,"action":1,"button_pressed":9,"time_out":false,"dwell_time":64.489013671875,"response_time":1678910669912.38},{"trial":7,"action":1,"button_pressed":5,"time_out":false,"dwell_time":48.00390625,"response_time":1678910670495.05},{"trial":7,"action":1,"button_pressed":8,"time_out":false,"dwell_time":13.096923828125,"response_time":1678910670760.91},{"trial":7,"action":1,"button_pressed":11,"time_out":false,"dwell_time":30.517822265625,"response_time":1678910671144.82},{"trial":7,"action":9,"button_pressed":-1,"time_out":false,"dwell_time":48.85888671875,"response_time":1678910672045.32},{"trial":8,"action":1,"button_pressed":3,"time_out":false,"dwell_time":64.516845703125,"response_time":1678910694586.74},{"trial":8,"action":1,"button_pressed":1,"time_out":false,"dwell_time":64.406005859375,"response_time":1678910694854.06},{"trial":8,"action":1,"button_pressed":8,"time_out":false,"dwell_time":64.26318359375,"response_time":1678910695469.84},{"trial":8,"action":1,"button_pressed":5,"time_out":false,"dwell_time":47.3701171875,"response_time":1678910695686.77},{"trial":8,"action":1,"button_pressed":6,"time_out":false,"dwell_time":64.006103515625,"response_time":1678910696252.8},{"trial":8,"action":1,"button_pressed":7,"time_out":false,"dwell_time":63.919921875,"response_time":1678910696519.42},{"trial":8,"action":1,"button_pressed":0,"time_out":false,"dwell_time":64.9580078125,"response_time":1678910697036.39},{"trial":8,"action":1,"button_pressed":9,"time_out":false,"dwell_time":48.005126953125,"response_time":1678910697503.53},{"trial":8,"action":9,"button_pressed":-1,"time_out":false,"dwell_time":16.666015625,"response_time":1678910698585.53},{"trial":9,"action":1,"button_pressed":11,"time_out":false,"dwell_time":81.948974609375,"response_time":1678910716697},{"trial":9,"action":1,"button_pressed":8,"time_out":false,"dwell_time":48.074951171875,"response_time":1678910717696.98},{"trial":9,"action":1,"button_pressed":6,"time_out":false,"dwell_time":66.125,"response_time":1678910718213.07},{"trial":9,"action":1,"button_pressed":4,"time_out":false,"dwell_time":13.875,"response_time":1678910718645.76},{"trial":9,"action":1,"button_pressed":1,"time_out":false,"dwell_time":114.225830078125,"response_time":1678910721761.08},{"trial":9,"action":1,"button_pressed":10,"time_out":false,"dwell_time":47.946044921875,"response_time":1678910722295.42},{"trial":9,"action":9,"button_pressed":-1,"time_out":false,"dwell_time":18.14892578125,"response_time":1678910724195.07},{"trial":10,"action":1,"button_pressed":6,"time_out":false,"dwell_time":81.737060546875,"response_time":1678910744271.29},{"trial":10,"action":1,"button_pressed":10,"time_out":false,"dwell_time":48.593994140625,"response_time":1678910744704.49},{"trial":10,"action":1,"button_pressed":11,"time_out":false,"dwell_time":65.02587890625,"response_time":1678910745104.1},{"trial":10,"action":1,"button_pressed":4,"time_out":false,"dwell_time":63.678955078125,"response_time":1678910745786.56},{"trial":10,"action":1,"button_pressed":5,"time_out":false,"dwell_time":30.6689453125,"response_time":1678910746270.11},{"trial":10,"action":1,"button_pressed":3,"time_out":false,"dwell_time":64.80810546875,"response_time":1678910746653.55},{"trial":10,"action":9,"button_pressed":-1,"time_out":false,"dwell_time":16.802978515625,"response_time":1678910747153.06},{"trial":11,"action":1,"button_pressed":4,"time_out":false,"dwell_time":48.075927734375,"response_time":1678910767413.43},{"trial":11,"action":1,"button_pressed":6,"time_out":false,"dwell_time":97.609130859375,"response_time":1678910768096.91},{"trial":11,"action":1,"button_pressed":6,"time_out":false,"dwell_time":47.494140625,"response_time":1678910768946.82},{"trial":11,"action":1,"button_pressed":4,"time_out":false,"dwell_time":81.154052734375,"response_time":1678910770712.65},{"trial":11,"action":1,"button_pressed":6,"time_out":false,"dwell_time":47.7119140625,"response_time":1678910771445.28},{"trial":11,"action":1,"button_pressed":6,"time_out":false,"dwell_time":47.47216796875,"response_time":1678910771628.8},{"trial":11,"action":0,"button_pressed":-1,"time_out":false,"dwell_time":64.623046875,"response_time":1678910773194.46},{"trial":11,"action":1,"button_pressed":4,"time_out":false,"dwell_time":63.798095703125,"response_time":1678910773977.58},{"trial":11,"action":1,"button_pressed":2,"time_out":false,"dwell_time":114.343994140625,"response_time":1678910776776.39},{"trial":11,"action":1,"button_pressed":6,"time_out":false,"dwell_time":98.2119140625,"response_time":1678910777393.71},{"trial":11,"action":1,"button_pressed":8,"time_out":false,"dwell_time":81.47412109375,"response_time":1678910778009.91},{"trial":11,"action":1,"button_pressed":1,"time_out":false,"dwell_time":80.531005859375,"response_time":1678910781441.78},{"trial":11,"action":1,"button_pressed":9,"time_out":false,"dwell_time":47.964111328125,"response_time":1678910781958.56},{"trial":11,"action":9,"button_pressed":-1,"time_out":false,"dwell_time":16.698974609375,"response_time":1678910782424.71}]}