{"meta_data":{"additional_headers":{},"game_name":"Recollect","version":"2.53.01","user_name":"59","organization":"braingamecenter","study":"mpl2_2022_11","session_number":0,"device_id":"74342D95-EE82-45E3-8ADF-48FB3203C5DD"},"data":[{"trial":0,"action":1,"button_pressed":5,"time_out":false,"dwell_time":80.533935546875,"response_time":1678932123393.11},{"trial":0,"action":1,"button_pressed":3,"time_out":false,"dwell_time":96.970947265625,"response_time":1678932123909.43},{"trial":0,"action":9,"button_pressed":-1,"time_out":false,"dwell_time":74.93310546875,"response_time":1678932124486.41},{"trial":1,"action":1,"button_pressed":0,"time_out":false,"dwell_time":132.35107421875,"response_time":1678932134240.15},{"trial":1,"action":1,"button_pressed":10,"time_out":false,"dwell_time":64.2890625,"response_time":1678932134722.62},{"trial":1,"action":1,"button_pressed":11,"time_out":false,"dwell_time":64.837158203125,"response_time":1678932135339.73},{"trial":1,"action":9,"button_pressed":-1,"time_out":false,"dwell_time":98.506103515625,"response_time":1678932136123.77},{"trial":2,"action":1,"button_pressed":11,"time_out":false,"dwell_time":99.56884765625,"response_time":1678932148252.58},{"trial":2,"action":1,"button_pressed":0,"time_out":false,"dwell_time":48.154052734375,"response_time":1678932148635.47},{"trial":2,"action":1,"button_pressed":4,"time_out":false,"dwell_time":80.26220703125,"response_time":1678932149001.44},{"trial":2,"action":1,"button_pressed":1,"time_out":false,"dwell_time":164.64697265625,"response_time":1678932149485.32},{"trial":2,"action":9,"button_pressed":-1,"time_out":false,"dwell_time":81.593994140625,"response_time":1678932150101.7},{"trial":3,"action":1,"button_pressed":8,"time_out":false,"dwell_time":98.34814453125,"response_time":1678932164630.43},{"trial":3,"action":1,"button_pressed":4,"time_out":false,"dwell_time":81.0029296875,"response_time":1678932165146.25},{"trial":3,"action":1,"button_pressed":1,"time_out":false,"dwell_time":130.93115234375,"response_time":1678932165629.38},{"trial":3,"action":1,"button_pressed":5,"time_out":false,"dwell_time":48.049072265625,"response_time":1678932166080.39},{"trial":3,"action":1,"button_pressed":3,"time_out":false,"dwell_time":64.139892578125,"response_time":1678932166513.01},{"trial":3,"action":9,"button_pressed":-1,"time_out":false,"dwell_time":98.01904296875,"response_time":1678932167146.7},{"trial":4,"action":1,"button_pressed":8,"time_out":false,"dwell_time":80.180908203125,"response_time":1678932184640.08},{"trial":4,"action":1,"button_pressed":0,"time_out":false,"dwell_time":64.27099609375,"response_time":1678932185523.07},{"trial":4,"action":1,"button_pressed":1,"time_out":false,"dwell_time":114.49609375,"response_time":1678932189705.21},{"trial":4,"action":1,"button_pressed":9,"time_out":false,"dwell_time":47.60400390625,"response_time":1678932190555.87},{"trial":4,"action":1,"button_pressed":2,"time_out":false,"dwell_time":64.202880859375,"response_time":1678932191105.22},{"trial":4,"action":9,"button_pressed":-1,"time_out":false,"dwell_time":16.869873046875,"response_time":1678932191771.35},{"trial":5,"action":1,"button_pressed":7,"time_out":false,"dwell_time":9128.36303710938,"response_time":1678932208665.73},{"trial":5,"action":0,"button_pressed":-1,"time_out":false,"dwell_time":132.14013671875,"response_time":1678932212098.84},{"trial":5,"action":1,"button_pressed":8,"time_out":false,"dwell_time":146.64208984375,"response_time":1678932216579.84},{"trial":5,"action":1,"button_pressed":2,"time_out":false,"dwell_time":131.001220703125,"response_time":1678932218829.3},{"trial":5,"action":0,"button_pressed":-1,"time_out":false,"dwell_time":97.804931640625,"response_time":1678932220962},{"trial":5,"action":1,"button_pressed":2,"time_out":false,"dwell_time":30.39404296875,"response_time":1678932222095.19},{"trial":5,"action":1,"button_pressed":2,"time_out":false,"dwell_time":180.89501953125,"response_time":1678932222361.96},{"trial":5,"action":1,"button_pressed":10,"time_out":false,"dwell_time":80.116943359375,"response_time":1678932225210.38},{"trial":5,"action":0,"button_pressed":-1,"time_out":false,"dwell_time":113.826904296875,"response_time":1678932228176.4},{"trial":5,"action":0,"button_pressed":-1,"time_out":false,"dwell_time":81.142822265625,"response_time":1678932228342.78},{"trial":5,"action":0,"button_pressed":-1,"time_out":false,"dwell_time":63.703857421875,"response_time":1678932228509.48},{"trial":5,"action":1,"button_pressed":8,"time_out":false,"dwell_time":63.369140625,"response_time":1678932230008.82},{"trial":5,"action":1,"button_pressed":2,"time_out":false,"dwell_time":97.057861328125,"response_time":1678932230808.8},{"trial":5,"action":1,"button_pressed":10,"time_out":false,"dwell_time":63.5068359375,"response_time":1678932231441.78},{"trial":5,"action":1,"button_pressed":1,"time_out":false,"dwell_time":146.801025390625,"response_time":1678932232124.79},{"trial":5,"action":1,"button_pressed":7,"time_out":false,"dwell_time":96.81396484375,"response_time":1678932233274.53},{"trial":5,"action":9,"button_pressed":-1,"time_out":false,"dwell_time":31.098876953125,"response_time":1678932233908.55},{"trial":6,"action":1,"button_pressed":0,"time_out":false,"dwell_time":65.244140625,"response_time":1678932246171.27},{"trial":6,"action":1,"button_pressed":10,"time_out":false,"dwell_time":63.2880859375,"response_time":1678932246786.85},{"trial":6,"action":1,"button_pressed":2,"time_out":false,"dwell_time":97.759033203125,"response_time":1678932247270.83},{"trial":6,"action":1,"button_pressed":6,"time_out":false,"dwell_time":80.748046875,"response_time":1678932247670.11},{"trial":6,"action":9,"button_pressed":-1,"time_out":false,"dwell_time":116.508056640625,"response_time":1678932249154.98},{"trial":7,"action":1,"button_pressed":7,"time_out":false,"dwell_time":148.2490234375,"response_time":1678932263732.28},{"trial":7,"action":1,"button_pressed":4,"time_out":false,"dwell_time":80.85302734375,"response_time":1678932264148.67},{"trial":7,"action":1,"button_pressed":11,"time_out":false,"dwell_time":96.802978515625,"response_time":1678932265081.06},{"trial":7,"action":1,"button_pressed":3,"time_out":false,"dwell_time":48.875,"response_time":1678932265415.49},{"trial":7,"action":1,"button_pressed":10,"time_out":false,"dwell_time":30.65087890625,"response_time":1678932265864.57},{"trial":7,"action":9,"button_pressed":-1,"time_out":false,"dwell_time":148.678955078125,"response_time":1678932266681.65},{"trial":8,"action":1,"button_pressed":6,"time_out":false,"dwell_time":64.448974609375,"response_time":1678932284258.39},{"trial":8,"action":1,"button_pressed":5,"time_out":false,"dwell_time":81.18994140625,"response_time":1678932285041.48},{"trial":8,"action":1,"button_pressed":0,"time_out":false,"dwell_time":64.927978515625,"response_time":1678932285658.45},{"trial":8,"action":1,"button_pressed":11,"time_out":false,"dwell_time":31.277099609375,"response_time":1678932286258.76},{"trial":8,"action":1,"button_pressed":4,"time_out":false,"dwell_time":48.05908203125,"response_time":1678932290990.54},{"trial":8,"action":9,"button_pressed":-1,"time_out":false,"dwell_time":131.2490234375,"response_time":1678932292940.02},{"trial":9,"action":1,"button_pressed":10,"time_out":false,"dwell_time":81.837158203125,"response_time":1678932310217.5},{"trial":9,"action":1,"button_pressed":2,"time_out":false,"dwell_time":114.3359375,"response_time":1678932310750.61},{"trial":9,"action":1,"button_pressed":5,"time_out":false,"dwell_time":63.60302734375,"response_time":1678932311199.73},{"trial":9,"action":1,"button_pressed":11,"time_out":false,"dwell_time":30.56298828125,"response_time":1678932311750.23},{"trial":9,"action":1,"button_pressed":0,"time_out":false,"dwell_time":63.954833984375,"response_time":1678932312199.53},{"trial":9,"action":9,"button_pressed":-1,"time_out":false,"dwell_time":64.824951171875,"response_time":1678932314232.5}]}