{"meta_data":{"additional_headers":{},"game_name":"Recollect","version":"2.53.01","user_name":"60","organization":"braingamecenter","study":"mpl2_2022_11","session_number":0,"device_id":"74342D95-EE82-45E3-8ADF-48FB3203C5DD"},"data":[{"trial":0,"action":1,"button_pressed":8,"time_out":false,"dwell_time":80.430908203125,"response_time":1678989208704},{"trial":0,"action":1,"button_pressed":0,"time_out":false,"dwell_time":80.356201171875,"response_time":1678989209386.93},{"trial":0,"action":9,"button_pressed":-1,"time_out":false,"dwell_time":108.580810546875,"response_time":1678989209831.83},{"trial":1,"action":1,"button_pressed":4,"time_out":false,"dwell_time":98.7021484375,"response_time":1678989219501.08},{"trial":1,"action":1,"button_pressed":7,"time_out":false,"dwell_time":63.671142578125,"response_time":1678989220017.24},{"trial":1,"action":1,"button_pressed":10,"time_out":false,"dwell_time":47.93310546875,"response_time":1678989220534.24},{"trial":1,"action":9,"button_pressed":-1,"time_out":false,"dwell_time":97.3310546875,"response_time":1678989221350.09},{"trial":2,"action":1,"button_pressed":7,"time_out":false,"dwell_time":96.981201171875,"response_time":1678989233662.25},{"trial":2,"action":1,"button_pressed":9,"time_out":false,"dwell_time":80.216064453125,"response_time":1678989234128.6},{"trial":2,"action":1,"button_pressed":0,"time_out":false,"dwell_time":115.0888671875,"response_time":1678989234695.77},{"trial":2,"action":1,"button_pressed":4,"time_out":false,"dwell_time":81.572998046875,"response_time":1678989235079.05},{"trial":2,"action":9,"button_pressed":-1,"time_out":false,"dwell_time":131.31005859375,"response_time":1678989236478.81},{"trial":3,"action":1,"button_pressed":5,"time_out":false,"dwell_time":98.56005859375,"response_time":1678989251306.95},{"trial":3,"action":1,"button_pressed":9,"time_out":false,"dwell_time":64.863037109375,"response_time":1678989251939.84},{"trial":3,"action":1,"button_pressed":6,"time_out":false,"dwell_time":63.97802734375,"response_time":1678989252323.05},{"trial":3,"action":1,"button_pressed":8,"time_out":false,"dwell_time":47.406982421875,"response_time":1678989253189.34},{"trial":3,"action":1,"button_pressed":7,"time_out":false,"dwell_time":30.56884765625,"response_time":1678989254771.99},{"trial":3,"action":1,"button_pressed":1,"time_out":false,"dwell_time":81.080810546875,"response_time":1678989256121.04},{"trial":3,"action":1,"button_pressed":1,"time_out":false,"dwell_time":97.967041015625,"response_time":1678989256587.86},{"trial":3,"action":1,"button_pressed":1,"time_out":false,"dwell_time":97.840087890625,"response_time":1678989257254.72},{"trial":3,"action":0,"button_pressed":-1,"time_out":false,"dwell_time":82.093017578125,"response_time":1678989259071.14},{"trial":3,"action":1,"button_pressed":5,"time_out":false,"dwell_time":97.7021484375,"response_time":1678989259820.04},{"trial":3,"action":1,"button_pressed":9,"time_out":false,"dwell_time":64.22509765625,"response_time":1678989260236.59},{"trial":3,"action":1,"button_pressed":6,"time_out":false,"dwell_time":46.985107421875,"response_time":1678989260536.68},{"trial":3,"action":1,"button_pressed":8,"time_out":false,"dwell_time":63.776123046875,"response_time":1678989261003.25},{"trial":3,"action":1,"button_pressed":7,"time_out":false,"dwell_time":47.808837890625,"response_time":1678989261653.82},{"trial":3,"action":9,"button_pressed":-1,"time_out":false,"dwell_time":48.557861328125,"response_time":1678989262536.57},{"trial":4,"action":1,"button_pressed":11,"time_out":false,"dwell_time":81.580810546875,"response_time":1678989279863.88},{"trial":4,"action":1,"button_pressed":8,"time_out":false,"dwell_time":80.69091796875,"response_time":1678989280380.36},{"trial":4,"action":1,"button_pressed":6,"time_out":false,"dwell_time":98.174072265625,"response_time":1678989280830.24},{"trial":4,"action":1,"button_pressed":4,"time_out":false,"dwell_time":81.213134765625,"response_time":1678989281196.11},{"trial":4,"action":1,"button_pressed":1,"time_out":false,"dwell_time":48.044189453125,"response_time":1678989281613.09},{"trial":4,"action":1,"button_pressed":10,"time_out":false,"dwell_time":80.4541015625,"response_time":1678989282212.85},{"trial":4,"action":9,"button_pressed":-1,"time_out":false,"dwell_time":64.075927734375,"response_time":1678989283245.84},{"trial":5,"action":1,"button_pressed":10,"time_out":false,"dwell_time":81.242919921875,"response_time":1678989303422.31},{"trial":5,"action":1,"button_pressed":1,"time_out":false,"dwell_time":80.787841796875,"response_time":1678989303871.97},{"trial":5,"action":1,"button_pressed":2,"time_out":false,"dwell_time":64.194091796875,"response_time":1678989304372.33},{"trial":5,"action":1,"button_pressed":7,"time_out":false,"dwell_time":80.4990234375,"response_time":1678989304938.65},{"trial":5,"action":1,"button_pressed":6,"time_out":false,"dwell_time":64.875,"response_time":1678989305405.36},{"trial":5,"action":1,"button_pressed":0,"time_out":false,"dwell_time":115.088134765625,"response_time":1678989306804.42},{"trial":5,"action":1,"button_pressed":4,"time_out":false,"dwell_time":81.6650390625,"response_time":1678989307254.8},{"trial":5,"action":9,"button_pressed":-1,"time_out":false,"dwell_time":98.701904296875,"response_time":1678989307771.63},{"trial":6,"action":1,"button_pressed":10,"time_out":false,"dwell_time":81.5888671875,"response_time":1678989330230.19},{"trial":6,"action":1,"button_pressed":1,"time_out":false,"dwell_time":97.671875,"response_time":1678989330846.84},{"trial":6,"action":1,"button_pressed":9,"time_out":false,"dwell_time":47.7529296875,"response_time":1678989333146.34},{"trial":6,"action":1,"button_pressed":2,"time_out":false,"dwell_time":48.01708984375,"response_time":1678989333812.86},{"trial":6,"action":1,"button_pressed":8,"time_out":false,"dwell_time":64.635986328125,"response_time":1678989334345.4},{"trial":6,"action":1,"button_pressed":11,"time_out":false,"dwell_time":47.9580078125,"response_time":1678989334879.08},{"trial":6,"action":1,"button_pressed":4,"time_out":false,"dwell_time":80.961181640625,"response_time":1678989336061.81},{"trial":6,"action":1,"button_pressed":5,"time_out":false,"dwell_time":80.628173828125,"response_time":1678989336478.1},{"trial":6,"action":9,"button_pressed":-1,"time_out":false,"dwell_time":65.712890625,"response_time":1678989338045.78},{"trial":7,"action":1,"button_pressed":11,"time_out":false,"dwell_time":64.322021484375,"response_time":1678989360270.34},{"trial":7,"action":1,"button_pressed":7,"time_out":false,"dwell_time":47.822998046875,"response_time":1678989360603.69},{"trial":7,"action":1,"button_pressed":0,"time_out":false,"dwell_time":47.969970703125,"response_time":1678989361286.84},{"trial":7,"action":1,"button_pressed":4,"time_out":false,"dwell_time":80.9541015625,"response_time":1678989361935.68},{"trial":7,"action":1,"button_pressed":2,"time_out":false,"dwell_time":113.588134765625,"response_time":1678989362718.73},{"trial":7,"action":1,"button_pressed":1,"time_out":false,"dwell_time":64.993896484375,"response_time":1678989365701.66},{"trial":7,"action":1,"button_pressed":6,"time_out":false,"dwell_time":81.55517578125,"response_time":1678989366734.69},{"trial":7,"action":1,"button_pressed":9,"time_out":false,"dwell_time":64.155029296875,"response_time":1678989367034.92},{"trial":7,"action":9,"button_pressed":-1,"time_out":false,"dwell_time":81.2470703125,"response_time":1678989367834.59},{"trial":8,"action":1,"button_pressed":9,"time_out":false,"dwell_time":81.091064453125,"response_time":1678989385545.5},{"trial":8,"action":1,"button_pressed":1,"time_out":false,"dwell_time":80.1201171875,"response_time":1678989386261.02},{"trial":8,"action":1,"button_pressed":2,"time_out":false,"dwell_time":97.81396484375,"response_time":1678989387177.54},{"trial":8,"action":1,"button_pressed":8,"time_out":false,"dwell_time":47.761962890625,"response_time":1678989387710.94},{"trial":8,"action":1,"button_pressed":6,"time_out":false,"dwell_time":31.044921875,"response_time":1678989388394.65},{"trial":8,"action":1,"button_pressed":11,"time_out":false,"dwell_time":31.223876953125,"response_time":1678989388877.2},{"trial":8,"action":9,"button_pressed":-1,"time_out":false,"dwell_time":31.5009765625,"response_time":1678989390261.27},{"trial":9,"action":1,"button_pressed":3,"time_out":false,"dwell_time":81.7919921875,"response_time":1678989410137.07},{"trial":9,"action":1,"button_pressed":8,"time_out":false,"dwell_time":80.70703125,"response_time":1678989410686.73},{"trial":9,"action":1,"button_pressed":9,"time_out":false,"dwell_time":31.138916015625,"response_time":1678989412486.49},{"trial":9,"action":0,"button_pressed":-1,"time_out":false,"dwell_time":48.44189453125,"response_time":1678989414168.72},{"trial":9,"action":1,"button_pressed":3,"time_out":false,"dwell_time":81.601806640625,"response_time":1678989414902.07},{"trial":9,"action":1,"button_pressed":5,"time_out":false,"dwell_time":114.202880859375,"response_time":1678989415418.3},{"trial":9,"action":1,"button_pressed":8,"time_out":false,"dwell_time":63.903076171875,"response_time":1678989415984.87},{"trial":9,"action":1,"button_pressed":9,"time_out":false,"dwell_time":64.197998046875,"response_time":1678989416617.32},{"trial":9,"action":1,"button_pressed":11,"time_out":false,"dwell_time":64.037841796875,"response_time":1678989419333.14},{"trial":9,"action":1,"button_pressed":7,"time_out":false,"dwell_time":47.97900390625,"response_time":1678989420633.8},{"trial":9,"action":1,"button_pressed":4,"time_out":false,"dwell_time":98.47705078125,"response_time":1678989421416.68},{"trial":9,"action":1,"button_pressed":10,"time_out":false,"dwell_time":47.279052734375,"response_time":1678989422099.39},{"trial":9,"action":9,"button_pressed":-1,"time_out":false,"dwell_time":16.89697265625,"response_time":1678989423765.26},{"trial":10,"action":1,"button_pressed":6,"time_out":false,"dwell_time":97.60693359375,"response_time":1678989443592.34},{"trial":10,"action":1,"button_pressed":9,"time_out":false,"dwell_time":31.322021484375,"response_time":1678989444059.35},{"trial":10,"action":1,"button_pressed":2,"time_out":false,"dwell_time":47.805908203125,"response_time":1678989444575},{"trial":10,"action":1,"button_pressed":0,"time_out":false,"dwell_time":64.197021484375,"response_time":1678989445007.75},{"trial":10,"action":1,"button_pressed":3,"time_out":false,"dwell_time":64.39208984375,"response_time":1678989445525.23},{"trial":10,"action":1,"button_pressed":10,"time_out":false,"dwell_time":81.62109375,"response_time":1678989446008.45},{"trial":10,"action":1,"button_pressed":7,"time_out":false,"dwell_time":30.43408203125,"response_time":1678989446857.72},{"trial":10,"action":9,"button_pressed":-1,"time_out":false,"dwell_time":64.7939453125,"response_time":1678989448123.88}]}