{"meta_data":{"additional_headers":{},"game_name":"Recollect","version":"2.53.01","user_name":"62","organization":"braingamecenter","study":"mpl2_2022_11","session_number":0,"device_id":"74342D95-EE82-45E3-8ADF-48FB3203C5DD"},"data":[{"trial":0,"action":1,"button_pressed":11,"time_out":false,"dwell_time":48.89501953125,"response_time":1679008393017.9},{"trial":0,"action":1,"button_pressed":8,"time_out":false,"dwell_time":64.053955078125,"response_time":1679008393467.15},{"trial":0,"action":9,"button_pressed":-1,"time_out":false,"dwell_time":28.077880859375,"response_time":1679008394427.66},{"trial":1,"action":1,"button_pressed":11,"time_out":false,"dwell_time":49.173095703125,"response_time":1679008404031.09},{"trial":1,"action":1,"button_pressed":2,"time_out":false,"dwell_time":82.010986328125,"response_time":1679008404513.79},{"trial":1,"action":1,"button_pressed":9,"time_out":false,"dwell_time":30.447998046875,"response_time":1679008404946.42},{"trial":1,"action":9,"button_pressed":-1,"time_out":false,"dwell_time":115.526123046875,"response_time":1679008405846.97},{"trial":2,"action":1,"button_pressed":11,"time_out":false,"dwell_time":48.18798828125,"response_time":1679008418059.7},{"trial":2,"action":1,"button_pressed":0,"time_out":false,"dwell_time":81.129150390625,"response_time":1679008418674.95},{"trial":2,"action":1,"button_pressed":4,"time_out":false,"dwell_time":65.255126953125,"response_time":1679008419042.18},{"trial":2,"action":1,"button_pressed":1,"time_out":false,"dwell_time":47.986083984375,"response_time":1679008419459.01},{"trial":2,"action":9,"button_pressed":-1,"time_out":false,"dwell_time":81.6298828125,"response_time":1679008419974.95},{"trial":3,"action":1,"button_pressed":6,"time_out":false,"dwell_time":65.31884765625,"response_time":1679008434737.39},{"trial":3,"action":1,"button_pressed":3,"time_out":false,"dwell_time":64.501953125,"response_time":1679008435086.23},{"trial":3,"action":1,"button_pressed":8,"time_out":false,"dwell_time":81.259033203125,"response_time":1679008435503.39},{"trial":3,"action":1,"button_pressed":11,"time_out":false,"dwell_time":30.652099609375,"response_time":1679008435952.96},{"trial":3,"action":1,"button_pressed":0,"time_out":false,"dwell_time":80.849853515625,"response_time":1679008436536.32},{"trial":3,"action":9,"button_pressed":-1,"time_out":false,"dwell_time":97.738037109375,"response_time":1679008437019.89},{"trial":4,"action":1,"button_pressed":8,"time_out":false,"dwell_time":64.445068359375,"response_time":1679008454163.48},{"trial":4,"action":1,"button_pressed":0,"time_out":false,"dwell_time":48.25,"response_time":1679008454580.3},{"trial":4,"action":1,"button_pressed":1,"time_out":false,"dwell_time":47.370849609375,"response_time":1679008455030.17},{"trial":4,"action":1,"button_pressed":9,"time_out":false,"dwell_time":64.2431640625,"response_time":1679008455496.15},{"trial":4,"action":1,"button_pressed":3,"time_out":false,"dwell_time":48.02294921875,"response_time":1679008455947.04},{"trial":4,"action":1,"button_pressed":5,"time_out":false,"dwell_time":47.27197265625,"response_time":1679008456379.52},{"trial":4,"action":9,"button_pressed":-1,"time_out":false,"dwell_time":115.5830078125,"response_time":1679008457146.69},{"trial":5,"action":1,"button_pressed":4,"time_out":false,"dwell_time":48.419921875,"response_time":1679008476890.48},{"trial":5,"action":1,"button_pressed":2,"time_out":false,"dwell_time":64.112060546875,"response_time":1679008477239.54},{"trial":5,"action":1,"button_pressed":6,"time_out":false,"dwell_time":31.31591796875,"response_time":1679008477689.45},{"trial":5,"action":1,"button_pressed":8,"time_out":false,"dwell_time":63.903076171875,"response_time":1679008478156.02},{"trial":5,"action":1,"button_pressed":1,"time_out":false,"dwell_time":49.001953125,"response_time":1679008479205.44},{"trial":5,"action":1,"button_pressed":9,"time_out":false,"dwell_time":64.68310546875,"response_time":1679008479772.1},{"trial":5,"action":1,"button_pressed":0,"time_out":false,"dwell_time":63.533935546875,"response_time":1679008480204.64},{"trial":5,"action":9,"button_pressed":-1,"time_out":false,"dwell_time":66.61181640625,"response_time":1679008481022.15},{"trial":6,"action":1,"button_pressed":10,"time_out":false,"dwell_time":47.954833984375,"response_time":1679008503314.89},{"trial":6,"action":1,"button_pressed":2,"time_out":false,"dwell_time":80.4140625,"response_time":1679008503730.43},{"trial":6,"action":1,"button_pressed":1,"time_out":false,"dwell_time":63.697021484375,"response_time":1679008504413.52},{"trial":6,"action":1,"button_pressed":9,"time_out":false,"dwell_time":47.819091796875,"response_time":1679008504946.9},{"trial":6,"action":1,"button_pressed":8,"time_out":false,"dwell_time":81.64013671875,"response_time":1679008505363.89},{"trial":6,"action":1,"button_pressed":4,"time_out":false,"dwell_time":47.723876953125,"response_time":1679008505697.45},{"trial":6,"action":1,"button_pressed":11,"time_out":false,"dwell_time":48.0751953125,"response_time":1679008506147.36},{"trial":6,"action":1,"button_pressed":5,"time_out":false,"dwell_time":81.8251953125,"response_time":1679008506713.73},{"trial":6,"action":9,"button_pressed":-1,"time_out":false,"dwell_time":133.109130859375,"response_time":1679008508164.51},{"trial":7,"action":1,"button_pressed":11,"time_out":false,"dwell_time":31.6669921875,"response_time":1679008530638.63},{"trial":7,"action":1,"button_pressed":2,"time_out":false,"dwell_time":64.25390625,"response_time":1679008532337.53},{"trial":7,"action":1,"button_pressed":4,"time_out":false,"dwell_time":64.804931640625,"response_time":1679008532621.44},{"trial":7,"action":1,"button_pressed":5,"time_out":false,"dwell_time":80.898193359375,"response_time":1679008532903.92},{"trial":7,"action":1,"button_pressed":0,"time_out":false,"dwell_time":46.98095703125,"response_time":1679008533221.13},{"trial":7,"action":1,"button_pressed":10,"time_out":false,"dwell_time":64.301025390625,"response_time":1679008533937.63},{"trial":7,"action":1,"button_pressed":9,"time_out":false,"dwell_time":30.695068359375,"response_time":1679008534220.73},{"trial":7,"action":1,"button_pressed":3,"time_out":false,"dwell_time":30.635986328125,"response_time":1679008534553.99},{"trial":7,"action":9,"button_pressed":-1,"time_out":false,"dwell_time":114.58203125,"response_time":1679008536020.75},{"trial":8,"action":1,"button_pressed":11,"time_out":false,"dwell_time":31.560791015625,"response_time":1679008553398.02},{"trial":8,"action":1,"button_pressed":9,"time_out":false,"dwell_time":30.48583984375,"response_time":1679008553747.81},{"trial":8,"action":1,"button_pressed":8,"time_out":false,"dwell_time":64.528076171875,"response_time":1679008554064.11},{"trial":8,"action":1,"button_pressed":6,"time_out":false,"dwell_time":49.280029296875,"response_time":1679008554514.13},{"trial":8,"action":1,"button_pressed":4,"time_out":false,"dwell_time":48.031005859375,"response_time":1679008554881.44},{"trial":8,"action":1,"button_pressed":1,"time_out":false,"dwell_time":31.402099609375,"response_time":1679008555363.96},{"trial":8,"action":1,"button_pressed":10,"time_out":false,"dwell_time":64.803955078125,"response_time":1679008555830.73},{"trial":8,"action":9,"button_pressed":-1,"time_out":false,"dwell_time":131.18408203125,"response_time":1679008556547.46},{"trial":9,"action":1,"button_pressed":7,"time_out":false,"dwell_time":64.69287109375,"response_time":1679008574108.09},{"trial":9,"action":1,"button_pressed":3,"time_out":false,"dwell_time":47.85009765625,"response_time":1679008574491.56},{"trial":9,"action":1,"button_pressed":10,"time_out":false,"dwell_time":81.69482421875,"response_time":1679008575207.62},{"trial":9,"action":1,"button_pressed":2,"time_out":false,"dwell_time":81.115966796875,"response_time":1679008575624.28},{"trial":9,"action":1,"button_pressed":4,"time_out":false,"dwell_time":48.06103515625,"response_time":1679008575957.93},{"trial":9,"action":1,"button_pressed":9,"time_out":false,"dwell_time":48.659912109375,"response_time":1679008576374.48},{"trial":9,"action":9,"button_pressed":-1,"time_out":false,"dwell_time":114.989013671875,"response_time":1679008577740.99}]}