{"meta_data":{"additional_headers":{},"game_name":"Recollect","version":"2.53.01","user_name":"63","organization":"braingamecenter","study":"mpl2_2022_11","session_number":0,"device_id":"74342D95-EE82-45E3-8ADF-48FB3203C5DD"},"data":[{"trial":0,"action":1,"button_pressed":2,"time_out":false,"dwell_time":81.916015625,"response_time":1680741448021.55},{"trial":0,"action":1,"button_pressed":9,"time_out":false,"dwell_time":64.64208984375,"response_time":1680741448587.81},{"trial":0,"action":9,"button_pressed":-1,"time_out":false,"dwell_time":110.239013671875,"response_time":1680741449482.74},{"trial":1,"action":1,"button_pressed":7,"time_out":false,"dwell_time":48.867919921875,"response_time":1680741459284.87},{"trial":1,"action":1,"button_pressed":3,"time_out":false,"dwell_time":47.427978515625,"response_time":1680741459783.93},{"trial":1,"action":1,"button_pressed":2,"time_out":false,"dwell_time":64.419189453125,"response_time":1680741460366.6},{"trial":1,"action":9,"button_pressed":-1,"time_out":false,"dwell_time":17.02978515625,"response_time":1680741460883.39},{"trial":2,"action":1,"button_pressed":8,"time_out":false,"dwell_time":64.239013671875,"response_time":1680741473579.63},{"trial":2,"action":1,"button_pressed":1,"time_out":false,"dwell_time":64.19189453125,"response_time":1680741474045.94},{"trial":2,"action":1,"button_pressed":3,"time_out":false,"dwell_time":48.213134765625,"response_time":1680741474229.03},{"trial":2,"action":1,"button_pressed":11,"time_out":false,"dwell_time":47.8349609375,"response_time":1680741474812.91},{"trial":2,"action":9,"button_pressed":-1,"time_out":false,"dwell_time":32.005859375,"response_time":1680741475879.03},{"trial":3,"action":1,"button_pressed":7,"time_out":false,"dwell_time":63.5380859375,"response_time":1680741490573.3},{"trial":3,"action":1,"button_pressed":4,"time_out":false,"dwell_time":63.684814453125,"response_time":1680741491489.64},{"trial":3,"action":1,"button_pressed":11,"time_out":false,"dwell_time":64.336181640625,"response_time":1680741491939.58},{"trial":3,"action":1,"button_pressed":3,"time_out":false,"dwell_time":30.84716796875,"response_time":1680741492139.96},{"trial":3,"action":1,"button_pressed":10,"time_out":false,"dwell_time":47.848876953125,"response_time":1680741492657.05},{"trial":3,"action":9,"button_pressed":-1,"time_out":false,"dwell_time":49.35400390625,"response_time":1680741493307.26},{"trial":4,"action":1,"button_pressed":4,"time_out":false,"dwell_time":47.98095703125,"response_time":1680741510733.64},{"trial":4,"action":1,"button_pressed":11,"time_out":false,"dwell_time":64.22900390625,"response_time":1680741511083.04},{"trial":4,"action":1,"button_pressed":3,"time_out":false,"dwell_time":48.1708984375,"response_time":1680741511417.51},{"trial":4,"action":1,"button_pressed":2,"time_out":false,"dwell_time":48.861083984375,"response_time":1680741511917.26},{"trial":4,"action":1,"button_pressed":10,"time_out":false,"dwell_time":63.77685546875,"response_time":1680741512466.6},{"trial":4,"action":1,"button_pressed":6,"time_out":false,"dwell_time":47.7158203125,"response_time":1680741512632.92},{"trial":4,"action":9,"button_pressed":-1,"time_out":false,"dwell_time":65.697021484375,"response_time":1680741513966.88},{"trial":5,"action":1,"button_pressed":3,"time_out":false,"dwell_time":81.251953125,"response_time":1680741533659.1},{"trial":5,"action":1,"button_pressed":0,"time_out":false,"dwell_time":47.303955078125,"response_time":1680741534059.25},{"trial":5,"action":1,"button_pressed":10,"time_out":false,"dwell_time":64.112060546875,"response_time":1680741535108.41},{"trial":5,"action":1,"button_pressed":5,"time_out":false,"dwell_time":81.588134765625,"response_time":1680741536242.1},{"trial":5,"action":1,"button_pressed":4,"time_out":false,"dwell_time":48.09814453125,"response_time":1680741536641.7},{"trial":5,"action":1,"button_pressed":1,"time_out":false,"dwell_time":114.24609375,"response_time":1680741537391.75},{"trial":5,"action":1,"button_pressed":2,"time_out":false,"dwell_time":47.35107421875,"response_time":1680741537591.31},{"trial":5,"action":9,"button_pressed":-1,"time_out":false,"dwell_time":31.069091796875,"response_time":1680741538041.82},{"trial":6,"action":1,"button_pressed":0,"time_out":false,"dwell_time":64.455078125,"response_time":1680741560217.6},{"trial":6,"action":1,"button_pressed":8,"time_out":false,"dwell_time":64.008056640625,"response_time":1680741560967.07},{"trial":6,"action":1,"button_pressed":6,"time_out":false,"dwell_time":63.98681640625,"response_time":1680741561233.78},{"trial":6,"action":1,"button_pressed":5,"time_out":false,"dwell_time":81.843017578125,"response_time":1680741561500.51},{"trial":6,"action":1,"button_pressed":3,"time_out":false,"dwell_time":63.47607421875,"response_time":1680741562099.45},{"trial":6,"action":1,"button_pressed":9,"time_out":false,"dwell_time":64.196044921875,"response_time":1680741562566.8},{"trial":6,"action":1,"button_pressed":2,"time_out":false,"dwell_time":48.027099609375,"response_time":1680741564583.26},{"trial":6,"action":1,"button_pressed":2,"time_out":false,"dwell_time":64.404052734375,"response_time":1680741565298.54},{"trial":6,"action":1,"button_pressed":7,"time_out":false,"dwell_time":47.37109375,"response_time":1680741566348.66},{"trial":6,"action":1,"button_pressed":2,"time_out":false,"dwell_time":48.248046875,"response_time":1680741567398.24},{"trial":6,"action":0,"button_pressed":-1,"time_out":false,"dwell_time":65.03515625,"response_time":1680741569980.93},{"trial":6,"action":1,"button_pressed":0,"time_out":false,"dwell_time":64.22607421875,"response_time":1680741570563.37},{"trial":6,"action":1,"button_pressed":8,"time_out":false,"dwell_time":64.01904296875,"response_time":1680741571563.67},{"trial":6,"action":1,"button_pressed":3,"time_out":false,"dwell_time":98.314208984375,"response_time":1680741571813.7},{"trial":6,"action":1,"button_pressed":5,"time_out":false,"dwell_time":64.838134765625,"response_time":1680741572030.22},{"trial":6,"action":1,"button_pressed":9,"time_out":false,"dwell_time":64.054931640625,"response_time":1680741572713.22},{"trial":6,"action":1,"button_pressed":7,"time_out":false,"dwell_time":81.477783203125,"response_time":1680741573229.83},{"trial":6,"action":1,"button_pressed":2,"time_out":false,"dwell_time":48.381103515625,"response_time":1680741573379.62},{"trial":6,"action":1,"button_pressed":6,"time_out":false,"dwell_time":64.735107421875,"response_time":1680741576245.41},{"trial":6,"action":9,"button_pressed":-1,"time_out":false,"dwell_time":66.016845703125,"response_time":1680741577096.84},{"trial":7,"action":1,"button_pressed":2,"time_out":false,"dwell_time":97.324951171875,"response_time":1680741599737.38},{"trial":7,"action":1,"button_pressed":4,"time_out":false,"dwell_time":64.90478515625,"response_time":1680741600204.13},{"trial":7,"action":1,"button_pressed":11,"time_out":false,"dwell_time":80.281005859375,"response_time":1680741600820.04},{"trial":7,"action":1,"button_pressed":6,"time_out":false,"dwell_time":80.974853515625,"response_time":1680741603303.42},{"trial":7,"action":1,"button_pressed":5,"time_out":false,"dwell_time":64.98291015625,"response_time":1680741605685.69},{"trial":7,"action":1,"button_pressed":0,"time_out":false,"dwell_time":63.583984375,"response_time":1680741606184.84},{"trial":7,"action":1,"button_pressed":10,"time_out":false,"dwell_time":48.18408203125,"response_time":1680741606418.7},{"trial":7,"action":1,"button_pressed":3,"time_out":false,"dwell_time":64.531982421875,"response_time":1680741606785.54},{"trial":7,"action":9,"button_pressed":-1,"time_out":false,"dwell_time":31.73095703125,"response_time":1680741607452.69},{"trial":8,"action":1,"button_pressed":11,"time_out":false,"dwell_time":81.05712890625,"response_time":1680741632126.37},{"trial":8,"action":1,"button_pressed":9,"time_out":false,"dwell_time":47.328857421875,"response_time":1680741632693.27},{"trial":8,"action":1,"button_pressed":3,"time_out":false,"dwell_time":64.39501953125,"response_time":1680741632942.73},{"trial":8,"action":1,"button_pressed":0,"time_out":false,"dwell_time":63.531982421875,"response_time":1680741633492.46},{"trial":8,"action":1,"button_pressed":3,"time_out":false,"dwell_time":84.0048828125,"response_time":1680741634342.84},{"trial":8,"action":0,"button_pressed":-1,"time_out":false,"dwell_time":64.3759765625,"response_time":1680741635609.2},{"trial":8,"action":1,"button_pressed":11,"time_out":false,"dwell_time":63.679931640625,"response_time":1680741635958.6},{"trial":8,"action":1,"button_pressed":9,"time_out":false,"dwell_time":64.25390625,"response_time":1680741636274.89},{"trial":8,"action":1,"button_pressed":0,"time_out":false,"dwell_time":48.847900390625,"response_time":1680741636875.76},{"trial":8,"action":1,"button_pressed":2,"time_out":false,"dwell_time":48.046875,"response_time":1680741637075.12},{"trial":8,"action":1,"button_pressed":3,"time_out":false,"dwell_time":64.666015625,"response_time":1680741637375},{"trial":8,"action":0,"button_pressed":-1,"time_out":false,"dwell_time":65.23095703125,"response_time":1680741638408.42},{"trial":8,"action":1,"button_pressed":11,"time_out":false,"dwell_time":63.911865234375,"response_time":1680741638757.34},{"trial":8,"action":1,"button_pressed":9,"time_out":false,"dwell_time":64.94091796875,"response_time":1680741638874.69},{"trial":8,"action":1,"button_pressed":0,"time_out":false,"dwell_time":64.591064453125,"response_time":1680741639307.5},{"trial":8,"action":1,"button_pressed":2,"time_out":false,"dwell_time":47.826904296875,"response_time":1680741639508.14},{"trial":8,"action":1,"button_pressed":7,"time_out":false,"dwell_time":63.532958984375,"response_time":1680741639857.06},{"trial":8,"action":1,"button_pressed":6,"time_out":false,"dwell_time":80.89599609375,"response_time":1680741640174.36},{"trial":8,"action":1,"button_pressed":1,"time_out":false,"dwell_time":64.94482421875,"response_time":1680741641073.91},{"trial":8,"action":1,"button_pressed":10,"time_out":false,"dwell_time":47.739990234375,"response_time":1680741641191.06},{"trial":8,"action":1,"button_pressed":3,"time_out":false,"dwell_time":64.362060546875,"response_time":1680741642573.51},{"trial":8,"action":1,"button_pressed":8,"time_out":false,"dwell_time":47.383056640625,"response_time":1680741642673.32},{"trial":8,"action":9,"button_pressed":-1,"time_out":false,"dwell_time":16.869873046875,"response_time":1680741643356.09},{"trial":9,"action":1,"button_pressed":7,"time_out":false,"dwell_time":63.7509765625,"response_time":1680741668581.51},{"trial":9,"action":1,"button_pressed":1,"time_out":false,"dwell_time":64.03515625,"response_time":1680741668864.69},{"trial":9,"action":1,"button_pressed":9,"time_out":false,"dwell_time":63.947998046875,"response_time":1680741669014.74},{"trial":9,"action":1,"button_pressed":10,"time_out":false,"dwell_time":81.212158203125,"response_time":1680741669264.5},{"trial":9,"action":1,"button_pressed":0,"time_out":false,"dwell_time":64.4599609375,"response_time":1680741670181.19},{"trial":9,"action":1,"button_pressed":6,"time_out":false,"dwell_time":65.476806640625,"response_time":1680741670763.62},{"trial":9,"action":1,"button_pressed":8,"time_out":false,"dwell_time":63.781982421875,"response_time":1680741670930.71},{"trial":9,"action":1,"button_pressed":2,"time_out":false,"dwell_time":48.85107421875,"response_time":1680741671181.31},{"trial":9,"action":9,"button_pressed":-1,"time_out":false,"dwell_time":49.79296875,"response_time":1680741671765.68},{"trial":10,"action":1,"button_pressed":0,"time_out":false,"dwell_time":64.638916015625,"response_time":1680741691707.31},{"trial":10,"action":1,"button_pressed":10,"time_out":false,"dwell_time":64.8310546875,"response_time":1680741693690.09},{"trial":10,"action":1,"button_pressed":6,"time_out":false,"dwell_time":63.330078125,"response_time":1680741695455.25},{"trial":10,"action":1,"button_pressed":8,"time_out":false,"dwell_time":48.284912109375,"response_time":1680741695656.73},{"trial":10,"action":1,"button_pressed":5,"time_out":false,"dwell_time":48.423095703125,"response_time":1680741695889.16},{"trial":10,"action":1,"button_pressed":2,"time_out":false,"dwell_time":47.826904296875,"response_time":1680741696122.82},{"trial":10,"action":1,"button_pressed":9,"time_out":false,"dwell_time":63.962890625,"response_time":1680741696372.46},{"trial":10,"action":9,"button_pressed":-1,"time_out":true,"dwell_time":10075.9880371094,"response_time":1680741706384.48},{"trial":11,"action":1,"button_pressed":7,"time_out":false,"dwell_time":64.10205078125,"response_time":1680741732026.54},{"trial":11,"action":1,"button_pressed":9,"time_out":false,"dwell_time":47.25,"response_time":1680741734409.5},{"trial":11,"action":1,"button_pressed":1,"time_out":false,"dwell_time":114.057861328125,"response_time":1680741736908.81},{"trial":11,"action":1,"button_pressed":4,"time_out":false,"dwell_time":64.384033203125,"response_time":1680741737158.3},{"trial":11,"action":1,"button_pressed":8,"time_out":false,"dwell_time":48.550048828125,"response_time":1680741737875.66},{"trial":11,"action":9,"button_pressed":-1,"time_out":false,"dwell_time":65.35986328125,"response_time":1680741738375.57}]}