{"meta_data":{"additional_headers":{},"game_name":"Recollect","version":"2.53.01","user_name":"64","organization":"braingamecenter","study":"mpl2_2022_11","session_number":0,"device_id":"74342D95-EE82-45E3-8ADF-48FB3203C5DD"},"data":[{"trial":0,"action":1,"button_pressed":11,"time_out":false,"dwell_time":48.123046875,"response_time":1680911124738.84},{"trial":0,"action":1,"button_pressed":8,"time_out":false,"dwell_time":64.6220703125,"response_time":1680911125288.13},{"trial":0,"action":9,"button_pressed":-1,"time_out":false,"dwell_time":74.56298828125,"response_time":1680911125980.73},{"trial":1,"action":1,"button_pressed":1,"time_out":false,"dwell_time":47.592041015625,"response_time":1680911135667.97},{"trial":1,"action":1,"button_pressed":6,"time_out":false,"dwell_time":64.199951171875,"response_time":1680911135950.65},{"trial":1,"action":1,"button_pressed":8,"time_out":false,"dwell_time":63.44384765625,"response_time":1680911136350.5},{"trial":1,"action":9,"button_pressed":-1,"time_out":false,"dwell_time":48.626953125,"response_time":1680911136984.5},{"trial":2,"action":1,"button_pressed":0,"time_out":false,"dwell_time":65.26904296875,"response_time":1680911149030.68},{"trial":2,"action":1,"button_pressed":10,"time_out":false,"dwell_time":97.652099609375,"response_time":1680911149430.36},{"trial":2,"action":1,"button_pressed":2,"time_out":false,"dwell_time":65.0830078125,"response_time":1680911149830.04},{"trial":2,"action":1,"button_pressed":6,"time_out":false,"dwell_time":47.947998046875,"response_time":1680911150396.28},{"trial":2,"action":9,"button_pressed":-1,"time_out":false,"dwell_time":64.9521484375,"response_time":1680911151079.61},{"trial":3,"action":1,"button_pressed":7,"time_out":false,"dwell_time":64.342041015625,"response_time":1680911165908.24},{"trial":3,"action":1,"button_pressed":4,"time_out":false,"dwell_time":81.85205078125,"response_time":1680911166358.11},{"trial":3,"action":1,"button_pressed":11,"time_out":false,"dwell_time":64.760009765625,"response_time":1680911166924.44},{"trial":3,"action":1,"button_pressed":3,"time_out":false,"dwell_time":64.257080078125,"response_time":1680911167323.45},{"trial":3,"action":1,"button_pressed":10,"time_out":false,"dwell_time":64.929931640625,"response_time":1680911167724.09},{"trial":3,"action":9,"button_pressed":-1,"time_out":false,"dwell_time":64.222900390625,"response_time":1680911168307.13},{"trial":4,"action":1,"button_pressed":9,"time_out":false,"dwell_time":65.030029296875,"response_time":1680911185734.89},{"trial":4,"action":1,"button_pressed":1,"time_out":false,"dwell_time":64.327880859375,"response_time":1680911186250.71},{"trial":4,"action":1,"button_pressed":2,"time_out":false,"dwell_time":80.93896484375,"response_time":1680911186767.89},{"trial":4,"action":1,"button_pressed":8,"time_out":false,"dwell_time":47.39501953125,"response_time":1680911187167.61},{"trial":4,"action":1,"button_pressed":6,"time_out":false,"dwell_time":48.01708984375,"response_time":1680911187617.28},{"trial":4,"action":1,"button_pressed":11,"time_out":false,"dwell_time":63.48388671875,"response_time":1680911188016.73},{"trial":4,"action":9,"button_pressed":-1,"time_out":false,"dwell_time":64.75390625,"response_time":1680911188734.33},{"trial":5,"action":1,"button_pressed":2,"time_out":false,"dwell_time":48.39501953125,"response_time":1680911208610.56},{"trial":5,"action":1,"button_pressed":6,"time_out":false,"dwell_time":47.232177734375,"response_time":1680911209093.58},{"trial":5,"action":1,"button_pressed":9,"time_out":false,"dwell_time":48.1640625,"response_time":1680911209394.29},{"trial":5,"action":1,"button_pressed":0,"time_out":false,"dwell_time":47.6689453125,"response_time":1680911209810.19},{"trial":5,"action":1,"button_pressed":3,"time_out":false,"dwell_time":48.76611328125,"response_time":1680911210093.96},{"trial":5,"action":1,"button_pressed":10,"time_out":false,"dwell_time":48.172119140625,"response_time":1680911210509.89},{"trial":5,"action":1,"button_pressed":7,"time_out":false,"dwell_time":31.48193359375,"response_time":1680911210859.76},{"trial":5,"action":9,"button_pressed":-1,"time_out":false,"dwell_time":31.2099609375,"response_time":1680911211476.65},{"trial":6,"action":1,"button_pressed":3,"time_out":false,"dwell_time":64.21484375,"response_time":1680911233919.18},{"trial":6,"action":1,"button_pressed":1,"time_out":false,"dwell_time":81.796875,"response_time":1680911234235.89},{"trial":6,"action":1,"button_pressed":8,"time_out":false,"dwell_time":64.06396484375,"response_time":1680911234668.96},{"trial":6,"action":1,"button_pressed":5,"time_out":false,"dwell_time":63.31591796875,"response_time":1680911234968.12},{"trial":6,"action":1,"button_pressed":7,"time_out":false,"dwell_time":47.739990234375,"response_time":1680911235484.96},{"trial":6,"action":1,"button_pressed":0,"time_out":false,"dwell_time":48.015869140625,"response_time":1680911238084.88},{"trial":6,"action":1,"button_pressed":9,"time_out":false,"dwell_time":48.003173828125,"response_time":1680911238484.04},{"trial":6,"action":1,"button_pressed":10,"time_out":false,"dwell_time":47.35791015625,"response_time":1680911238750.69},{"trial":6,"action":9,"button_pressed":-1,"time_out":false,"dwell_time":81.35205078125,"response_time":1680911243599.82},{"trial":7,"action":1,"button_pressed":1,"time_out":false,"dwell_time":80.35009765625,"response_time":1680911268807.04},{"trial":7,"action":1,"button_pressed":6,"time_out":false,"dwell_time":47.0439453125,"response_time":1680911269407.04},{"trial":7,"action":1,"button_pressed":2,"time_out":false,"dwell_time":80.85888671875,"response_time":1680911270123.86},{"trial":7,"action":1,"button_pressed":5,"time_out":false,"dwell_time":80.8798828125,"response_time":1680911272439.78},{"trial":7,"action":1,"button_pressed":11,"time_out":false,"dwell_time":47.378173828125,"response_time":1680911273039.39},{"trial":7,"action":1,"button_pressed":0,"time_out":false,"dwell_time":64.988037109375,"response_time":1680911273672.61},{"trial":7,"action":1,"button_pressed":7,"time_out":false,"dwell_time":47.106201171875,"response_time":1680911274222.3},{"trial":7,"action":1,"button_pressed":10,"time_out":false,"dwell_time":46.8818359375,"response_time":1680911275371.83},{"trial":7,"action":9,"button_pressed":-1,"time_out":false,"dwell_time":64.25390625,"response_time":1680911276088.61},{"trial":8,"action":1,"button_pressed":8,"time_out":false,"dwell_time":81.52197265625,"response_time":1680911301980.09},{"trial":8,"action":1,"button_pressed":10,"time_out":false,"dwell_time":64.0830078125,"response_time":1680911302729.11},{"trial":8,"action":1,"button_pressed":1,"time_out":false,"dwell_time":80.27197265625,"response_time":1680911303495.58},{"trial":8,"action":1,"button_pressed":9,"time_out":false,"dwell_time":63.51904296875,"response_time":1680911304211.99},{"trial":8,"action":1,"button_pressed":4,"time_out":false,"dwell_time":64.261962890625,"response_time":1680911305278.87},{"trial":8,"action":1,"button_pressed":6,"time_out":false,"dwell_time":63.44091796875,"response_time":1680911305660.89},{"trial":8,"action":1,"button_pressed":2,"time_out":false,"dwell_time":65.45703125,"response_time":1680911306178.66},{"trial":8,"action":1,"button_pressed":7,"time_out":false,"dwell_time":47.305908203125,"response_time":1680911306794.9},{"trial":8,"action":9,"button_pressed":-1,"time_out":false,"dwell_time":81.465087890625,"response_time":1680911307761.93},{"trial":9,"action":1,"button_pressed":1,"time_out":false,"dwell_time":80.458984375,"response_time":1680911327621.1},{"trial":9,"action":1,"button_pressed":9,"time_out":false,"dwell_time":64.1591796875,"response_time":1680911328054.97},{"trial":9,"action":1,"button_pressed":7,"time_out":false,"dwell_time":63.43701171875,"response_time":1680911328403.94},{"trial":9,"action":1,"button_pressed":2,"time_out":false,"dwell_time":80.923828125,"response_time":1680911328887.85},{"trial":9,"action":1,"button_pressed":5,"time_out":false,"dwell_time":64.156982421875,"response_time":1680911329204.33},{"trial":9,"action":1,"button_pressed":11,"time_out":false,"dwell_time":80.89794921875,"response_time":1680911329737.55},{"trial":9,"action":1,"button_pressed":3,"time_out":false,"dwell_time":64.089111328125,"response_time":1680911330203.42},{"trial":9,"action":9,"button_pressed":-1,"time_out":false,"dwell_time":64.719970703125,"response_time":1680911330986.95},{"trial":10,"action":1,"button_pressed":4,"time_out":false,"dwell_time":81.1640625,"response_time":1680911353445.88},{"trial":10,"action":1,"button_pressed":11,"time_out":false,"dwell_time":81.62109375,"response_time":1680911353912.94},{"trial":10,"action":1,"button_pressed":7,"time_out":false,"dwell_time":81.44091796875,"response_time":1680911354229.37},{"trial":10,"action":1,"button_pressed":0,"time_out":false,"dwell_time":64.984130859375,"response_time":1680911355545.8},{"trial":10,"action":1,"button_pressed":2,"time_out":false,"dwell_time":81.81298828125,"response_time":1680911355895.54},{"trial":10,"action":1,"button_pressed":1,"time_out":false,"dwell_time":47.35302734375,"response_time":1680911356428.54},{"trial":10,"action":1,"button_pressed":3,"time_out":false,"dwell_time":64.135986328125,"response_time":1680911356795.27},{"trial":10,"action":1,"button_pressed":9,"time_out":false,"dwell_time":48.10205078125,"response_time":1680911357194.99},{"trial":10,"action":9,"button_pressed":-1,"time_out":false,"dwell_time":81.909912109375,"response_time":1680911357945.19},{"trial":11,"action":1,"button_pressed":7,"time_out":false,"dwell_time":47.206787109375,"response_time":1680911382836.54},{"trial":11,"action":1,"button_pressed":1,"time_out":false,"dwell_time":64.99609375,"response_time":1680911383353.22},{"trial":11,"action":1,"button_pressed":0,"time_out":false,"dwell_time":80.730224609375,"response_time":1680911383903},{"trial":11,"action":1,"button_pressed":10,"time_out":false,"dwell_time":81.682861328125,"response_time":1680911384386.34},{"trial":11,"action":1,"button_pressed":6,"time_out":false,"dwell_time":46.944091796875,"response_time":1680911384852.31},{"trial":11,"action":1,"button_pressed":9,"time_out":false,"dwell_time":64.73095703125,"response_time":1680911385302.4},{"trial":11,"action":1,"button_pressed":8,"time_out":false,"dwell_time":80.76904296875,"response_time":1680911385752.36},{"trial":11,"action":1,"button_pressed":3,"time_out":false,"dwell_time":65.087158203125,"response_time":1680911386185.59},{"trial":11,"action":1,"button_pressed":2,"time_out":false,"dwell_time":81.467041015625,"response_time":1680911386652.15},{"trial":11,"action":9,"button_pressed":-1,"time_out":false,"dwell_time":16.64990234375,"response_time":1680911387084.73},{"trial":12,"action":1,"button_pressed":4,"time_out":false,"dwell_time":64.22802734375,"response_time":1680911412592.97},{"trial":12,"action":1,"button_pressed":2,"time_out":false,"dwell_time":64.35595703125,"response_time":1680911413159.31},{"trial":12,"action":1,"button_pressed":7,"time_out":false,"dwell_time":64.7529296875,"response_time":1680911413743.11},{"trial":12,"action":1,"button_pressed":9,"time_out":false,"dwell_time":63.60888671875,"response_time":1680911414225.75},{"trial":12,"action":1,"button_pressed":1,"time_out":false,"dwell_time":64.152099609375,"response_time":1680911416141.81},{"trial":12,"action":1,"button_pressed":3,"time_out":false,"dwell_time":64.381103515625,"response_time":1680911416625.04},{"trial":12,"action":1,"button_pressed":5,"time_out":false,"dwell_time":64.967041015625,"response_time":1680911417042.07},{"trial":12,"action":1,"button_pressed":6,"time_out":false,"dwell_time":47.453857421875,"response_time":1680911417442},{"trial":12,"action":1,"button_pressed":11,"time_out":false,"dwell_time":48.760986328125,"response_time":1680911417742.4},{"trial":12,"action":9,"button_pressed":-1,"time_out":false,"dwell_time":47.70703125,"response_time":1680911418708.39},{"trial":13,"action":1,"button_pressed":9,"time_out":false,"dwell_time":64.30908203125,"response_time":1680911446682.5},{"trial":13,"action":1,"button_pressed":8,"time_out":false,"dwell_time":80.302001953125,"response_time":1680911447081.65},{"trial":13,"action":1,"button_pressed":5,"time_out":false,"dwell_time":64.868896484375,"response_time":1680911447448.87},{"trial":13,"action":1,"button_pressed":6,"time_out":false,"dwell_time":47.703857421875,"response_time":1680911447865.01},{"trial":13,"action":1,"button_pressed":1,"time_out":false,"dwell_time":64.94091796875,"response_time":1680911448248.44},{"trial":13,"action":1,"button_pressed":10,"time_out":false,"dwell_time":79.984130859375,"response_time":1680911448647.54},{"trial":13,"action":1,"button_pressed":4,"time_out":false,"dwell_time":64.22802734375,"response_time":1680911449031.6},{"trial":13,"action":1,"button_pressed":11,"time_out":false,"dwell_time":64.327880859375,"response_time":1680911449397.59},{"trial":13,"action":1,"button_pressed":0,"time_out":false,"dwell_time":81.583984375,"response_time":1680911449814.71},{"trial":13,"action":9,"button_pressed":-1,"time_out":false,"dwell_time":31.800048828125,"response_time":1680911450131.41},{"trial":14,"action":1,"button_pressed":10,"time_out":false,"dwell_time":98.405029296875,"response_time":1680911477472.32},{"trial":14,"action":1,"button_pressed":6,"time_out":false,"dwell_time":47.83203125,"response_time":1680911480004.31},{"trial":14,"action":1,"button_pressed":7,"time_out":false,"dwell_time":48.176025390625,"response_time":1680911480504.4},{"trial":14,"action":1,"button_pressed":4,"time_out":false,"dwell_time":64.2099609375,"response_time":1680911481254.13},{"trial":14,"action":1,"button_pressed":11,"time_out":false,"dwell_time":48.032958984375,"response_time":1680911482370.96},{"trial":14,"action":1,"button_pressed":9,"time_out":false,"dwell_time":48.509033203125,"response_time":1680911482854.2},{"trial":14,"action":1,"button_pressed":1,"time_out":false,"dwell_time":64.680908203125,"response_time":1680911483270.3},{"trial":14,"action":1,"button_pressed":2,"time_out":false,"dwell_time":48.05712890625,"response_time":1680911483769.98},{"trial":14,"action":1,"button_pressed":8,"time_out":false,"dwell_time":47.3720703125,"response_time":1680911484269.81},{"trial":14,"action":9,"button_pressed":-1,"time_out":false,"dwell_time":48.112060546875,"response_time":1680911485503.06}]}