{"meta_data":{"additional_headers":{},"game_name":"Recollect","version":"2.53.01","user_name":"66","organization":"braingamecenter","study":"mpl2_2022_11","session_number":0,"device_id":"74342D95-EE82-45E3-8ADF-48FB3203C5DD"},"data":[{"trial":0,"action":1,"button_pressed":4,"time_out":false,"dwell_time":63.5068359375,"response_time":1681169748769.11},{"trial":0,"action":1,"button_pressed":11,"time_out":false,"dwell_time":31.18310546875,"response_time":1681169749235.93},{"trial":0,"action":9,"button_pressed":-1,"time_out":false,"dwell_time":92.703125,"response_time":1681169750013.84},{"trial":1,"action":1,"button_pressed":7,"time_out":false,"dwell_time":63.7080078125,"response_time":1681169759748.86},{"trial":1,"action":1,"button_pressed":3,"time_out":false,"dwell_time":48.06396484375,"response_time":1681169760133.01},{"trial":1,"action":1,"button_pressed":2,"time_out":false,"dwell_time":30.9248046875,"response_time":1681169760848.94},{"trial":1,"action":9,"button_pressed":-1,"time_out":false,"dwell_time":47.64697265625,"response_time":1681169761432.31},{"trial":2,"action":1,"button_pressed":8,"time_out":false,"dwell_time":47.849853515625,"response_time":1681169773361.32},{"trial":2,"action":1,"button_pressed":1,"time_out":false,"dwell_time":47.235107421875,"response_time":1681169773860.98},{"trial":2,"action":1,"button_pressed":3,"time_out":false,"dwell_time":32.115966796875,"response_time":1681169774278.25},{"trial":2,"action":1,"button_pressed":11,"time_out":false,"dwell_time":30.573974609375,"response_time":1681169774994.06},{"trial":2,"action":9,"button_pressed":-1,"time_out":false,"dwell_time":64.009033203125,"response_time":1681169775610.49},{"trial":3,"action":1,"button_pressed":10,"time_out":false,"dwell_time":48.057861328125,"response_time":1681169790089.75},{"trial":3,"action":1,"button_pressed":5,"time_out":false,"dwell_time":64.51123046875,"response_time":1681169790438.48},{"trial":3,"action":1,"button_pressed":3,"time_out":false,"dwell_time":63.6328125,"response_time":1681169790938.31},{"trial":3,"action":1,"button_pressed":6,"time_out":false,"dwell_time":48.633056640625,"response_time":1681169791689.12},{"trial":3,"action":1,"button_pressed":2,"time_out":false,"dwell_time":48.490966796875,"response_time":1681169792088.84},{"trial":3,"action":9,"button_pressed":-1,"time_out":false,"dwell_time":115.52099609375,"response_time":1681169792872.02},{"trial":4,"action":1,"button_pressed":7,"time_out":false,"dwell_time":64.361083984375,"response_time":1681169809832.12},{"trial":4,"action":1,"button_pressed":3,"time_out":false,"dwell_time":63.77294921875,"response_time":1681169810215.36},{"trial":4,"action":1,"button_pressed":8,"time_out":false,"dwell_time":98.120849609375,"response_time":1681169810732.22},{"trial":4,"action":1,"button_pressed":0,"time_out":false,"dwell_time":114.51708984375,"response_time":1681169811698.17},{"trial":4,"action":1,"button_pressed":4,"time_out":false,"dwell_time":48.10498046875,"response_time":1681169811948.27},{"trial":4,"action":1,"button_pressed":1,"time_out":false,"dwell_time":31.469970703125,"response_time":1681169812364.88},{"trial":4,"action":9,"button_pressed":-1,"time_out":false,"dwell_time":64.072998046875,"response_time":1681169813747.68},{"trial":5,"action":1,"button_pressed":10,"time_out":false,"dwell_time":48.196044921875,"response_time":1681169834141.8},{"trial":5,"action":1,"button_pressed":1,"time_out":false,"dwell_time":48.09423828125,"response_time":1681169834657.38},{"trial":5,"action":1,"button_pressed":2,"time_out":false,"dwell_time":48.674072265625,"response_time":1681169835141.12},{"trial":5,"action":1,"button_pressed":0,"time_out":false,"dwell_time":64.269775390625,"response_time":1681169835439.96},{"trial":5,"action":1,"button_pressed":7,"time_out":false,"dwell_time":47.077880859375,"response_time":1681169835873.48},{"trial":5,"action":1,"button_pressed":6,"time_out":false,"dwell_time":47.238037109375,"response_time":1681169836140.27},{"trial":5,"action":1,"button_pressed":4,"time_out":false,"dwell_time":48.114990234375,"response_time":1681169836424.17},{"trial":5,"action":9,"button_pressed":-1,"time_out":false,"dwell_time":80.81591796875,"response_time":1681169838406.26},{"trial":6,"action":1,"button_pressed":6,"time_out":false,"dwell_time":47.885009765625,"response_time":1681169857966.99},{"trial":6,"action":1,"button_pressed":10,"time_out":false,"dwell_time":47.7998046875,"response_time":1681169858283.35},{"trial":6,"action":1,"button_pressed":11,"time_out":false,"dwell_time":47.3369140625,"response_time":1681169858599.43},{"trial":6,"action":1,"button_pressed":4,"time_out":false,"dwell_time":47.37109375,"response_time":1681169858932.52},{"trial":6,"action":1,"button_pressed":8,"time_out":false,"dwell_time":31.092041015625,"response_time":1681169860532.62},{"trial":6,"action":1,"button_pressed":3,"time_out":false,"dwell_time":48.781982421875,"response_time":1681169860932.59},{"trial":6,"action":1,"button_pressed":5,"time_out":false,"dwell_time":48.046875,"response_time":1681169861981.44},{"trial":6,"action":9,"button_pressed":-1,"time_out":false,"dwell_time":47.4521484375,"response_time":1681169863298.3},{"trial":7,"action":1,"button_pressed":6,"time_out":false,"dwell_time":97.383056640625,"response_time":1681169886939.66},{"trial":7,"action":1,"button_pressed":0,"time_out":false,"dwell_time":113.56494140625,"response_time":1681169888638.91},{"trial":7,"action":1,"button_pressed":5,"time_out":false,"dwell_time":48.0048828125,"response_time":1681169889072.56},{"trial":7,"action":1,"button_pressed":10,"time_out":false,"dwell_time":64.050048828125,"response_time":1681169889371.99},{"trial":7,"action":1,"button_pressed":8,"time_out":false,"dwell_time":64.074951171875,"response_time":1681169889588.68},{"trial":7,"action":1,"button_pressed":1,"time_out":false,"dwell_time":81.373046875,"response_time":1681169890655.34},{"trial":7,"action":1,"button_pressed":7,"time_out":false,"dwell_time":31.156982421875,"response_time":1681169890939.25},{"trial":7,"action":9,"button_pressed":-1,"time_out":false,"dwell_time":115.52294921875,"response_time":1681169894005.86},{"trial":8,"action":1,"button_pressed":1,"time_out":false,"dwell_time":130.377197265625,"response_time":1681169916546.42},{"trial":8,"action":1,"button_pressed":10,"time_out":false,"dwell_time":47.79296875,"response_time":1681169917030.53},{"trial":8,"action":1,"button_pressed":0,"time_out":false,"dwell_time":97.0380859375,"response_time":1681169917629.28},{"trial":8,"action":1,"button_pressed":2,"time_out":false,"dwell_time":47.141845703125,"response_time":1681169917962.73},{"trial":8,"action":1,"button_pressed":3,"time_out":false,"dwell_time":65.125,"response_time":1681169918329.74},{"trial":8,"action":1,"button_pressed":7,"time_out":false,"dwell_time":80.89208984375,"response_time":1681169918696.33},{"trial":8,"action":1,"button_pressed":9,"time_out":false,"dwell_time":47.285888671875,"response_time":1681169922477.94},{"trial":8,"action":9,"button_pressed":-1,"time_out":false,"dwell_time":81.454833984375,"response_time":1681169924310.88},{"trial":9,"action":1,"button_pressed":5,"time_out":false,"dwell_time":63.767822265625,"response_time":1681169941538.01},{"trial":9,"action":1,"button_pressed":10,"time_out":false,"dwell_time":48.529052734375,"response_time":1681169941822.32},{"trial":9,"action":1,"button_pressed":7,"time_out":false,"dwell_time":47.59912109375,"response_time":1681169942671.2},{"trial":9,"action":1,"button_pressed":4,"time_out":false,"dwell_time":131.01806640625,"response_time":1681169943354.13},{"trial":9,"action":1,"button_pressed":0,"time_out":false,"dwell_time":47.294921875,"response_time":1681169943620.98},{"trial":9,"action":1,"button_pressed":8,"time_out":false,"dwell_time":30.204833984375,"response_time":1681169944004.01},{"trial":9,"action":9,"button_pressed":-1,"time_out":false,"dwell_time":48.327880859375,"response_time":1681169945071.47},{"trial":10,"action":1,"button_pressed":8,"time_out":false,"dwell_time":65.06201171875,"response_time":1681169964614.34},{"trial":10,"action":1,"button_pressed":5,"time_out":false,"dwell_time":64.99609375,"response_time":1681169964814.12},{"trial":10,"action":1,"button_pressed":6,"time_out":false,"dwell_time":414.718994140625,"response_time":1681169965630.68},{"trial":10,"action":0,"button_pressed":-1,"time_out":false,"dwell_time":98.205078125,"response_time":1681169969145.9},{"trial":10,"action":1,"button_pressed":8,"time_out":false,"dwell_time":64.0810546875,"response_time":1681169969794.99},{"trial":10,"action":1,"button_pressed":5,"time_out":false,"dwell_time":64.406982421875,"response_time":1681169970012.19},{"trial":10,"action":1,"button_pressed":1,"time_out":false,"dwell_time":64.301025390625,"response_time":1681169970478.06},{"trial":10,"action":1,"button_pressed":6,"time_out":false,"dwell_time":47.06298828125,"response_time":1681169970778.47},{"trial":10,"action":1,"button_pressed":0,"time_out":false,"dwell_time":64.239013671875,"response_time":1681169971145.3},{"trial":10,"action":1,"button_pressed":7,"time_out":false,"dwell_time":64.06396484375,"response_time":1681169971578.39},{"trial":10,"action":1,"button_pressed":11,"time_out":false,"dwell_time":31.169921875,"response_time":1681169972112},{"trial":10,"action":9,"button_pressed":-1,"time_out":false,"dwell_time":48.473876953125,"response_time":1681169972712.21},{"trial":11,"action":1,"button_pressed":9,"time_out":false,"dwell_time":80.97705078125,"response_time":1681169999885.17},{"trial":11,"action":1,"button_pressed":11,"time_out":false,"dwell_time":114.178955078125,"response_time":1681170001451.03},{"trial":11,"action":1,"button_pressed":0,"time_out":false,"dwell_time":112.66015625,"response_time":1681170005566.36},{"trial":11,"action":1,"button_pressed":2,"time_out":false,"dwell_time":97.27392578125,"response_time":1681170006216.73},{"trial":11,"action":1,"button_pressed":1,"time_out":false,"dwell_time":48.660888671875,"response_time":1681170007116.92},{"trial":11,"action":1,"button_pressed":3,"time_out":false,"dwell_time":65.055908203125,"response_time":1681170007883.06},{"trial":11,"action":1,"button_pressed":4,"time_out":false,"dwell_time":31.4609375,"response_time":1681170008099.36},{"trial":11,"action":9,"button_pressed":-1,"time_out":false,"dwell_time":131.722900390625,"response_time":1681170010915.34},{"trial":12,"action":1,"button_pressed":7,"time_out":false,"dwell_time":31.583984375,"response_time":1681170033057.87},{"trial":12,"action":1,"button_pressed":5,"time_out":false,"dwell_time":197.524169921875,"response_time":1681170034506.66},{"trial":12,"action":1,"button_pressed":3,"time_out":false,"dwell_time":48.703125,"response_time":1681170035090.92},{"trial":12,"action":1,"button_pressed":4,"time_out":false,"dwell_time":65.028076171875,"response_time":1681170035373.79},{"trial":12,"action":1,"button_pressed":1,"time_out":false,"dwell_time":47.804931640625,"response_time":1681170035739.86},{"trial":12,"action":1,"button_pressed":10,"time_out":false,"dwell_time":47.219970703125,"response_time":1681170036173.32},{"trial":12,"action":1,"button_pressed":2,"time_out":false,"dwell_time":30.481201171875,"response_time":1681170036456.25},{"trial":12,"action":9,"button_pressed":-1,"time_out":false,"dwell_time":80.910888671875,"response_time":1681170037023.44}]}