{"meta_data":{"additional_headers":{},"game_name":"Recollect","version":"2.53.01","user_name":"68","organization":"braingamecenter","study":"mpl2_2022_11","session_number":0,"device_id":"74342D95-EE82-45E3-8ADF-48FB3203C5DD"},"data":[{"trial":0,"action":1,"button_pressed":7,"time_out":false,"dwell_time":131.174072265625,"response_time":1681321559796.54},{"trial":0,"action":1,"button_pressed":4,"time_out":false,"dwell_time":81.717041015625,"response_time":1681321560563.47},{"trial":0,"action":9,"button_pressed":-1,"time_out":false,"dwell_time":26.421875,"response_time":1681321561255.77},{"trial":1,"action":1,"button_pressed":5,"time_out":false,"dwell_time":48.11083984375,"response_time":1681321571126.49},{"trial":1,"action":1,"button_pressed":8,"time_out":false,"dwell_time":47.651123046875,"response_time":1681321571610.13},{"trial":1,"action":1,"button_pressed":0,"time_out":false,"dwell_time":65.02294921875,"response_time":1681321572259.54},{"trial":1,"action":9,"button_pressed":-1,"time_out":false,"dwell_time":64.073974609375,"response_time":1681321573159.07},{"trial":2,"action":1,"button_pressed":2,"time_out":false,"dwell_time":98.274169921875,"response_time":1681321585155.46},{"trial":2,"action":1,"button_pressed":4,"time_out":false,"dwell_time":97.616943359375,"response_time":1681321585705.17},{"trial":2,"action":1,"button_pressed":10,"time_out":false,"dwell_time":47.078125,"response_time":1681321586188.18},{"trial":2,"action":1,"button_pressed":5,"time_out":false,"dwell_time":96.767822265625,"response_time":1681321586754.26},{"trial":2,"action":9,"button_pressed":-1,"time_out":false,"dwell_time":115.484130859375,"response_time":1681321587405.09},{"trial":3,"action":1,"button_pressed":8,"time_out":false,"dwell_time":115.10009765625,"response_time":1681321601900.11},{"trial":3,"action":1,"button_pressed":4,"time_out":false,"dwell_time":64.178955078125,"response_time":1681321602549.71},{"trial":3,"action":1,"button_pressed":1,"time_out":false,"dwell_time":131.68115234375,"response_time":1681321602999.51},{"trial":3,"action":1,"button_pressed":5,"time_out":false,"dwell_time":114.31396484375,"response_time":1681321603316.15},{"trial":3,"action":1,"button_pressed":3,"time_out":false,"dwell_time":114.046875,"response_time":1681321604115.69},{"trial":3,"action":9,"button_pressed":-1,"time_out":false,"dwell_time":115.509033203125,"response_time":1681321604832.86},{"trial":4,"action":1,"button_pressed":8,"time_out":false,"dwell_time":97.72802734375,"response_time":1681321622059.46},{"trial":4,"action":1,"button_pressed":0,"time_out":false,"dwell_time":47.242919921875,"response_time":1681321622992.68},{"trial":4,"action":1,"button_pressed":1,"time_out":false,"dwell_time":130.60888671875,"response_time":1681321623476.27},{"trial":4,"action":1,"button_pressed":9,"time_out":false,"dwell_time":64.13818359375,"response_time":1681321624175.23},{"trial":4,"action":1,"button_pressed":5,"time_out":false,"dwell_time":81.735107421875,"response_time":1681321625175.71},{"trial":4,"action":9,"button_pressed":-1,"time_out":false,"dwell_time":98.16015625,"response_time":1681321627208.88},{"trial":5,"action":1,"button_pressed":9,"time_out":false,"dwell_time":65.17919921875,"response_time":1681321645369.17},{"trial":5,"action":1,"button_pressed":6,"time_out":false,"dwell_time":47.18408203125,"response_time":1681321645735.25},{"trial":5,"action":1,"button_pressed":1,"time_out":false,"dwell_time":98.487060546875,"response_time":1681321646152.29},{"trial":5,"action":1,"button_pressed":2,"time_out":false,"dwell_time":65.010009765625,"response_time":1681321646568.56},{"trial":5,"action":1,"button_pressed":8,"time_out":false,"dwell_time":48.679931640625,"response_time":1681321647018.91},{"trial":5,"action":1,"button_pressed":11,"time_out":false,"dwell_time":30.593994140625,"response_time":1681321647634.7},{"trial":5,"action":9,"button_pressed":-1,"time_out":false,"dwell_time":114.641845703125,"response_time":1681321648385.16},{"trial":6,"action":1,"button_pressed":6,"time_out":false,"dwell_time":48.090087890625,"response_time":1681321660964.5},{"trial":6,"action":1,"button_pressed":8,"time_out":false,"dwell_time":80.677001953125,"response_time":1681321661563.05},{"trial":6,"action":1,"button_pressed":11,"time_out":false,"dwell_time":47.93798828125,"response_time":1681321662113.91},{"trial":6,"action":1,"button_pressed":7,"time_out":false,"dwell_time":47.716064453125,"response_time":1681321662347.25},{"trial":6,"action":9,"button_pressed":-1,"time_out":false,"dwell_time":47.64990234375,"response_time":1681321663113.26},{"trial":7,"action":1,"button_pressed":11,"time_out":false,"dwell_time":65.227783203125,"response_time":1681321677758.52},{"trial":7,"action":1,"button_pressed":1,"time_out":false,"dwell_time":81.802001953125,"response_time":1681321678175.04},{"trial":7,"action":1,"button_pressed":9,"time_out":false,"dwell_time":48.031005859375,"response_time":1681321678575.26},{"trial":7,"action":1,"button_pressed":7,"time_out":false,"dwell_time":65.14990234375,"response_time":1681321678958.32},{"trial":7,"action":1,"button_pressed":4,"time_out":false,"dwell_time":48.044189453125,"response_time":1681321679524.19},{"trial":7,"action":9,"button_pressed":-1,"time_out":false,"dwell_time":47.923828125,"response_time":1681321681557.43},{"trial":8,"action":1,"button_pressed":0,"time_out":false,"dwell_time":81.213134765625,"response_time":1681321698485.16},{"trial":8,"action":1,"button_pressed":4,"time_out":false,"dwell_time":80.744140625,"response_time":1681321698818.13},{"trial":8,"action":1,"button_pressed":11,"time_out":false,"dwell_time":81.5380859375,"response_time":1681321699268.03},{"trial":8,"action":1,"button_pressed":3,"time_out":false,"dwell_time":80.1240234375,"response_time":1681321699617.17},{"trial":8,"action":1,"button_pressed":5,"time_out":false,"dwell_time":81.03515625,"response_time":1681321700234.51},{"trial":8,"action":1,"button_pressed":7,"time_out":false,"dwell_time":48.64404296875,"response_time":1681321700751.34},{"trial":8,"action":9,"button_pressed":-1,"time_out":false,"dwell_time":98.747802734375,"response_time":1681321701617.67},{"trial":9,"action":1,"button_pressed":8,"time_out":false,"dwell_time":114.3681640625,"response_time":1681321722010.01},{"trial":9,"action":1,"button_pressed":5,"time_out":false,"dwell_time":130.4091796875,"response_time":1681321722693.12},{"trial":9,"action":1,"button_pressed":0,"time_out":false,"dwell_time":147.644775390625,"response_time":1681321724659.79},{"trial":9,"action":1,"button_pressed":6,"time_out":false,"dwell_time":98.01806640625,"response_time":1681321728375.23},{"trial":9,"action":1,"button_pressed":11,"time_out":false,"dwell_time":48.033935546875,"response_time":1681321729691.89},{"trial":9,"action":1,"button_pressed":7,"time_out":false,"dwell_time":63.9921875,"response_time":1681321730041.23},{"trial":9,"action":1,"button_pressed":7,"time_out":false,"dwell_time":64.572998046875,"response_time":1681321731540.69},{"trial":9,"action":1,"button_pressed":7,"time_out":false,"dwell_time":80.786865234375,"response_time":1681321732657.15},{"trial":9,"action":1,"button_pressed":7,"time_out":false,"dwell_time":46.505859375,"response_time":1681321733105.87},{"trial":9,"action":1,"button_pressed":7,"time_out":false,"dwell_time":47.2060546875,"response_time":1681321733289.91},{"trial":9,"action":1,"button_pressed":7,"time_out":false,"dwell_time":47.891845703125,"response_time":1681321733739.69},{"trial":9,"action":1,"button_pressed":7,"time_out":false,"dwell_time":63.3388671875,"response_time":1681321733922.56},{"trial":9,"action":1,"button_pressed":7,"time_out":false,"dwell_time":80.817138671875,"response_time":1681321734072.6},{"trial":9,"action":1,"button_pressed":7,"time_out":false,"dwell_time":80.833984375,"response_time":1681321734239.92},{"trial":9,"action":1,"button_pressed":7,"time_out":false,"dwell_time":80.956787109375,"response_time":1681321734389.24},{"trial":9,"action":1,"button_pressed":7,"time_out":false,"dwell_time":63.56689453125,"response_time":1681321734539.14},{"trial":9,"action":1,"button_pressed":7,"time_out":false,"dwell_time":80.904052734375,"response_time":1681321734705.72},{"trial":9,"action":1,"button_pressed":7,"time_out":false,"dwell_time":64.654052734375,"response_time":1681321734855.64},{"trial":9,"action":1,"button_pressed":7,"time_out":false,"dwell_time":81.047119140625,"response_time":1681321735023.08},{"trial":9,"action":1,"button_pressed":7,"time_out":false,"dwell_time":80.848876953125,"response_time":1681321735172.95},{"trial":9,"action":1,"button_pressed":7,"time_out":false,"dwell_time":63.56787109375,"response_time":1681321735305.61},{"trial":9,"action":1,"button_pressed":7,"time_out":false,"dwell_time":80.127197265625,"response_time":1681321735455.46},{"trial":9,"action":1,"button_pressed":7,"time_out":false,"dwell_time":80.10498046875,"response_time":1681321735638.78},{"trial":9,"action":1,"button_pressed":7,"time_out":false,"dwell_time":80.72607421875,"response_time":1681321735805.44},{"trial":9,"action":1,"button_pressed":7,"time_out":false,"dwell_time":81.6689453125,"response_time":1681321735972.85},{"trial":9,"action":1,"button_pressed":7,"time_out":false,"dwell_time":81.073974609375,"response_time":1681321736138.66},{"trial":9,"action":1,"button_pressed":7,"time_out":false,"dwell_time":98.800048828125,"response_time":1681321736322.65},{"trial":9,"action":1,"button_pressed":7,"time_out":false,"dwell_time":80.885009765625,"response_time":1681321736471.96},{"trial":9,"action":0,"button_pressed":-1,"time_out":false,"dwell_time":97.339111328125,"response_time":1681321737355.34},{"trial":9,"action":1,"button_pressed":8,"time_out":false,"dwell_time":97.469970703125,"response_time":1681321738321.95},{"trial":9,"action":1,"button_pressed":5,"time_out":false,"dwell_time":97.7109375,"response_time":1681321738938.66},{"trial":9,"action":1,"button_pressed":0,"time_out":false,"dwell_time":97.023193359375,"response_time":1681321740104.01},{"trial":9,"action":1,"button_pressed":6,"time_out":false,"dwell_time":147.404052734375,"response_time":1681321742869.89},{"trial":9,"action":1,"button_pressed":7,"time_out":false,"dwell_time":80.77490234375,"response_time":1681321743803.39},{"trial":9,"action":1,"button_pressed":11,"time_out":false,"dwell_time":81.513916015625,"response_time":1681321744170.01},{"trial":9,"action":9,"button_pressed":-1,"time_out":false,"dwell_time":16.736083984375,"response_time":1681321745785.73},{"trial":10,"action":1,"button_pressed":3,"time_out":false,"dwell_time":81.078125,"response_time":1681321765762.47},{"trial":10,"action":1,"button_pressed":10,"time_out":false,"dwell_time":63.89306640625,"response_time":1681321766212.85},{"trial":10,"action":1,"button_pressed":5,"time_out":false,"dwell_time":97.697998046875,"response_time":1681321766812.77},{"trial":10,"action":1,"button_pressed":0,"time_out":false,"dwell_time":81.0849609375,"response_time":1681321767279.19},{"trial":10,"action":1,"button_pressed":1,"time_out":false,"dwell_time":98.4091796875,"response_time":1681321767762.28},{"trial":10,"action":1,"button_pressed":4,"time_out":false,"dwell_time":64.14697265625,"response_time":1681321768212.05},{"trial":10,"action":1,"button_pressed":2,"time_out":false,"dwell_time":47.329833984375,"response_time":1681321768661.77},{"trial":10,"action":9,"button_pressed":-1,"time_out":false,"dwell_time":65.012939453125,"response_time":1681321769694.84}]}