{"meta_data":{"additional_headers":{},"game_name":"Recollect","version":"2.53.01","user_name":"69","organization":"braingamecenter","study":"mpl2_2022_11","session_number":0,"device_id":"74342D95-EE82-45E3-8ADF-48FB3203C5DD"},"data":[{"trial":0,"action":1,"button_pressed":7,"time_out":false,"dwell_time":47.860107421875,"response_time":1681407415139.06},{"trial":0,"action":1,"button_pressed":4,"time_out":false,"dwell_time":48.0361328125,"response_time":1681407415688.78},{"trial":0,"action":9,"button_pressed":-1,"time_out":false,"dwell_time":76.0400390625,"response_time":1681407416349.74},{"trial":1,"action":1,"button_pressed":5,"time_out":false,"dwell_time":80.544921875,"response_time":1681407425735.28},{"trial":1,"action":1,"button_pressed":8,"time_out":false,"dwell_time":64.27197265625,"response_time":1681407425984.92},{"trial":1,"action":1,"button_pressed":0,"time_out":false,"dwell_time":64.09814453125,"response_time":1681407426518.69},{"trial":1,"action":9,"button_pressed":-1,"time_out":false,"dwell_time":47.768798828125,"response_time":1681407426902.25},{"trial":2,"action":1,"button_pressed":10,"time_out":false,"dwell_time":64.5068359375,"response_time":1681407438747.58},{"trial":2,"action":1,"button_pressed":3,"time_out":false,"dwell_time":64.118896484375,"response_time":1681407439181.13},{"trial":2,"action":1,"button_pressed":6,"time_out":false,"dwell_time":31.2939453125,"response_time":1681407439414.36},{"trial":2,"action":1,"button_pressed":8,"time_out":false,"dwell_time":30.565185546875,"response_time":1681407439880.85},{"trial":2,"action":9,"button_pressed":-1,"time_out":false,"dwell_time":31.050048828125,"response_time":1681407440481.07},{"trial":3,"action":1,"button_pressed":11,"time_out":false,"dwell_time":64.079833984375,"response_time":1681407454926.15},{"trial":3,"action":1,"button_pressed":1,"time_out":false,"dwell_time":81.76708984375,"response_time":1681407455276.03},{"trial":3,"action":1,"button_pressed":9,"time_out":false,"dwell_time":63.969970703125,"response_time":1681407455625.25},{"trial":3,"action":1,"button_pressed":7,"time_out":false,"dwell_time":47.473876953125,"response_time":1681407455975.73},{"trial":3,"action":1,"button_pressed":4,"time_out":false,"dwell_time":14.027099609375,"response_time":1681407456375.45},{"trial":3,"action":9,"button_pressed":-1,"time_out":false,"dwell_time":30.131103515625,"response_time":1681407457108.02},{"trial":4,"action":1,"button_pressed":11,"time_out":false,"dwell_time":64.280029296875,"response_time":1681407474669.68},{"trial":4,"action":1,"button_pressed":8,"time_out":false,"dwell_time":81.26611328125,"response_time":1681407475169.33},{"trial":4,"action":1,"button_pressed":6,"time_out":false,"dwell_time":64.171142578125,"response_time":1681407475585.26},{"trial":4,"action":1,"button_pressed":4,"time_out":false,"dwell_time":64.544921875,"response_time":1681407476085.17},{"trial":4,"action":1,"button_pressed":1,"time_out":false,"dwell_time":48.822998046875,"response_time":1681407476586.06},{"trial":4,"action":1,"button_pressed":10,"time_out":false,"dwell_time":81.046875,"response_time":1681407477084.95},{"trial":4,"action":9,"button_pressed":-1,"time_out":false,"dwell_time":16.693115234375,"response_time":1681407477884.8},{"trial":5,"action":1,"button_pressed":1,"time_out":false,"dwell_time":64.9150390625,"response_time":1681407497762.03},{"trial":5,"action":1,"button_pressed":2,"time_out":false,"dwell_time":81.610107421875,"response_time":1681407498328.48},{"trial":5,"action":1,"button_pressed":7,"time_out":false,"dwell_time":64.712158203125,"response_time":1681407498844.96},{"trial":5,"action":1,"button_pressed":9,"time_out":false,"dwell_time":47.18798828125,"response_time":1681407499894.42},{"trial":5,"action":1,"button_pressed":11,"time_out":false,"dwell_time":48.010986328125,"response_time":1681407500460.86},{"trial":5,"action":1,"button_pressed":5,"time_out":false,"dwell_time":98.410888671875,"response_time":1681407501943.97},{"trial":5,"action":1,"button_pressed":3,"time_out":false,"dwell_time":65.05615234375,"response_time":1681407503276.77},{"trial":5,"action":9,"button_pressed":-1,"time_out":false,"dwell_time":48.81787109375,"response_time":1681407504043.69},{"trial":6,"action":1,"button_pressed":2,"time_out":false,"dwell_time":48.375,"response_time":1681407523554.13},{"trial":6,"action":1,"button_pressed":6,"time_out":false,"dwell_time":64.882080078125,"response_time":1681407524020.01},{"trial":6,"action":1,"button_pressed":9,"time_out":false,"dwell_time":48.610107421875,"response_time":1681407524503.58},{"trial":6,"action":1,"button_pressed":0,"time_out":false,"dwell_time":48.7080078125,"response_time":1681407524853.46},{"trial":6,"action":1,"button_pressed":3,"time_out":false,"dwell_time":31.2890625,"response_time":1681407525170.05},{"trial":6,"action":1,"button_pressed":10,"time_out":false,"dwell_time":48.239013671875,"response_time":1681407525520.25},{"trial":6,"action":1,"button_pressed":7,"time_out":false,"dwell_time":64.698974609375,"response_time":1681407526052.69},{"trial":6,"action":9,"button_pressed":-1,"time_out":false,"dwell_time":32.14599609375,"response_time":1681407526787.09},{"trial":7,"action":1,"button_pressed":5,"time_out":false,"dwell_time":64.37890625,"response_time":1681407549544.96},{"trial":7,"action":1,"button_pressed":4,"time_out":false,"dwell_time":47.26708984375,"response_time":1681407550710.98},{"trial":7,"action":1,"button_pressed":1,"time_out":false,"dwell_time":64.445068359375,"response_time":1681407551743.6},{"trial":7,"action":1,"button_pressed":11,"time_out":false,"dwell_time":64.22998046875,"response_time":1681407552093.38},{"trial":7,"action":1,"button_pressed":6,"time_out":false,"dwell_time":30.60400390625,"response_time":1681407554109.9},{"trial":7,"action":1,"button_pressed":7,"time_out":false,"dwell_time":48.075927734375,"response_time":1681407556410.05},{"trial":7,"action":1,"button_pressed":7,"time_out":false,"dwell_time":47.506103515625,"response_time":1681407557125.78},{"trial":7,"action":1,"button_pressed":10,"time_out":false,"dwell_time":64.871826171875,"response_time":1681407559841.54},{"trial":7,"action":1,"button_pressed":10,"time_out":false,"dwell_time":13.97705078125,"response_time":1681407560724.35},{"trial":7,"action":1,"button_pressed":10,"time_out":false,"dwell_time":30.572998046875,"response_time":1681407561340.76},{"trial":7,"action":1,"button_pressed":0,"time_out":false,"dwell_time":48.157958984375,"response_time":1681407562507.8},{"trial":7,"action":1,"button_pressed":10,"time_out":false,"dwell_time":48.2119140625,"response_time":1681407563323.78},{"trial":7,"action":0,"button_pressed":-1,"time_out":false,"dwell_time":48.34912109375,"response_time":1681407563990.14},{"trial":7,"action":1,"button_pressed":5,"time_out":false,"dwell_time":63.466064453125,"response_time":1681407564489.31},{"trial":7,"action":1,"button_pressed":1,"time_out":false,"dwell_time":48.1611328125,"response_time":1681407566139.33},{"trial":7,"action":1,"button_pressed":9,"time_out":false,"dwell_time":63.450927734375,"response_time":1681407566638.65},{"trial":7,"action":1,"button_pressed":11,"time_out":false,"dwell_time":30.515869140625,"response_time":1681407567338.77},{"trial":7,"action":1,"button_pressed":4,"time_out":false,"dwell_time":48.218017578125,"response_time":1681407567872.2},{"trial":7,"action":1,"button_pressed":10,"time_out":false,"dwell_time":47.822021484375,"response_time":1681407568289.2},{"trial":7,"action":1,"button_pressed":7,"time_out":false,"dwell_time":47.93310546875,"response_time":1681407568822.46},{"trial":7,"action":1,"button_pressed":0,"time_out":false,"dwell_time":30.7900390625,"response_time":1681407569221.69},{"trial":7,"action":9,"button_pressed":-1,"time_out":false,"dwell_time":49.051025390625,"response_time":1681407569689.17},{"trial":8,"action":1,"button_pressed":3,"time_out":false,"dwell_time":64.427978515625,"response_time":1681407592464.25},{"trial":8,"action":1,"button_pressed":1,"time_out":false,"dwell_time":13.7939453125,"response_time":1681407592713.6},{"trial":8,"action":1,"button_pressed":8,"time_out":false,"dwell_time":48.171875,"response_time":1681407593347.89},{"trial":8,"action":1,"button_pressed":5,"time_out":false,"dwell_time":47.72998046875,"response_time":1681407593663.56},{"trial":8,"action":1,"button_pressed":0,"time_out":false,"dwell_time":30.819091796875,"response_time":1681407594030.05},{"trial":8,"action":1,"button_pressed":7,"time_out":false,"dwell_time":47.822021484375,"response_time":1681407594447.27},{"trial":8,"action":1,"button_pressed":9,"time_out":false,"dwell_time":64.801025390625,"response_time":1681407594863.39},{"trial":8,"action":1,"button_pressed":10,"time_out":false,"dwell_time":48.56005859375,"response_time":1681407595030.5},{"trial":8,"action":9,"button_pressed":-1,"time_out":false,"dwell_time":65.242919921875,"response_time":1681407595746.51},{"trial":9,"action":1,"button_pressed":4,"time_out":false,"dwell_time":48.2041015625,"response_time":1681407612974.64},{"trial":9,"action":1,"button_pressed":11,"time_out":false,"dwell_time":47.97998046875,"response_time":1681407613507.66},{"trial":9,"action":1,"button_pressed":3,"time_out":false,"dwell_time":48.77587890625,"response_time":1681407614157.48},{"trial":9,"action":1,"button_pressed":2,"time_out":false,"dwell_time":48.18798828125,"response_time":1681407614723.29},{"trial":9,"action":1,"button_pressed":10,"time_out":false,"dwell_time":47.714111328125,"response_time":1681407615307.06},{"trial":9,"action":1,"button_pressed":6,"time_out":false,"dwell_time":64.76904296875,"response_time":1681407615806.4},{"trial":9,"action":9,"button_pressed":-1,"time_out":false,"dwell_time":48.364013671875,"response_time":1681407619222.31},{"trial":10,"action":1,"button_pressed":5,"time_out":false,"dwell_time":47.47705078125,"response_time":1681407639065.32},{"trial":10,"action":1,"button_pressed":3,"time_out":false,"dwell_time":47.95703125,"response_time":1681407639432.34},{"trial":10,"action":1,"button_pressed":8,"time_out":false,"dwell_time":64.115966796875,"response_time":1681407639714.66},{"trial":10,"action":1,"button_pressed":11,"time_out":false,"dwell_time":47.1201171875,"response_time":1681407640098.14},{"trial":10,"action":1,"button_pressed":4,"time_out":false,"dwell_time":30.68408203125,"response_time":1681407640664.76},{"trial":10,"action":1,"button_pressed":7,"time_out":false,"dwell_time":31.291015625,"response_time":1681407641065.28},{"trial":10,"action":1,"button_pressed":10,"time_out":false,"dwell_time":30.513916015625,"response_time":1681407641830.97},{"trial":10,"action":9,"button_pressed":-1,"time_out":false,"dwell_time":16.738037109375,"response_time":1681407642663.83},{"trial":11,"action":1,"button_pressed":10,"time_out":false,"dwell_time":63.648193359375,"response_time":1681407662190.69},{"trial":11,"action":1,"button_pressed":1,"time_out":false,"dwell_time":64.2509765625,"response_time":1681407662624.33},{"trial":11,"action":1,"button_pressed":2,"time_out":false,"dwell_time":81.803955078125,"response_time":1681407663024.41},{"trial":11,"action":1,"button_pressed":7,"time_out":false,"dwell_time":63.948974609375,"response_time":1681407663606.73},{"trial":11,"action":1,"button_pressed":6,"time_out":false,"dwell_time":64.555908203125,"response_time":1681407663907.27},{"trial":11,"action":1,"button_pressed":0,"time_out":false,"dwell_time":81.20703125,"response_time":1681407664257.46},{"trial":11,"action":1,"button_pressed":4,"time_out":false,"dwell_time":48.35302734375,"response_time":1681407664473.72},{"trial":11,"action":9,"button_pressed":-1,"time_out":false,"dwell_time":31.39306640625,"response_time":1681407665040.62},{"trial":12,"action":1,"button_pressed":11,"time_out":false,"dwell_time":81.031982421875,"response_time":1681407687582.99},{"trial":12,"action":1,"button_pressed":7,"time_out":false,"dwell_time":48.39501953125,"response_time":1681407688382.99},{"trial":12,"action":1,"button_pressed":9,"time_out":false,"dwell_time":31.205078125,"response_time":1681407690614.81},{"trial":12,"action":1,"button_pressed":4,"time_out":false,"dwell_time":31.3310546875,"response_time":1681407691398.58},{"trial":12,"action":1,"button_pressed":9,"time_out":false,"dwell_time":64.680908203125,"response_time":1681407692197.86},{"trial":12,"action":0,"button_pressed":-1,"time_out":false,"dwell_time":31.656982421875,"response_time":1681407693381.61},{"trial":12,"action":1,"button_pressed":11,"time_out":false,"dwell_time":47.212890625,"response_time":1681407693880.6},{"trial":12,"action":1,"button_pressed":7,"time_out":false,"dwell_time":13.31884765625,"response_time":1681407694079.83},{"trial":12,"action":1,"button_pressed":3,"time_out":false,"dwell_time":48.694091796875,"response_time":1681407694447.74},{"trial":12,"action":1,"button_pressed":4,"time_out":false,"dwell_time":48.224853515625,"response_time":1681407695396.77},{"trial":12,"action":1,"button_pressed":10,"time_out":false,"dwell_time":48.10302734375,"response_time":1681407695714.05},{"trial":12,"action":1,"button_pressed":2,"time_out":false,"dwell_time":80.348876953125,"response_time":1681407696196.01},{"trial":12,"action":1,"button_pressed":1,"time_out":false,"dwell_time":48.594970703125,"response_time":1681407697329.95},{"trial":12,"action":9,"button_pressed":-1,"time_out":false,"dwell_time":49.369140625,"response_time":1681407697697.04},{"trial":13,"action":1,"button_pressed":4,"time_out":false,"dwell_time":31.02099609375,"response_time":1681407719522.32},{"trial":13,"action":1,"button_pressed":11,"time_out":false,"dwell_time":64.485107421875,"response_time":1681407719988.74},{"trial":13,"action":1,"button_pressed":7,"time_out":false,"dwell_time":48.796142578125,"response_time":1681407720222.47},{"trial":13,"action":1,"button_pressed":2,"time_out":false,"dwell_time":48.10595703125,"response_time":1681407720688.39},{"trial":13,"action":1,"button_pressed":1,"time_out":false,"dwell_time":14.04296875,"response_time":1681407721138.24},{"trial":13,"action":1,"button_pressed":0,"time_out":false,"dwell_time":48.126953125,"response_time":1681407721472.14},{"trial":13,"action":1,"button_pressed":3,"time_out":false,"dwell_time":81.153076171875,"response_time":1681407722420.91},{"trial":13,"action":1,"button_pressed":9,"time_out":false,"dwell_time":13.373046875,"response_time":1681407723286.93},{"trial":13,"action":9,"button_pressed":-1,"time_out":false,"dwell_time":98.260986328125,"response_time":1681407724254.02}]}