{"meta_data":{"additional_headers":{},"game_name":"Recollect","version":"2.53.01","user_name":"71","organization":"braingamecenter","study":"mpl2_2022_11","session_number":0,"device_id":"74342D95-EE82-45E3-8ADF-48FB3203C5DD"},"data":[{"trial":0,"action":1,"button_pressed":8,"time_out":false,"dwell_time":64.884033203125,"response_time":1681426712807.24},{"trial":0,"action":1,"button_pressed":0,"time_out":false,"dwell_time":47.162109375,"response_time":1681426713173.3},{"trial":0,"action":9,"button_pressed":-1,"time_out":false,"dwell_time":108.578125,"response_time":1681426713933.65},{"trial":1,"action":1,"button_pressed":0,"time_out":false,"dwell_time":47.626953125,"response_time":1681426723420.34},{"trial":1,"action":1,"button_pressed":10,"time_out":false,"dwell_time":31.412109375,"response_time":1681426723870.68},{"trial":1,"action":1,"button_pressed":11,"time_out":false,"dwell_time":47.97509765625,"response_time":1681426724403.2},{"trial":1,"action":9,"button_pressed":-1,"time_out":false,"dwell_time":64.7548828125,"response_time":1681426725103.19},{"trial":2,"action":1,"button_pressed":7,"time_out":false,"dwell_time":48.85791015625,"response_time":1681426737166.64},{"trial":2,"action":1,"button_pressed":9,"time_out":false,"dwell_time":48.070068359375,"response_time":1681426737549.14},{"trial":2,"action":1,"button_pressed":0,"time_out":false,"dwell_time":47.4208984375,"response_time":1681426737915.6},{"trial":2,"action":1,"button_pressed":4,"time_out":false,"dwell_time":30.591064453125,"response_time":1681426738215.45},{"trial":2,"action":9,"button_pressed":-1,"time_out":false,"dwell_time":98.84912109375,"response_time":1681426738682.73},{"trial":3,"action":1,"button_pressed":1,"time_out":false,"dwell_time":64.498779296875,"response_time":1681426753360.3},{"trial":3,"action":1,"button_pressed":10,"time_out":false,"dwell_time":63.426025390625,"response_time":1681426753743.27},{"trial":3,"action":1,"button_pressed":0,"time_out":false,"dwell_time":48.94091796875,"response_time":1681426754410.99},{"trial":3,"action":1,"button_pressed":9,"time_out":false,"dwell_time":30.627197265625,"response_time":1681426754726.81},{"trial":3,"action":1,"button_pressed":5,"time_out":false,"dwell_time":66.98388671875,"response_time":1681426755193.81},{"trial":3,"action":9,"button_pressed":-1,"time_out":false,"dwell_time":16.80810546875,"response_time":1681426756259.52},{"trial":4,"action":1,"button_pressed":3,"time_out":false,"dwell_time":31.579833984375,"response_time":1681426773388.3},{"trial":4,"action":1,"button_pressed":3,"time_out":false,"dwell_time":48.913818359375,"response_time":1681426774071.42},{"trial":4,"action":1,"button_pressed":7,"time_out":false,"dwell_time":30.552001953125,"response_time":1681426774437.23},{"trial":4,"action":1,"button_pressed":4,"time_out":false,"dwell_time":30.422119140625,"response_time":1681426774887.02},{"trial":4,"action":1,"button_pressed":10,"time_out":false,"dwell_time":47.933837890625,"response_time":1681426775271},{"trial":4,"action":1,"button_pressed":2,"time_out":false,"dwell_time":30.48291015625,"response_time":1681426775753.29},{"trial":4,"action":1,"button_pressed":9,"time_out":false,"dwell_time":47.945068359375,"response_time":1681426776237.3},{"trial":4,"action":0,"button_pressed":-1,"time_out":false,"dwell_time":48.889892578125,"response_time":1681426776637.47},{"trial":4,"action":1,"button_pressed":7,"time_out":false,"dwell_time":47.843994140625,"response_time":1681426778535.94},{"trial":4,"action":1,"button_pressed":4,"time_out":false,"dwell_time":48.487060546875,"response_time":1681426778953.15},{"trial":4,"action":1,"button_pressed":3,"time_out":false,"dwell_time":48.157958984375,"response_time":1681426779369},{"trial":4,"action":1,"button_pressed":10,"time_out":false,"dwell_time":47.178955078125,"response_time":1681426779735.53},{"trial":4,"action":1,"button_pressed":2,"time_out":false,"dwell_time":30.53515625,"response_time":1681426780118.7},{"trial":4,"action":1,"button_pressed":6,"time_out":false,"dwell_time":31.093994140625,"response_time":1681426780602.54},{"trial":4,"action":9,"button_pressed":-1,"time_out":false,"dwell_time":64.79296875,"response_time":1681426782068.27},{"trial":5,"action":1,"button_pressed":8,"time_out":false,"dwell_time":81.92822265625,"response_time":1681426799263.14},{"trial":5,"action":1,"button_pressed":0,"time_out":false,"dwell_time":63.945068359375,"response_time":1681426799878.65},{"trial":5,"action":1,"button_pressed":1,"time_out":false,"dwell_time":64.403076171875,"response_time":1681426801544.73},{"trial":5,"action":1,"button_pressed":6,"time_out":false,"dwell_time":81.433837890625,"response_time":1681426801978.6},{"trial":5,"action":1,"button_pressed":9,"time_out":false,"dwell_time":47.81494140625,"response_time":1681426802228.34},{"trial":5,"action":1,"button_pressed":5,"time_out":false,"dwell_time":64.2890625,"response_time":1681426802661.08},{"trial":5,"action":0,"button_pressed":-1,"time_out":false,"dwell_time":48.43994140625,"response_time":1681426803311.55},{"trial":5,"action":1,"button_pressed":8,"time_out":false,"dwell_time":47.611083984375,"response_time":1681426805128.07},{"trial":5,"action":1,"button_pressed":4,"time_out":false,"dwell_time":48.0009765625,"response_time":1681426806343.62},{"trial":5,"action":1,"button_pressed":1,"time_out":false,"dwell_time":31.174072265625,"response_time":1681426806810.78},{"trial":5,"action":1,"button_pressed":6,"time_out":false,"dwell_time":30.65087890625,"response_time":1681426807110.24},{"trial":5,"action":1,"button_pressed":2,"time_out":false,"dwell_time":47.205810546875,"response_time":1681426807609.92},{"trial":5,"action":9,"button_pressed":-1,"time_out":false,"dwell_time":115.555908203125,"response_time":1681426808410.39},{"trial":6,"action":1,"button_pressed":3,"time_out":false,"dwell_time":48.281982421875,"response_time":1681426820656.6},{"trial":6,"action":1,"button_pressed":5,"time_out":false,"dwell_time":32.2021484375,"response_time":1681426821056.38},{"trial":6,"action":1,"button_pressed":9,"time_out":false,"dwell_time":47.941162109375,"response_time":1681426821522.18},{"trial":6,"action":1,"button_pressed":2,"time_out":false,"dwell_time":47.9658203125,"response_time":1681426821989.35},{"trial":6,"action":9,"button_pressed":-1,"time_out":false,"dwell_time":31.035888671875,"response_time":1681426822572.22},{"trial":7,"action":1,"button_pressed":9,"time_out":false,"dwell_time":64.777099609375,"response_time":1681426837267.39},{"trial":7,"action":1,"button_pressed":0,"time_out":false,"dwell_time":64.219970703125,"response_time":1681426837717.19},{"trial":7,"action":1,"button_pressed":2,"time_out":false,"dwell_time":48.761962890625,"response_time":1681426838034.25},{"trial":7,"action":1,"button_pressed":1,"time_out":false,"dwell_time":81.511962890625,"response_time":1681426838600.09},{"trial":7,"action":1,"button_pressed":6,"time_out":false,"dwell_time":64.927978515625,"response_time":1681426838850.42},{"trial":7,"action":9,"button_pressed":-1,"time_out":false,"dwell_time":64.537841796875,"response_time":1681426839500.25},{"trial":8,"action":1,"button_pressed":0,"time_out":false,"dwell_time":64.333984375,"response_time":1681426856611.17},{"trial":8,"action":1,"button_pressed":4,"time_out":false,"dwell_time":80.81787109375,"response_time":1681426856877.12},{"trial":8,"action":1,"button_pressed":11,"time_out":false,"dwell_time":48.958984375,"response_time":1681426857328.2},{"trial":8,"action":1,"button_pressed":3,"time_out":false,"dwell_time":47.264892578125,"response_time":1681426857660.62},{"trial":8,"action":1,"button_pressed":5,"time_out":false,"dwell_time":30.653076171875,"response_time":1681426858077.11},{"trial":8,"action":1,"button_pressed":7,"time_out":false,"dwell_time":30.453125,"response_time":1681426858676.9},{"trial":8,"action":9,"button_pressed":-1,"time_out":false,"dwell_time":81.35791015625,"response_time":1681426859310.71},{"trial":9,"action":1,"button_pressed":3,"time_out":false,"dwell_time":63.962890625,"response_time":1681426879020.71},{"trial":9,"action":1,"button_pressed":0,"time_out":false,"dwell_time":47.906982421875,"response_time":1681426879303.8},{"trial":9,"action":1,"button_pressed":10,"time_out":false,"dwell_time":64.277099609375,"response_time":1681426879786.43},{"trial":9,"action":1,"button_pressed":5,"time_out":false,"dwell_time":47.723876953125,"response_time":1681426880186.71},{"trial":9,"action":1,"button_pressed":4,"time_out":false,"dwell_time":66.56591796875,"response_time":1681426880569.5},{"trial":9,"action":1,"button_pressed":2,"time_out":false,"dwell_time":31.343017578125,"response_time":1681426880937.06},{"trial":9,"action":1,"button_pressed":1,"time_out":false,"dwell_time":47.93994140625,"response_time":1681426881436.18},{"trial":9,"action":9,"button_pressed":-1,"time_out":false,"dwell_time":81.496826171875,"response_time":1681426881952.88},{"trial":10,"action":1,"button_pressed":6,"time_out":false,"dwell_time":64.3330078125,"response_time":1681426901546.28},{"trial":10,"action":1,"button_pressed":10,"time_out":false,"dwell_time":64.7939453125,"response_time":1681426901879.97},{"trial":10,"action":1,"button_pressed":11,"time_out":false,"dwell_time":47.93798828125,"response_time":1681426902329.77},{"trial":10,"action":1,"button_pressed":4,"time_out":false,"dwell_time":48.075927734375,"response_time":1681426902763.57},{"trial":10,"action":1,"button_pressed":3,"time_out":false,"dwell_time":48.882080078125,"response_time":1681426903063.74},{"trial":10,"action":1,"button_pressed":8,"time_out":false,"dwell_time":63.77197265625,"response_time":1681426903512.71},{"trial":10,"action":9,"button_pressed":-1,"time_out":false,"dwell_time":64.89404296875,"response_time":1681426904362.28}]}