{"meta_data":{"additional_headers":{},"game_name":"Recollect","version":"2.53.01","user_name":"72","organization":"braingamecenter","study":"mpl2_2022_11","session_number":0,"device_id":"74342D95-EE82-45E3-8ADF-48FB3203C5DD"},"data":[{"trial":0,"action":1,"button_pressed":7,"time_out":false,"dwell_time":48.179931640625,"response_time":1681500263183.55},{"trial":0,"action":1,"button_pressed":4,"time_out":false,"dwell_time":64.990966796875,"response_time":1681500263582.86},{"trial":0,"action":9,"button_pressed":-1,"time_out":false,"dwell_time":107.2451171875,"response_time":1681500264192.42},{"trial":1,"action":1,"button_pressed":1,"time_out":false,"dwell_time":63.839111328125,"response_time":1681500273712.38},{"trial":1,"action":1,"button_pressed":6,"time_out":false,"dwell_time":48.03515625,"response_time":1681500274146.64},{"trial":1,"action":1,"button_pressed":8,"time_out":false,"dwell_time":30.903076171875,"response_time":1681500274612.63},{"trial":1,"action":9,"button_pressed":-1,"time_out":false,"dwell_time":65.490234375,"response_time":1681500275279.33},{"trial":2,"action":1,"button_pressed":3,"time_out":false,"dwell_time":65.152099609375,"response_time":1681500287358.43},{"trial":2,"action":1,"button_pressed":5,"time_out":false,"dwell_time":30.676025390625,"response_time":1681500287757.98},{"trial":2,"action":1,"button_pressed":9,"time_out":false,"dwell_time":47.201904296875,"response_time":1681500288157.82},{"trial":2,"action":1,"button_pressed":2,"time_out":false,"dwell_time":30.99609375,"response_time":1681500288640.96},{"trial":2,"action":9,"button_pressed":-1,"time_out":false,"dwell_time":48.5859375,"response_time":1681500290040.93},{"trial":3,"action":1,"button_pressed":10,"time_out":false,"dwell_time":30.572998046875,"response_time":1681500304419.13},{"trial":3,"action":1,"button_pressed":5,"time_out":false,"dwell_time":31.330810546875,"response_time":1681500304802.89},{"trial":3,"action":1,"button_pressed":3,"time_out":false,"dwell_time":47.906982421875,"response_time":1681500305252.03},{"trial":3,"action":1,"button_pressed":6,"time_out":false,"dwell_time":47.123046875,"response_time":1681500305551.98},{"trial":3,"action":1,"button_pressed":2,"time_out":false,"dwell_time":98.27001953125,"response_time":1681500306152.09},{"trial":3,"action":9,"button_pressed":-1,"time_out":false,"dwell_time":64.6591796875,"response_time":1681500307034.87},{"trial":4,"action":1,"button_pressed":1,"time_out":false,"dwell_time":64.572021484375,"response_time":1681500324845.42},{"trial":4,"action":1,"button_pressed":9,"time_out":false,"dwell_time":48.056884765625,"response_time":1681500325328.95},{"trial":4,"action":1,"button_pressed":2,"time_out":false,"dwell_time":47.19091796875,"response_time":1681500325928.57},{"trial":4,"action":1,"button_pressed":8,"time_out":false,"dwell_time":47.8271484375,"response_time":1681500326428.46},{"trial":4,"action":1,"button_pressed":6,"time_out":false,"dwell_time":48.39404296875,"response_time":1681500326962.76},{"trial":4,"action":1,"button_pressed":11,"time_out":false,"dwell_time":48.55419921875,"response_time":1681500327378.73},{"trial":4,"action":9,"button_pressed":-1,"time_out":false,"dwell_time":64.60205078125,"response_time":1681500328245.16},{"trial":5,"action":1,"button_pressed":1,"time_out":false,"dwell_time":47.39794921875,"response_time":1681500345855.39},{"trial":5,"action":1,"button_pressed":9,"time_out":false,"dwell_time":47.2109375,"response_time":1681500346271.92},{"trial":5,"action":1,"button_pressed":5,"time_out":false,"dwell_time":47.863037109375,"response_time":1681500346755.77},{"trial":5,"action":1,"button_pressed":6,"time_out":false,"dwell_time":47.81298828125,"response_time":1681500347338.91},{"trial":5,"action":1,"button_pressed":7,"time_out":false,"dwell_time":30.412109375,"response_time":1681500347721.33},{"trial":5,"action":1,"button_pressed":2,"time_out":false,"dwell_time":48.134033203125,"response_time":1681500348221.36},{"trial":5,"action":9,"button_pressed":-1,"time_out":false,"dwell_time":48.37890625,"response_time":1681500349138.71},{"trial":6,"action":1,"button_pressed":5,"time_out":false,"dwell_time":48.014892578125,"response_time":1681500368631.38},{"trial":6,"action":1,"button_pressed":3,"time_out":false,"dwell_time":47.864990234375,"response_time":1681500369131.67},{"trial":6,"action":1,"button_pressed":8,"time_out":false,"dwell_time":48.274169921875,"response_time":1681500369665.04},{"trial":6,"action":1,"button_pressed":11,"time_out":false,"dwell_time":31.248046875,"response_time":1681500370280.76},{"trial":6,"action":1,"button_pressed":7,"time_out":false,"dwell_time":47.552978515625,"response_time":1681500370847.47},{"trial":6,"action":1,"button_pressed":4,"time_out":false,"dwell_time":80.454833984375,"response_time":1681500371546.86},{"trial":6,"action":1,"button_pressed":10,"time_out":false,"dwell_time":48.60205078125,"response_time":1681500371964.16},{"trial":6,"action":9,"button_pressed":-1,"time_out":false,"dwell_time":16.786865234375,"response_time":1681500372796.25},{"trial":7,"action":1,"button_pressed":3,"time_out":false,"dwell_time":32.23095703125,"response_time":1681500395689.7},{"trial":7,"action":1,"button_pressed":1,"time_out":false,"dwell_time":64.1640625,"response_time":1681500396172.21},{"trial":7,"action":1,"button_pressed":8,"time_out":false,"dwell_time":80.68798828125,"response_time":1681500396822.08},{"trial":7,"action":1,"button_pressed":5,"time_out":false,"dwell_time":48.468994140625,"response_time":1681500401121.1},{"trial":7,"action":1,"button_pressed":7,"time_out":false,"dwell_time":63.9599609375,"response_time":1681500401886.38},{"trial":7,"action":1,"button_pressed":0,"time_out":false,"dwell_time":98.279052734375,"response_time":1681500403453.14},{"trial":7,"action":1,"button_pressed":9,"time_out":false,"dwell_time":46.81787109375,"response_time":1681500404102.78},{"trial":7,"action":1,"button_pressed":10,"time_out":false,"dwell_time":48.13916015625,"response_time":1681500404386.85},{"trial":7,"action":9,"button_pressed":-1,"time_out":false,"dwell_time":65.723876953125,"response_time":1681500405254.15},{"trial":8,"action":1,"button_pressed":5,"time_out":false,"dwell_time":80.93115234375,"response_time":1681500429927.29},{"trial":8,"action":1,"button_pressed":3,"time_out":false,"dwell_time":64.97216796875,"response_time":1681500430460.93},{"trial":8,"action":1,"button_pressed":0,"time_out":false,"dwell_time":81.704833984375,"response_time":1681500432643.63},{"trial":8,"action":1,"button_pressed":6,"time_out":false,"dwell_time":64.23193359375,"response_time":1681500433843.33},{"trial":8,"action":1,"button_pressed":2,"time_out":false,"dwell_time":47.2998046875,"response_time":1681500434326.06},{"trial":8,"action":1,"button_pressed":7,"time_out":false,"dwell_time":48.51513671875,"response_time":1681500435009.77},{"trial":8,"action":1,"button_pressed":10,"time_out":false,"dwell_time":81.613037109375,"response_time":1681500436175.79},{"trial":8,"action":1,"button_pressed":1,"time_out":false,"dwell_time":14.06103515625,"response_time":1681500440906.55},{"trial":8,"action":1,"button_pressed":8,"time_out":false,"dwell_time":13.089111328125,"response_time":1681500441522.96},{"trial":8,"action":9,"button_pressed":-1,"time_out":false,"dwell_time":64.699951171875,"response_time":1681500443157.12},{"trial":9,"action":1,"button_pressed":9,"time_out":false,"dwell_time":81.555908203125,"response_time":1681500467915.27},{"trial":9,"action":1,"button_pressed":5,"time_out":false,"dwell_time":81.658935546875,"response_time":1681500468598.32},{"trial":9,"action":1,"button_pressed":4,"time_out":false,"dwell_time":48.06591796875,"response_time":1681500469115.23},{"trial":9,"action":1,"button_pressed":11,"time_out":false,"dwell_time":30.886962890625,"response_time":1681500469681.22},{"trial":9,"action":1,"button_pressed":8,"time_out":false,"dwell_time":48.012939453125,"response_time":1681500470330.72},{"trial":9,"action":1,"button_pressed":3,"time_out":false,"dwell_time":64.113037109375,"response_time":1681500470897.46},{"trial":9,"action":1,"button_pressed":2,"time_out":false,"dwell_time":81.2490234375,"response_time":1681500472046.75},{"trial":9,"action":1,"button_pressed":10,"time_out":false,"dwell_time":48.72802734375,"response_time":1681500474230.22},{"trial":9,"action":1,"button_pressed":1,"time_out":false,"dwell_time":47.681884765625,"response_time":1681500474646.59},{"trial":9,"action":9,"button_pressed":-1,"time_out":false,"dwell_time":48.3720703125,"response_time":1681500475230.4},{"trial":10,"action":1,"button_pressed":2,"time_out":false,"dwell_time":48.36181640625,"response_time":1681500495090.19},{"trial":10,"action":1,"button_pressed":6,"time_out":false,"dwell_time":31.239990234375,"response_time":1681500495739.77},{"trial":10,"action":1,"button_pressed":9,"time_out":false,"dwell_time":47.96484375,"response_time":1681500497371.79},{"trial":10,"action":1,"button_pressed":0,"time_out":false,"dwell_time":47.787109375,"response_time":1681500499854.9},{"trial":10,"action":1,"button_pressed":10,"time_out":false,"dwell_time":48.85791015625,"response_time":1681500500338.24},{"trial":10,"action":1,"button_pressed":7,"time_out":false,"dwell_time":31.066162109375,"response_time":1681500500837.96},{"trial":10,"action":9,"button_pressed":-1,"time_out":false,"dwell_time":64.68701171875,"response_time":1681500501821.06},{"trial":11,"action":1,"button_pressed":7,"time_out":false,"dwell_time":64.148193359375,"response_time":1681500521597.62},{"trial":11,"action":1,"button_pressed":3,"time_out":false,"dwell_time":48.60107421875,"response_time":1681500522147.71},{"trial":11,"action":1,"button_pressed":0,"time_out":false,"dwell_time":64.3740234375,"response_time":1681500522596.52},{"trial":11,"action":1,"button_pressed":9,"time_out":false,"dwell_time":47.8740234375,"response_time":1681500523130.8},{"trial":11,"action":1,"button_pressed":5,"time_out":false,"dwell_time":48.489990234375,"response_time":1681500523697.22},{"trial":11,"action":1,"button_pressed":4,"time_out":false,"dwell_time":47.306884765625,"response_time":1681500528628.3},{"trial":11,"action":1,"button_pressed":6,"time_out":false,"dwell_time":31.43798828125,"response_time":1681500528912.45},{"trial":11,"action":9,"button_pressed":-1,"time_out":false,"dwell_time":64.06396484375,"response_time":1681500529577.93}]}