{"meta_data":{"additional_headers":{},"game_name":"Recollect","version":"2.53.01","user_name":"73","organization":"braingamecenter","study":"mpl2_2022_11","session_number":0,"device_id":"74342D95-EE82-45E3-8ADF-48FB3203C5DD"},"data":[{"trial":0,"action":1,"button_pressed":0,"time_out":false,"dwell_time":47.531005859375,"response_time":1681507843881.42},{"trial":0,"action":1,"button_pressed":6,"time_out":false,"dwell_time":47.85693359375,"response_time":1681507844347.78},{"trial":0,"action":9,"button_pressed":-1,"time_out":false,"dwell_time":27.97998046875,"response_time":1681507845075.16},{"trial":1,"action":1,"button_pressed":10,"time_out":false,"dwell_time":80.98388671875,"response_time":1681507854810.51},{"trial":1,"action":1,"button_pressed":0,"time_out":false,"dwell_time":63.68603515625,"response_time":1681507855393.66},{"trial":1,"action":1,"button_pressed":6,"time_out":false,"dwell_time":64.06298828125,"response_time":1681507855794.04},{"trial":1,"action":9,"button_pressed":-1,"time_out":false,"dwell_time":97.951904296875,"response_time":1681507856394.24},{"trial":2,"action":1,"button_pressed":0,"time_out":false,"dwell_time":98.555908203125,"response_time":1681507868406.72},{"trial":2,"action":1,"button_pressed":10,"time_out":false,"dwell_time":81.006103515625,"response_time":1681507868873.29},{"trial":2,"action":1,"button_pressed":2,"time_out":false,"dwell_time":63.34814453125,"response_time":1681507869372.15},{"trial":2,"action":1,"button_pressed":6,"time_out":false,"dwell_time":80.7138671875,"response_time":1681507869806.09},{"trial":2,"action":9,"button_pressed":-1,"time_out":false,"dwell_time":114.826904296875,"response_time":1681507870406.51},{"trial":3,"action":1,"button_pressed":8,"time_out":false,"dwell_time":81.212158203125,"response_time":1681507885134.79},{"trial":3,"action":1,"button_pressed":4,"time_out":false,"dwell_time":96.987060546875,"response_time":1681507885633.61},{"trial":3,"action":1,"button_pressed":1,"time_out":false,"dwell_time":79.73193359375,"response_time":1681507886150.24},{"trial":3,"action":1,"button_pressed":5,"time_out":false,"dwell_time":47.97607421875,"response_time":1681507886866.93},{"trial":3,"action":1,"button_pressed":3,"time_out":false,"dwell_time":47.18603515625,"response_time":1681507887449.95},{"trial":3,"action":9,"button_pressed":-1,"time_out":false,"dwell_time":64.554931640625,"response_time":1681507888066.42},{"trial":4,"action":1,"button_pressed":0,"time_out":false,"dwell_time":47.951171875,"response_time":1681507905061.74},{"trial":4,"action":1,"button_pressed":4,"time_out":false,"dwell_time":48.135986328125,"response_time":1681507905394.26},{"trial":4,"action":1,"button_pressed":11,"time_out":false,"dwell_time":47.218017578125,"response_time":1681507905810.62},{"trial":4,"action":1,"button_pressed":3,"time_out":false,"dwell_time":63.56103515625,"response_time":1681507906243.44},{"trial":4,"action":1,"button_pressed":5,"time_out":false,"dwell_time":64.556884765625,"response_time":1681507906743.99},{"trial":4,"action":1,"button_pressed":7,"time_out":false,"dwell_time":47.324951171875,"response_time":1681507907293.54},{"trial":4,"action":9,"button_pressed":-1,"time_out":false,"dwell_time":65.432861328125,"response_time":1681507907944.02},{"trial":5,"action":1,"button_pressed":2,"time_out":false,"dwell_time":81.20703125,"response_time":1681507927404},{"trial":5,"action":1,"button_pressed":6,"time_out":false,"dwell_time":98.10400390625,"response_time":1681507927903.56},{"trial":5,"action":1,"button_pressed":9,"time_out":false,"dwell_time":64.2060546875,"response_time":1681507928336.09},{"trial":5,"action":1,"button_pressed":0,"time_out":false,"dwell_time":65.065185546875,"response_time":1681507928836.66},{"trial":5,"action":1,"button_pressed":3,"time_out":false,"dwell_time":48.283935546875,"response_time":1681507929203.15},{"trial":5,"action":1,"button_pressed":10,"time_out":false,"dwell_time":96.921875,"response_time":1681507929835.72},{"trial":5,"action":1,"button_pressed":7,"time_out":false,"dwell_time":97.164794921875,"response_time":1681507930452.74},{"trial":5,"action":9,"button_pressed":-1,"time_out":false,"dwell_time":48.716064453125,"response_time":1681507931136.2},{"trial":6,"action":1,"button_pressed":1,"time_out":false,"dwell_time":47.72607421875,"response_time":1681507953478.75},{"trial":6,"action":1,"button_pressed":3,"time_out":false,"dwell_time":64.14892578125,"response_time":1681507953861.71},{"trial":6,"action":1,"button_pressed":10,"time_out":false,"dwell_time":81.64404296875,"response_time":1681507954361.77},{"trial":6,"action":1,"button_pressed":2,"time_out":false,"dwell_time":64.158935546875,"response_time":1681507954760.87},{"trial":6,"action":1,"button_pressed":0,"time_out":false,"dwell_time":64.7431640625,"response_time":1681507955128.03},{"trial":6,"action":1,"button_pressed":7,"time_out":false,"dwell_time":63.25390625,"response_time":1681507955643.76},{"trial":6,"action":1,"button_pressed":6,"time_out":false,"dwell_time":62.89208984375,"response_time":1681507956460.2},{"trial":6,"action":1,"button_pressed":4,"time_out":false,"dwell_time":47.18896484375,"response_time":1681507956827.18},{"trial":6,"action":9,"button_pressed":-1,"time_out":false,"dwell_time":48.494140625,"response_time":1681507957478.23},{"trial":7,"action":1,"button_pressed":5,"time_out":false,"dwell_time":48.10693359375,"response_time":1681507980136.32},{"trial":7,"action":1,"button_pressed":6,"time_out":false,"dwell_time":81.548095703125,"response_time":1681507980653.01},{"trial":7,"action":1,"button_pressed":11,"time_out":false,"dwell_time":64.208984375,"response_time":1681507981086.21},{"trial":7,"action":1,"button_pressed":1,"time_out":false,"dwell_time":81.005126953125,"response_time":1681507982685.03},{"trial":7,"action":1,"button_pressed":4,"time_out":false,"dwell_time":81.637939453125,"response_time":1681507983218.78},{"trial":7,"action":1,"button_pressed":10,"time_out":false,"dwell_time":47.323974609375,"response_time":1681507983568.42},{"trial":7,"action":1,"button_pressed":7,"time_out":false,"dwell_time":47.719970703125,"response_time":1681507984151.46},{"trial":7,"action":1,"button_pressed":0,"time_out":false,"dwell_time":64.425048828125,"response_time":1681507984667.86},{"trial":7,"action":9,"button_pressed":-1,"time_out":false,"dwell_time":65.071044921875,"response_time":1681507985035.86},{"trial":8,"action":1,"button_pressed":5,"time_out":false,"dwell_time":63.665771484375,"response_time":1681508010325.87},{"trial":8,"action":1,"button_pressed":11,"time_out":false,"dwell_time":81.846923828125,"response_time":1681508011043.04},{"trial":8,"action":1,"button_pressed":3,"time_out":false,"dwell_time":63.926025390625,"response_time":1681508013108.19},{"trial":8,"action":1,"button_pressed":4,"time_out":false,"dwell_time":65.133056640625,"response_time":1681508013558.84},{"trial":8,"action":1,"button_pressed":8,"time_out":false,"dwell_time":81.126953125,"response_time":1681508014058.42},{"trial":8,"action":1,"button_pressed":7,"time_out":false,"dwell_time":81.111083984375,"response_time":1681508016807.86},{"trial":8,"action":1,"button_pressed":2,"time_out":false,"dwell_time":30.868896484375,"response_time":1681508017457.24},{"trial":8,"action":1,"button_pressed":6,"time_out":false,"dwell_time":64.59912109375,"response_time":1681508018440.48},{"trial":8,"action":1,"button_pressed":9,"time_out":false,"dwell_time":48.531005859375,"response_time":1681508018757.47},{"trial":8,"action":1,"button_pressed":10,"time_out":false,"dwell_time":48.43994140625,"response_time":1681508019074.03},{"trial":8,"action":9,"button_pressed":-1,"time_out":false,"dwell_time":49.35205078125,"response_time":1681508019907.63},{"trial":9,"action":1,"button_pressed":3,"time_out":false,"dwell_time":31.48486328125,"response_time":1681508044632.23},{"trial":9,"action":1,"button_pressed":4,"time_out":false,"dwell_time":47.927978515625,"response_time":1681508045098.62},{"trial":9,"action":1,"button_pressed":7,"time_out":false,"dwell_time":64.841796875,"response_time":1681508045648.19},{"trial":9,"action":1,"button_pressed":1,"time_out":false,"dwell_time":81.297119140625,"response_time":1681508046147.92},{"trial":9,"action":1,"button_pressed":2,"time_out":false,"dwell_time":81.246826171875,"response_time":1681508046747.69},{"trial":9,"action":1,"button_pressed":9,"time_out":false,"dwell_time":47.612060546875,"response_time":1681508047230.68},{"trial":9,"action":1,"button_pressed":10,"time_out":false,"dwell_time":64.61083984375,"response_time":1681508047614},{"trial":9,"action":1,"button_pressed":0,"time_out":false,"dwell_time":64.155029296875,"response_time":1681508048063.26},{"trial":9,"action":1,"button_pressed":8,"time_out":false,"dwell_time":64.661865234375,"response_time":1681508048480.56},{"trial":9,"action":1,"button_pressed":6,"time_out":false,"dwell_time":64.06787109375,"response_time":1681508048979.69},{"trial":9,"action":9,"button_pressed":-1,"time_out":false,"dwell_time":16.83984375,"response_time":1681508049512.97},{"trial":10,"action":1,"button_pressed":11,"time_out":false,"dwell_time":130.95703125,"response_time":1681508069339.72},{"trial":10,"action":1,"button_pressed":4,"time_out":false,"dwell_time":63.91796875,"response_time":1681508069839.92},{"trial":10,"action":1,"button_pressed":3,"time_out":false,"dwell_time":98.324951171875,"response_time":1681508070223.3},{"trial":10,"action":1,"button_pressed":10,"time_out":false,"dwell_time":63.89697265625,"response_time":1681508070723.15},{"trial":10,"action":1,"button_pressed":8,"time_out":false,"dwell_time":63.93115234375,"response_time":1681508071006.31},{"trial":10,"action":1,"button_pressed":2,"time_out":false,"dwell_time":64.35791015625,"response_time":1681508071323.01},{"trial":10,"action":1,"button_pressed":1,"time_out":false,"dwell_time":48.0419921875,"response_time":1681508071805.73},{"trial":10,"action":9,"button_pressed":-1,"time_out":false,"dwell_time":49.055908203125,"response_time":1681508073273.11},{"trial":11,"action":1,"button_pressed":7,"time_out":false,"dwell_time":64.088134765625,"response_time":1681508093099.07},{"trial":11,"action":1,"button_pressed":11,"time_out":false,"dwell_time":64.019775390625,"response_time":1681508093414.78},{"trial":11,"action":1,"button_pressed":9,"time_out":false,"dwell_time":47.05712890625,"response_time":1681508093715.27},{"trial":11,"action":1,"button_pressed":0,"time_out":false,"dwell_time":47.2578125,"response_time":1681508094231.78},{"trial":11,"action":1,"button_pressed":6,"time_out":false,"dwell_time":63.10986328125,"response_time":1681508094663.66},{"trial":11,"action":1,"button_pressed":5,"time_out":false,"dwell_time":64.2919921875,"response_time":1681508095331.62},{"trial":11,"action":1,"button_pressed":3,"time_out":false,"dwell_time":64.81298828125,"response_time":1681508095781.58},{"trial":11,"action":9,"button_pressed":-1,"time_out":false,"dwell_time":16.591064453125,"response_time":1681508096297.45}]}