{"meta_data":{"additional_headers":{},"game_name":"Recollect","version":"2.53.01","user_name":"75","organization":"braingamecenter","study":"mpl2_2022_11","session_number":0,"device_id":"74342D95-EE82-45E3-8ADF-48FB3203C5DD"},"data":[{"trial":0,"action":1,"button_pressed":6,"time_out":false,"dwell_time":47.93603515625,"response_time":1681761606282.3},{"trial":0,"action":1,"button_pressed":10,"time_out":false,"dwell_time":98.10498046875,"response_time":1681761606781.34},{"trial":0,"action":9,"button_pressed":-1,"time_out":false,"dwell_time":75.095947265625,"response_time":1681761607491.26},{"trial":1,"action":1,"button_pressed":2,"time_out":false,"dwell_time":81.654052734375,"response_time":1681761617244.59},{"trial":1,"action":1,"button_pressed":4,"time_out":false,"dwell_time":80.27490234375,"response_time":1681761617593.64},{"trial":1,"action":1,"button_pressed":1,"time_out":false,"dwell_time":47.8359375,"response_time":1681761618011.34},{"trial":1,"action":9,"button_pressed":-1,"time_out":false,"dwell_time":81.297119140625,"response_time":1681761618377.75},{"trial":2,"action":1,"button_pressed":7,"time_out":false,"dwell_time":13.154052734375,"response_time":1681761630655.55},{"trial":2,"action":1,"button_pressed":9,"time_out":false,"dwell_time":81.24609375,"response_time":1681761631089.29},{"trial":2,"action":1,"button_pressed":0,"time_out":false,"dwell_time":64.288818359375,"response_time":1681761631539.35},{"trial":2,"action":1,"button_pressed":4,"time_out":false,"dwell_time":80.10888671875,"response_time":1681761631905.19},{"trial":2,"action":9,"button_pressed":-1,"time_out":false,"dwell_time":82.06005859375,"response_time":1681761632556.12},{"trial":3,"action":1,"button_pressed":10,"time_out":false,"dwell_time":47.676025390625,"response_time":1681761647850.55},{"trial":3,"action":1,"button_pressed":5,"time_out":false,"dwell_time":64.18896484375,"response_time":1681761648449.54},{"trial":3,"action":1,"button_pressed":3,"time_out":false,"dwell_time":64.18408203125,"response_time":1681761648966.49},{"trial":3,"action":1,"button_pressed":6,"time_out":false,"dwell_time":64.154052734375,"response_time":1681761649232.55},{"trial":3,"action":1,"button_pressed":2,"time_out":false,"dwell_time":97.1220703125,"response_time":1681761649749.25},{"trial":3,"action":9,"button_pressed":-1,"time_out":false,"dwell_time":48.97314453125,"response_time":1681761650383.68},{"trial":4,"action":1,"button_pressed":7,"time_out":false,"dwell_time":64.345947265625,"response_time":1681761667842.8},{"trial":4,"action":1,"button_pressed":3,"time_out":false,"dwell_time":80.97900390625,"response_time":1681761668225.85},{"trial":4,"action":1,"button_pressed":8,"time_out":false,"dwell_time":80.713134765625,"response_time":1681761669309.4},{"trial":4,"action":1,"button_pressed":0,"time_out":false,"dwell_time":64.0029296875,"response_time":1681761669759.31},{"trial":4,"action":1,"button_pressed":4,"time_out":false,"dwell_time":80.9130859375,"response_time":1681761670041.87},{"trial":4,"action":1,"button_pressed":1,"time_out":false,"dwell_time":64.7041015625,"response_time":1681761670475.72},{"trial":4,"action":9,"button_pressed":-1,"time_out":false,"dwell_time":16.738037109375,"response_time":1681761673840.77},{"trial":5,"action":1,"button_pressed":10,"time_out":false,"dwell_time":81.235107421875,"response_time":1681761693850.8},{"trial":5,"action":1,"button_pressed":1,"time_out":false,"dwell_time":98.39501953125,"response_time":1681761694484.14},{"trial":5,"action":1,"button_pressed":2,"time_out":false,"dwell_time":64.1611328125,"response_time":1681761694967.1},{"trial":5,"action":1,"button_pressed":7,"time_out":false,"dwell_time":81.432861328125,"response_time":1681761695433.68},{"trial":5,"action":1,"button_pressed":6,"time_out":false,"dwell_time":98.236083984375,"response_time":1681761695866.9},{"trial":5,"action":1,"button_pressed":0,"time_out":false,"dwell_time":64.324951171875,"response_time":1681761696199.53},{"trial":5,"action":1,"button_pressed":4,"time_out":false,"dwell_time":46.14599609375,"response_time":1681761696482.2},{"trial":5,"action":9,"button_pressed":-1,"time_out":false,"dwell_time":48.52099609375,"response_time":1681761697050.81},{"trial":6,"action":1,"button_pressed":4,"time_out":false,"dwell_time":63.802001953125,"response_time":1681761719724.81},{"trial":6,"action":1,"button_pressed":11,"time_out":false,"dwell_time":64.20703125,"response_time":1681761720091.08},{"trial":6,"action":1,"button_pressed":7,"time_out":false,"dwell_time":97.52099609375,"response_time":1681761720524.28},{"trial":6,"action":1,"button_pressed":2,"time_out":false,"dwell_time":80.87890625,"response_time":1681761722507.51},{"trial":6,"action":1,"button_pressed":0,"time_out":false,"dwell_time":64.224853515625,"response_time":1681761723573.15},{"trial":6,"action":1,"button_pressed":1,"time_out":false,"dwell_time":47.9990234375,"response_time":1681761723974.1},{"trial":6,"action":1,"button_pressed":3,"time_out":false,"dwell_time":64.488037109375,"response_time":1681761724356.33},{"trial":6,"action":1,"button_pressed":9,"time_out":false,"dwell_time":64.029052734375,"response_time":1681761724706.83},{"trial":6,"action":9,"button_pressed":-1,"time_out":false,"dwell_time":47.768798828125,"response_time":1681761725373.52},{"trial":7,"action":1,"button_pressed":0,"time_out":false,"dwell_time":63.571044921875,"response_time":1681761747981.5},{"trial":7,"action":1,"button_pressed":8,"time_out":false,"dwell_time":62.75,"response_time":1681761748447.39},{"trial":7,"action":1,"button_pressed":6,"time_out":false,"dwell_time":63.900146484375,"response_time":1681761749498.24},{"trial":7,"action":1,"button_pressed":5,"time_out":false,"dwell_time":63.987060546875,"response_time":1681761750331.21},{"trial":7,"action":1,"button_pressed":3,"time_out":false,"dwell_time":31.159912109375,"response_time":1681761751231.37},{"trial":7,"action":1,"button_pressed":7,"time_out":false,"dwell_time":97.564208984375,"response_time":1681761751596.93},{"trial":7,"action":1,"button_pressed":2,"time_out":false,"dwell_time":64.099853515625,"response_time":1681761752130.65},{"trial":7,"action":9,"button_pressed":-1,"time_out":false,"dwell_time":48.083984375,"response_time":1681761753530.68},{"trial":8,"action":1,"button_pressed":8,"time_out":false,"dwell_time":63.127197265625,"response_time":1681761770906.8},{"trial":8,"action":1,"button_pressed":11,"time_out":false,"dwell_time":98.0009765625,"response_time":1681761771457.14},{"trial":8,"action":1,"button_pressed":6,"time_out":false,"dwell_time":98.02197265625,"response_time":1681761771807},{"trial":8,"action":1,"button_pressed":4,"time_out":false,"dwell_time":63.458984375,"response_time":1681761772156.36},{"trial":8,"action":1,"button_pressed":1,"time_out":false,"dwell_time":64.154052734375,"response_time":1681761773173.21},{"trial":8,"action":1,"button_pressed":10,"time_out":false,"dwell_time":47.825927734375,"response_time":1681761773640.3},{"trial":8,"action":9,"button_pressed":-1,"time_out":false,"dwell_time":48.32080078125,"response_time":1681761774307.06},{"trial":9,"action":1,"button_pressed":3,"time_out":false,"dwell_time":81.10205078125,"response_time":1681761791633.08},{"trial":9,"action":1,"button_pressed":7,"time_out":false,"dwell_time":81.489990234375,"response_time":1681761791983.44},{"trial":9,"action":1,"button_pressed":4,"time_out":false,"dwell_time":81.054931640625,"response_time":1681761792382.56},{"trial":9,"action":1,"button_pressed":10,"time_out":false,"dwell_time":114.787109375,"response_time":1681761792799.85},{"trial":9,"action":1,"button_pressed":2,"time_out":false,"dwell_time":97.51318359375,"response_time":1681761793148.95},{"trial":9,"action":1,"button_pressed":9,"time_out":false,"dwell_time":47.529052734375,"response_time":1681761793499.77},{"trial":9,"action":9,"button_pressed":-1,"time_out":false,"dwell_time":65.427978515625,"response_time":1681761794332.96},{"trial":10,"action":1,"button_pressed":2,"time_out":false,"dwell_time":63.570068359375,"response_time":1681761815507.79},{"trial":10,"action":1,"button_pressed":6,"time_out":false,"dwell_time":97.06787109375,"response_time":1681761819140.36},{"trial":10,"action":1,"button_pressed":3,"time_out":false,"dwell_time":98.39306640625,"response_time":1681761819440.48},{"trial":10,"action":1,"button_pressed":9,"time_out":false,"dwell_time":64.44189453125,"response_time":1681761819839.93},{"trial":10,"action":1,"button_pressed":0,"time_out":false,"dwell_time":80.381103515625,"response_time":1681761820323},{"trial":10,"action":1,"button_pressed":7,"time_out":false,"dwell_time":63.76708984375,"response_time":1681761820839.89},{"trial":10,"action":1,"button_pressed":7,"time_out":false,"dwell_time":81.30517578125,"response_time":1681761821556.32},{"trial":10,"action":0,"button_pressed":-1,"time_out":false,"dwell_time":97.7490234375,"response_time":1681761823789.22},{"trial":10,"action":1,"button_pressed":2,"time_out":false,"dwell_time":64.298095703125,"response_time":1681761825071.18},{"trial":10,"action":1,"button_pressed":6,"time_out":false,"dwell_time":79.975830078125,"response_time":1681761825720.85},{"trial":10,"action":1,"button_pressed":3,"time_out":false,"dwell_time":81.1259765625,"response_time":1681761828986.57},{"trial":10,"action":1,"button_pressed":9,"time_out":false,"dwell_time":97.335205078125,"response_time":1681761829453.67},{"trial":10,"action":1,"button_pressed":0,"time_out":false,"dwell_time":114.465087890625,"response_time":1681761830019.62},{"trial":10,"action":1,"button_pressed":10,"time_out":false,"dwell_time":47.7109375,"response_time":1681761830602.82},{"trial":10,"action":1,"button_pressed":7,"time_out":false,"dwell_time":98.39501953125,"response_time":1681761831202.35},{"trial":10,"action":9,"button_pressed":-1,"time_out":false,"dwell_time":47.675048828125,"response_time":1681761831886.33},{"trial":11,"action":9,"button_pressed":-1,"time_out":true,"dwell_time":28802.7561035156,"response_time":1681761860641.41}]}