{"meta_data":{"additional_headers":{},"game_name":"Recollect","version":"2.53.01","user_name":"77","organization":"braingamecenter","study":"mpl2_2022_11","session_number":0,"device_id":"74342D95-EE82-45E3-8ADF-48FB3203C5DD"},"data":[{"trial":0,"action":1,"button_pressed":11,"time_out":false,"dwell_time":48.093017578125,"response_time":1681843620653.22},{"trial":0,"action":1,"button_pressed":8,"time_out":false,"dwell_time":47.659912109375,"response_time":1681843621220.28},{"trial":0,"action":9,"button_pressed":-1,"time_out":false,"dwell_time":59.52197265625,"response_time":1681843621830.93},{"trial":1,"action":1,"button_pressed":2,"time_out":false,"dwell_time":80.392822265625,"response_time":1681843631382.87},{"trial":1,"action":1,"button_pressed":4,"time_out":false,"dwell_time":30.4990234375,"response_time":1681843631832.79},{"trial":1,"action":1,"button_pressed":1,"time_out":false,"dwell_time":30.87109375,"response_time":1681843632366.27},{"trial":1,"action":9,"button_pressed":-1,"time_out":false,"dwell_time":47.016845703125,"response_time":1681843632932.87},{"trial":2,"action":1,"button_pressed":1,"time_out":false,"dwell_time":64.202880859375,"response_time":1681843645212.05},{"trial":2,"action":1,"button_pressed":6,"time_out":false,"dwell_time":81.573974609375,"response_time":1681843645512.01},{"trial":2,"action":1,"button_pressed":5,"time_out":false,"dwell_time":81.630126953125,"response_time":1681843646061.88},{"trial":2,"action":1,"button_pressed":10,"time_out":false,"dwell_time":48.724853515625,"response_time":1681843646495.6},{"trial":2,"action":9,"button_pressed":-1,"time_out":false,"dwell_time":49.340087890625,"response_time":1681843647112.35},{"trial":3,"action":1,"button_pressed":0,"time_out":false,"dwell_time":48.409912109375,"response_time":1681843661690.43},{"trial":3,"action":1,"button_pressed":7,"time_out":false,"dwell_time":46.974853515625,"response_time":1681843662889.23},{"trial":3,"action":1,"button_pressed":10,"time_out":false,"dwell_time":64.112060546875,"response_time":1681843663405.36},{"trial":3,"action":1,"button_pressed":4,"time_out":false,"dwell_time":48.7041015625,"response_time":1681843663889.64},{"trial":3,"action":1,"button_pressed":1,"time_out":false,"dwell_time":30.815185546875,"response_time":1681843664372.3},{"trial":3,"action":9,"button_pressed":-1,"time_out":false,"dwell_time":48.340087890625,"response_time":1681843665622.81},{"trial":4,"action":1,"button_pressed":11,"time_out":false,"dwell_time":31.32080078125,"response_time":1681843682783.47},{"trial":4,"action":1,"button_pressed":8,"time_out":false,"dwell_time":64.0888671875,"response_time":1681843683349.49},{"trial":4,"action":1,"button_pressed":4,"time_out":false,"dwell_time":48.12890625,"response_time":1681843683799.08},{"trial":4,"action":1,"button_pressed":1,"time_out":false,"dwell_time":64.671875,"response_time":1681843684232.41},{"trial":4,"action":1,"button_pressed":4,"time_out":false,"dwell_time":30.615234375,"response_time":1681843688447.5},{"trial":4,"action":0,"button_pressed":-1,"time_out":false,"dwell_time":64.462890625,"response_time":1681843690213.45},{"trial":4,"action":1,"button_pressed":11,"time_out":false,"dwell_time":47.81005859375,"response_time":1681843691064.04},{"trial":4,"action":1,"button_pressed":8,"time_out":false,"dwell_time":30.27294921875,"response_time":1681843691613.08},{"trial":4,"action":1,"button_pressed":6,"time_out":false,"dwell_time":48.038818359375,"response_time":1681843692163.14},{"trial":4,"action":1,"button_pressed":4,"time_out":false,"dwell_time":30.7158203125,"response_time":1681843692662.86},{"trial":4,"action":1,"button_pressed":1,"time_out":false,"dwell_time":48.02490234375,"response_time":1681843693113.36},{"trial":4,"action":1,"button_pressed":10,"time_out":false,"dwell_time":47.81201171875,"response_time":1681843693496.58},{"trial":4,"action":9,"button_pressed":-1,"time_out":false,"dwell_time":63.9912109375,"response_time":1681843697477.96},{"trial":5,"action":1,"button_pressed":11,"time_out":false,"dwell_time":30.77587890625,"response_time":1681843717288.17},{"trial":5,"action":1,"button_pressed":4,"time_out":false,"dwell_time":30.56005859375,"response_time":1681843717804.43},{"trial":5,"action":1,"button_pressed":3,"time_out":false,"dwell_time":47.966064453125,"response_time":1681843718287.68},{"trial":5,"action":1,"button_pressed":2,"time_out":false,"dwell_time":63.427001953125,"response_time":1681843718787.05},{"trial":5,"action":1,"button_pressed":10,"time_out":false,"dwell_time":46.93896484375,"response_time":1681843719320.69},{"trial":5,"action":1,"button_pressed":1,"time_out":false,"dwell_time":30.89794921875,"response_time":1681843719837.52},{"trial":5,"action":1,"button_pressed":8,"time_out":false,"dwell_time":47.593017578125,"response_time":1681843720420.36},{"trial":5,"action":9,"button_pressed":-1,"time_out":false,"dwell_time":80.72802734375,"response_time":1681843721453.46},{"trial":6,"action":1,"button_pressed":2,"time_out":false,"dwell_time":115.367919921875,"response_time":1681843741130.79},{"trial":6,"action":1,"button_pressed":9,"time_out":false,"dwell_time":64.822021484375,"response_time":1681843741680.27},{"trial":6,"action":1,"button_pressed":6,"time_out":false,"dwell_time":64.027099609375,"response_time":1681843742046.2},{"trial":6,"action":1,"button_pressed":0,"time_out":false,"dwell_time":80.739990234375,"response_time":1681843742446.69},{"trial":6,"action":1,"button_pressed":10,"time_out":false,"dwell_time":64.255126953125,"response_time":1681843743479},{"trial":6,"action":1,"button_pressed":7,"time_out":false,"dwell_time":63.906982421875,"response_time":1681843743962.76},{"trial":6,"action":9,"button_pressed":-1,"time_out":false,"dwell_time":98.406005859375,"response_time":1681843745746.48},{"trial":7,"action":1,"button_pressed":10,"time_out":false,"dwell_time":64.97607421875,"response_time":1681843760407.42},{"trial":7,"action":1,"button_pressed":5,"time_out":false,"dwell_time":81.926025390625,"response_time":1681843761640.62},{"trial":7,"action":1,"button_pressed":3,"time_out":false,"dwell_time":14.760986328125,"response_time":1681843762090.06},{"trial":7,"action":1,"button_pressed":6,"time_out":false,"dwell_time":48.009033203125,"response_time":1681843762623.28},{"trial":7,"action":1,"button_pressed":2,"time_out":false,"dwell_time":65.117919921875,"response_time":1681843763356.54},{"trial":7,"action":9,"button_pressed":-1,"time_out":false,"dwell_time":98.734130859375,"response_time":1681843764906.33},{"trial":8,"action":1,"button_pressed":4,"time_out":false,"dwell_time":81.18603515625,"response_time":1681843782017.15},{"trial":8,"action":1,"button_pressed":11,"time_out":false,"dwell_time":64.550048828125,"response_time":1681843782533.4},{"trial":8,"action":1,"button_pressed":3,"time_out":false,"dwell_time":80.7958984375,"response_time":1681843783033.26},{"trial":8,"action":1,"button_pressed":2,"time_out":false,"dwell_time":80.64111328125,"response_time":1681843783516.39},{"trial":8,"action":1,"button_pressed":10,"time_out":false,"dwell_time":97.463134765625,"response_time":1681843783949.69},{"trial":8,"action":1,"button_pressed":6,"time_out":false,"dwell_time":64.057861328125,"response_time":1681843784349.64},{"trial":8,"action":9,"button_pressed":-1,"time_out":false,"dwell_time":16.796142578125,"response_time":1681843785681.96},{"trial":9,"action":1,"button_pressed":3,"time_out":false,"dwell_time":81.0810546875,"response_time":1681843805376.12},{"trial":9,"action":1,"button_pressed":0,"time_out":false,"dwell_time":80.78515625,"response_time":1681843805759.1},{"trial":9,"action":1,"button_pressed":10,"time_out":false,"dwell_time":63.47509765625,"response_time":1681843806208.38},{"trial":9,"action":1,"button_pressed":5,"time_out":false,"dwell_time":97.799072265625,"response_time":1681843806691.76},{"trial":9,"action":1,"button_pressed":4,"time_out":false,"dwell_time":63.985107421875,"response_time":1681843807091.76},{"trial":9,"action":1,"button_pressed":1,"time_out":false,"dwell_time":30.666015625,"response_time":1681843807491.64},{"trial":9,"action":1,"button_pressed":2,"time_out":false,"dwell_time":48.6669921875,"response_time":1681843807958.89},{"trial":9,"action":9,"button_pressed":-1,"time_out":false,"dwell_time":81.23095703125,"response_time":1681843808358.66},{"trial":10,"action":1,"button_pressed":5,"time_out":false,"dwell_time":65.057861328125,"response_time":1681843830651.01},{"trial":10,"action":1,"button_pressed":6,"time_out":false,"dwell_time":64.032958984375,"response_time":1681843832882.88},{"trial":10,"action":1,"button_pressed":11,"time_out":false,"dwell_time":47.9169921875,"response_time":1681843833249.92},{"trial":10,"action":1,"button_pressed":1,"time_out":false,"dwell_time":80.85302734375,"response_time":1681843833666.11},{"trial":10,"action":1,"button_pressed":10,"time_out":false,"dwell_time":97.339111328125,"response_time":1681843834149.88},{"trial":10,"action":1,"button_pressed":0,"time_out":false,"dwell_time":63.468017578125,"response_time":1681843834615.58},{"trial":10,"action":1,"button_pressed":7,"time_out":false,"dwell_time":63.427001953125,"response_time":1681843835065.61},{"trial":10,"action":1,"button_pressed":3,"time_out":false,"dwell_time":64.828125,"response_time":1681843835449.28},{"trial":10,"action":9,"button_pressed":-1,"time_out":false,"dwell_time":16.623046875,"response_time":1681843836581.83},{"trial":11,"action":1,"button_pressed":0,"time_out":false,"dwell_time":81.442138671875,"response_time":1681843859024.9},{"trial":11,"action":1,"button_pressed":8,"time_out":false,"dwell_time":98.39892578125,"response_time":1681843859441.74},{"trial":11,"action":1,"button_pressed":6,"time_out":false,"dwell_time":63.35498046875,"response_time":1681843859824.31},{"trial":11,"action":1,"button_pressed":5,"time_out":false,"dwell_time":63.40185546875,"response_time":1681843861223.58},{"trial":11,"action":1,"button_pressed":3,"time_out":false,"dwell_time":63.35986328125,"response_time":1681843861889.96},{"trial":11,"action":1,"button_pressed":2,"time_out":false,"dwell_time":114.362060546875,"response_time":1681843862389.88},{"trial":11,"action":1,"button_pressed":2,"time_out":false,"dwell_time":97.506103515625,"response_time":1681843863256.13},{"trial":11,"action":0,"button_pressed":-1,"time_out":false,"dwell_time":98.46484375,"response_time":1681843864573.4},{"trial":11,"action":1,"button_pressed":0,"time_out":false,"dwell_time":63.43994140625,"response_time":1681843865272.28},{"trial":11,"action":1,"button_pressed":8,"time_out":false,"dwell_time":63.8369140625,"response_time":1681843866021.95},{"trial":11,"action":1,"button_pressed":6,"time_out":false,"dwell_time":81.751953125,"response_time":1681843869220.91},{"trial":11,"action":1,"button_pressed":5,"time_out":false,"dwell_time":148.364990234375,"response_time":1681843869821.7},{"trial":11,"action":1,"button_pressed":7,"time_out":false,"dwell_time":80.551025390625,"response_time":1681843870553.8},{"trial":11,"action":1,"button_pressed":2,"time_out":false,"dwell_time":80.762939453125,"response_time":1681843872437.23},{"trial":11,"action":1,"button_pressed":4,"time_out":false,"dwell_time":63.933837890625,"response_time":1681843873252.8},{"trial":11,"action":1,"button_pressed":3,"time_out":false,"dwell_time":48.055908203125,"response_time":1681843873586.65},{"trial":11,"action":9,"button_pressed":-1,"time_out":false,"dwell_time":148.5859375,"response_time":1681843874870.19}]}