{"meta_data":{"additional_headers":{},"game_name":"Recollect","version":"2.53.01","user_name":"78","organization":"braingamecenter","study":"mpl2_2022_11","session_number":0,"device_id":"74342D95-EE82-45E3-8ADF-48FB3203C5DD"},"data":[{"trial":0,"action":1,"button_pressed":3,"time_out":false,"dwell_time":47.876953125,"response_time":1681934287678.69},{"trial":0,"action":1,"button_pressed":2,"time_out":false,"dwell_time":64.466064453125,"response_time":1681934288328.21},{"trial":0,"action":9,"button_pressed":-1,"time_out":false,"dwell_time":75.028076171875,"response_time":1681934288955.31},{"trial":1,"action":1,"button_pressed":3,"time_out":false,"dwell_time":48.3291015625,"response_time":1681934298575.05},{"trial":1,"action":1,"button_pressed":9,"time_out":false,"dwell_time":47.27490234375,"response_time":1681934298957.64},{"trial":1,"action":1,"button_pressed":7,"time_out":false,"dwell_time":48.492919921875,"response_time":1681934299391.36},{"trial":1,"action":9,"button_pressed":-1,"time_out":false,"dwell_time":64.226806640625,"response_time":1681934300124.15},{"trial":2,"action":1,"button_pressed":1,"time_out":false,"dwell_time":64.350830078125,"response_time":1681934312252.65},{"trial":2,"action":1,"button_pressed":6,"time_out":false,"dwell_time":47.575927734375,"response_time":1681934312552.89},{"trial":2,"action":1,"button_pressed":5,"time_out":false,"dwell_time":64.09814453125,"response_time":1681934313219.67},{"trial":2,"action":1,"button_pressed":10,"time_out":false,"dwell_time":47.891845703125,"response_time":1681934313636.61},{"trial":2,"action":9,"button_pressed":-1,"time_out":false,"dwell_time":64.294189453125,"response_time":1681934314552.76},{"trial":3,"action":1,"button_pressed":3,"time_out":false,"dwell_time":47.490966796875,"response_time":1681934329114.36},{"trial":3,"action":1,"button_pressed":8,"time_out":false,"dwell_time":47.346923828125,"response_time":1681934329530.87},{"trial":3,"action":1,"button_pressed":4,"time_out":false,"dwell_time":47.716064453125,"response_time":1681934330047.94},{"trial":3,"action":1,"button_pressed":10,"time_out":false,"dwell_time":47.951904296875,"response_time":1681934330481.16},{"trial":3,"action":1,"button_pressed":11,"time_out":false,"dwell_time":31.16796875,"response_time":1681934331080.92},{"trial":3,"action":9,"button_pressed":-1,"time_out":false,"dwell_time":16.576171875,"response_time":1681934332029.66},{"trial":4,"action":1,"button_pressed":0,"time_out":false,"dwell_time":63.703125,"response_time":1681934348974.03},{"trial":4,"action":1,"button_pressed":4,"time_out":false,"dwell_time":82.046875,"response_time":1681934349325.03},{"trial":4,"action":1,"button_pressed":11,"time_out":false,"dwell_time":64.094970703125,"response_time":1681934349790.9},{"trial":4,"action":1,"button_pressed":3,"time_out":false,"dwell_time":47.803955078125,"response_time":1681934350241.15},{"trial":4,"action":1,"button_pressed":5,"time_out":false,"dwell_time":64.755126953125,"response_time":1681934350740.5},{"trial":4,"action":1,"button_pressed":7,"time_out":false,"dwell_time":30.467041015625,"response_time":1681934351340.19},{"trial":4,"action":9,"button_pressed":-1,"time_out":false,"dwell_time":65.614013671875,"response_time":1681934352090.8},{"trial":5,"action":1,"button_pressed":6,"time_out":false,"dwell_time":48.01806640625,"response_time":1681934375282.42},{"trial":5,"action":1,"button_pressed":2,"time_out":false,"dwell_time":64.942138671875,"response_time":1681934376498.88},{"trial":5,"action":1,"button_pressed":4,"time_out":false,"dwell_time":64.177978515625,"response_time":1681934377148.56},{"trial":5,"action":1,"button_pressed":8,"time_out":false,"dwell_time":64.0859375,"response_time":1681934377715.02},{"trial":5,"action":1,"button_pressed":1,"time_out":false,"dwell_time":30.50390625,"response_time":1681934378364.67},{"trial":5,"action":1,"button_pressed":9,"time_out":false,"dwell_time":47.93798828125,"response_time":1681934381747.53},{"trial":5,"action":1,"button_pressed":10,"time_out":false,"dwell_time":64.416015625,"response_time":1681934384445.88},{"trial":5,"action":9,"button_pressed":-1,"time_out":false,"dwell_time":80.8310546875,"response_time":1681934386912.02},{"trial":6,"action":1,"button_pressed":8,"time_out":false,"dwell_time":64.73583984375,"response_time":1681934406672.6},{"trial":6,"action":1,"button_pressed":5,"time_out":false,"dwell_time":47.879150390625,"response_time":1681934407238.37},{"trial":6,"action":1,"button_pressed":1,"time_out":false,"dwell_time":48.56103515625,"response_time":1681934407822.85},{"trial":6,"action":1,"button_pressed":2,"time_out":false,"dwell_time":64.862060546875,"response_time":1681934408771.51},{"trial":6,"action":1,"button_pressed":7,"time_out":false,"dwell_time":47.72802734375,"response_time":1681934413919.6},{"trial":6,"action":1,"button_pressed":0,"time_out":false,"dwell_time":64.580078125,"response_time":1681934414669.53},{"trial":6,"action":1,"button_pressed":11,"time_out":false,"dwell_time":30.390869140625,"response_time":1681934415185.86},{"trial":6,"action":9,"button_pressed":-1,"time_out":false,"dwell_time":80.719970703125,"response_time":1681934417568.46},{"trial":7,"action":1,"button_pressed":8,"time_out":false,"dwell_time":47.97607421875,"response_time":1681934432331.06},{"trial":7,"action":1,"button_pressed":4,"time_out":false,"dwell_time":47.967041015625,"response_time":1681934436829.45},{"trial":7,"action":1,"button_pressed":1,"time_out":false,"dwell_time":30.547119140625,"response_time":1681934437528.47},{"trial":7,"action":1,"button_pressed":5,"time_out":false,"dwell_time":47.18994140625,"response_time":1681934438194.93},{"trial":7,"action":1,"button_pressed":3,"time_out":false,"dwell_time":48.720947265625,"response_time":1681934438728.8},{"trial":7,"action":9,"button_pressed":-1,"time_out":false,"dwell_time":64.68994140625,"response_time":1681934439361.28},{"trial":8,"action":1,"button_pressed":11,"time_out":false,"dwell_time":31.494873046875,"response_time":1681934456772.26},{"trial":8,"action":1,"button_pressed":4,"time_out":false,"dwell_time":46.39599609375,"response_time":1681934457871.09},{"trial":8,"action":1,"button_pressed":3,"time_out":false,"dwell_time":47.775146484375,"response_time":1681934458522.12},{"trial":8,"action":1,"button_pressed":2,"time_out":false,"dwell_time":64.93505859375,"response_time":1681934459271.66},{"trial":8,"action":1,"button_pressed":10,"time_out":false,"dwell_time":47.438232421875,"response_time":1681934459738.15},{"trial":8,"action":1,"button_pressed":6,"time_out":false,"dwell_time":47.828857421875,"response_time":1681934460205.02},{"trial":8,"action":9,"button_pressed":-1,"time_out":false,"dwell_time":47.519775390625,"response_time":1681934461071.15},{"trial":9,"action":1,"button_pressed":2,"time_out":false,"dwell_time":64.34814453125,"response_time":1681934478481.92},{"trial":9,"action":1,"button_pressed":6,"time_out":false,"dwell_time":47.7138671875,"response_time":1681934478915.44},{"trial":9,"action":1,"button_pressed":10,"time_out":false,"dwell_time":47.614013671875,"response_time":1681934479365.25},{"trial":9,"action":1,"button_pressed":3,"time_out":false,"dwell_time":63.942138671875,"response_time":1681934481280.92},{"trial":9,"action":1,"button_pressed":7,"time_out":false,"dwell_time":48.7041015625,"response_time":1681934481647.96},{"trial":9,"action":1,"button_pressed":9,"time_out":false,"dwell_time":30.239013671875,"response_time":1681934482030.45},{"trial":9,"action":9,"button_pressed":-1,"time_out":false,"dwell_time":64.576904296875,"response_time":1681934483314.1}]}