{"meta_data":{"additional_headers":{},"game_name":"Recollect","version":"2.53.01","user_name":"79","organization":"braingamecenter","study":"mpl2_2022_11","session_number":0,"device_id":"74342D95-EE82-45E3-8ADF-48FB3203C5DD"},"data":[{"trial":0,"action":1,"button_pressed":1,"time_out":false,"dwell_time":65.092041015625,"response_time":1682021191779.97},{"trial":0,"action":1,"button_pressed":5,"time_out":false,"dwell_time":80.838134765625,"response_time":1682021192412.28},{"trial":0,"action":9,"button_pressed":-1,"time_out":false,"dwell_time":75.697998046875,"response_time":1682021192973.46},{"trial":1,"action":1,"button_pressed":8,"time_out":false,"dwell_time":64.26708984375,"response_time":1682021202542.38},{"trial":1,"action":1,"button_pressed":11,"time_out":false,"dwell_time":30.569091796875,"response_time":1682021203092.61},{"trial":1,"action":1,"button_pressed":5,"time_out":false,"dwell_time":81.594970703125,"response_time":1682021203725.82},{"trial":1,"action":9,"button_pressed":-1,"time_out":false,"dwell_time":64.781982421875,"response_time":1682021204292.23},{"trial":2,"action":1,"button_pressed":6,"time_out":false,"dwell_time":81.5419921875,"response_time":1682021216305.3},{"trial":2,"action":1,"button_pressed":8,"time_out":false,"dwell_time":63.420166015625,"response_time":1682021216770.9},{"trial":2,"action":1,"button_pressed":11,"time_out":false,"dwell_time":98.1728515625,"response_time":1682021217321.4},{"trial":2,"action":1,"button_pressed":7,"time_out":false,"dwell_time":81.076904296875,"response_time":1682021217754.49},{"trial":2,"action":9,"button_pressed":-1,"time_out":false,"dwell_time":81.22900390625,"response_time":1682021218354.17},{"trial":3,"action":1,"button_pressed":10,"time_out":false,"dwell_time":48.072021484375,"response_time":1682021232899.41},{"trial":3,"action":1,"button_pressed":5,"time_out":false,"dwell_time":80.916015625,"response_time":1682021233432.67},{"trial":3,"action":1,"button_pressed":3,"time_out":false,"dwell_time":63.264892578125,"response_time":1682021233948.53},{"trial":3,"action":1,"button_pressed":6,"time_out":false,"dwell_time":47.12890625,"response_time":1682021234298.79},{"trial":3,"action":1,"button_pressed":2,"time_out":false,"dwell_time":80.848876953125,"response_time":1682021234898.86},{"trial":3,"action":9,"button_pressed":-1,"time_out":false,"dwell_time":81.452880859375,"response_time":1682021235481.84},{"trial":4,"action":1,"button_pressed":5,"time_out":false,"dwell_time":96.969970703125,"response_time":1682021252542.55},{"trial":4,"action":1,"button_pressed":10,"time_out":false,"dwell_time":64.7919921875,"response_time":1682021253076.14},{"trial":4,"action":1,"button_pressed":7,"time_out":false,"dwell_time":63.364990234375,"response_time":1682021253608.72},{"trial":4,"action":1,"button_pressed":0,"time_out":false,"dwell_time":64.10595703125,"response_time":1682021254175.81},{"trial":4,"action":1,"button_pressed":0,"time_out":false,"dwell_time":64.031005859375,"response_time":1682021255324.65},{"trial":4,"action":1,"button_pressed":4,"time_out":false,"dwell_time":81.39599609375,"response_time":1682021256391.82},{"trial":4,"action":0,"button_pressed":-1,"time_out":false,"dwell_time":81.7568359375,"response_time":1682021259124.39},{"trial":4,"action":1,"button_pressed":5,"time_out":false,"dwell_time":81.5048828125,"response_time":1682021259857.28},{"trial":4,"action":1,"button_pressed":10,"time_out":false,"dwell_time":47.156982421875,"response_time":1682021260306.84},{"trial":4,"action":1,"button_pressed":7,"time_out":false,"dwell_time":48.131103515625,"response_time":1682021260790.27},{"trial":4,"action":1,"button_pressed":4,"time_out":false,"dwell_time":64.23291015625,"response_time":1682021261356.05},{"trial":4,"action":1,"button_pressed":0,"time_out":false,"dwell_time":64.830078125,"response_time":1682021261773.19},{"trial":4,"action":1,"button_pressed":8,"time_out":false,"dwell_time":80.85693359375,"response_time":1682021262222.56},{"trial":4,"action":9,"button_pressed":-1,"time_out":false,"dwell_time":81.376953125,"response_time":1682021263056.72},{"trial":5,"action":1,"button_pressed":11,"time_out":false,"dwell_time":64.384033203125,"response_time":1682021283333.02},{"trial":5,"action":1,"button_pressed":4,"time_out":false,"dwell_time":80.879150390625,"response_time":1682021283815.33},{"trial":5,"action":1,"button_pressed":3,"time_out":false,"dwell_time":64.799072265625,"response_time":1682021284149.12},{"trial":5,"action":1,"button_pressed":10,"time_out":false,"dwell_time":63.671875,"response_time":1682021284465.21},{"trial":5,"action":1,"button_pressed":2,"time_out":false,"dwell_time":64.33984375,"response_time":1682021284848.32},{"trial":5,"action":1,"button_pressed":8,"time_out":false,"dwell_time":48.553955078125,"response_time":1682021285149.29},{"trial":5,"action":1,"button_pressed":1,"time_out":false,"dwell_time":47.304931640625,"response_time":1682021285615.16},{"trial":5,"action":9,"button_pressed":-1,"time_out":false,"dwell_time":65.368896484375,"response_time":1682021286049.06},{"trial":6,"action":1,"button_pressed":9,"time_out":false,"dwell_time":64.2939453125,"response_time":1682021308624.54},{"trial":6,"action":1,"button_pressed":7,"time_out":false,"dwell_time":47.847900390625,"response_time":1682021310274.39},{"trial":6,"action":1,"button_pressed":4,"time_out":false,"dwell_time":98.220947265625,"response_time":1682021312239.93},{"trial":6,"action":1,"button_pressed":3,"time_out":false,"dwell_time":64.109130859375,"response_time":1682021312639.65},{"trial":6,"action":1,"button_pressed":10,"time_out":false,"dwell_time":80.8671875,"response_time":1682021313105.7},{"trial":6,"action":1,"button_pressed":5,"time_out":false,"dwell_time":81.669189453125,"response_time":1682021314189.19},{"trial":6,"action":1,"button_pressed":11,"time_out":false,"dwell_time":64.577880859375,"response_time":1682021314821.96},{"trial":6,"action":9,"button_pressed":-1,"time_out":false,"dwell_time":80.740966796875,"response_time":1682021315555.34},{"trial":7,"action":1,"button_pressed":9,"time_out":false,"dwell_time":64.3369140625,"response_time":1682021338447.38},{"trial":7,"action":1,"button_pressed":2,"time_out":false,"dwell_time":114.718994140625,"response_time":1682021339098.29},{"trial":7,"action":1,"button_pressed":1,"time_out":false,"dwell_time":64.802001953125,"response_time":1682021339797.33},{"trial":7,"action":1,"button_pressed":6,"time_out":false,"dwell_time":81.4619140625,"response_time":1682021340413.97},{"trial":7,"action":1,"button_pressed":8,"time_out":false,"dwell_time":47.052978515625,"response_time":1682021341013.45},{"trial":7,"action":1,"button_pressed":11,"time_out":false,"dwell_time":47.9560546875,"response_time":1682021341614.02},{"trial":7,"action":1,"button_pressed":5,"time_out":false,"dwell_time":63.509033203125,"response_time":1682021342329.26},{"trial":7,"action":9,"button_pressed":-1,"time_out":false,"dwell_time":98.818115234375,"response_time":1682021343463.48},{"trial":8,"action":1,"button_pressed":8,"time_out":false,"dwell_time":64.117919921875,"response_time":1682021360990.41},{"trial":8,"action":1,"button_pressed":0,"time_out":false,"dwell_time":31.17919921875,"response_time":1682021361374.13},{"trial":8,"action":1,"button_pressed":1,"time_out":false,"dwell_time":64.951904296875,"response_time":1682021361756.92},{"trial":8,"action":1,"button_pressed":9,"time_out":false,"dwell_time":80.818115234375,"response_time":1682021362072.8},{"trial":8,"action":1,"button_pressed":3,"time_out":false,"dwell_time":48.010986328125,"response_time":1682021362373.73},{"trial":8,"action":1,"button_pressed":5,"time_out":false,"dwell_time":64.10107421875,"response_time":1682021362756.36},{"trial":8,"action":9,"button_pressed":-1,"time_out":false,"dwell_time":64.637939453125,"response_time":1682021363372.73},{"trial":9,"action":1,"button_pressed":4,"time_out":false,"dwell_time":81.68212890625,"response_time":1682021383866.25},{"trial":9,"action":1,"button_pressed":2,"time_out":false,"dwell_time":64.14501953125,"response_time":1682021384215.26},{"trial":9,"action":1,"button_pressed":1,"time_out":false,"dwell_time":81.748046875,"response_time":1682021385965.42},{"trial":9,"action":1,"button_pressed":8,"time_out":false,"dwell_time":80.656005859375,"response_time":1682021386697.81},{"trial":9,"action":0,"button_pressed":-1,"time_out":false,"dwell_time":63.68310546875,"response_time":1682021391712.83},{"trial":9,"action":1,"button_pressed":4,"time_out":false,"dwell_time":63.35302734375,"response_time":1682021392179.42},{"trial":9,"action":1,"button_pressed":2,"time_out":false,"dwell_time":64.19091796875,"response_time":1682021392545.87},{"trial":9,"action":1,"button_pressed":1,"time_out":false,"dwell_time":80.153076171875,"response_time":1682021393062.55},{"trial":9,"action":1,"button_pressed":9,"time_out":false,"dwell_time":80.68896484375,"response_time":1682021393479.64},{"trial":9,"action":1,"button_pressed":8,"time_out":false,"dwell_time":81.426025390625,"response_time":1682021393896.15},{"trial":9,"action":1,"button_pressed":0,"time_out":false,"dwell_time":81.64306640625,"response_time":1682021394346.02},{"trial":9,"action":9,"button_pressed":-1,"time_out":false,"dwell_time":48.35498046875,"response_time":1682021396113.07},{"trial":10,"action":1,"button_pressed":9,"time_out":false,"dwell_time":147.4130859375,"response_time":1682021417971.14},{"trial":10,"action":1,"button_pressed":1,"time_out":false,"dwell_time":130.758056640625,"response_time":1682021419004.59},{"trial":10,"action":1,"button_pressed":7,"time_out":false,"dwell_time":62.760009765625,"response_time":1682021420603.49},{"trial":10,"action":1,"button_pressed":2,"time_out":false,"dwell_time":63.300048828125,"response_time":1682021421203.11},{"trial":10,"action":1,"button_pressed":5,"time_out":false,"dwell_time":81.755126953125,"response_time":1682021421520.59},{"trial":10,"action":1,"button_pressed":11,"time_out":false,"dwell_time":47.2919921875,"response_time":1682021422636.6},{"trial":10,"action":1,"button_pressed":3,"time_out":false,"dwell_time":48.099853515625,"response_time":1682021423153.01},{"trial":10,"action":9,"button_pressed":-1,"time_out":false,"dwell_time":32.7041015625,"response_time":1682021426070.25}]}