{"meta_data":{"additional_headers":{},"game_name":"Recollect","version":"2.53.01","user_name":"80","organization":"braingamecenter","study":"mpl2_2022_11","session_number":0,"device_id":"74342D95-EE82-45E3-8ADF-48FB3203C5DD"},"data":[{"trial":0,"action":1,"button_pressed":4,"time_out":false,"dwell_time":47.4560546875,"response_time":1682033562415.01},{"trial":0,"action":1,"button_pressed":11,"time_out":false,"dwell_time":31.35400390625,"response_time":1682033562765.85},{"trial":0,"action":9,"button_pressed":-1,"time_out":false,"dwell_time":58.034912109375,"response_time":1682033563375.52},{"trial":1,"action":1,"button_pressed":4,"time_out":false,"dwell_time":48.887939453125,"response_time":1682033572978.92},{"trial":1,"action":1,"button_pressed":7,"time_out":false,"dwell_time":31.0009765625,"response_time":1682033573311.29},{"trial":1,"action":1,"button_pressed":10,"time_out":false,"dwell_time":47.118896484375,"response_time":1682033573661.19},{"trial":1,"action":9,"button_pressed":-1,"time_out":false,"dwell_time":64.001953125,"response_time":1682033574211.05},{"trial":2,"action":1,"button_pressed":8,"time_out":false,"dwell_time":31.423095703125,"response_time":1682033586273.86},{"trial":2,"action":1,"button_pressed":1,"time_out":false,"dwell_time":64.919921875,"response_time":1682033586707.14},{"trial":2,"action":1,"button_pressed":3,"time_out":false,"dwell_time":64.35302734375,"response_time":1682033587006.48},{"trial":2,"action":1,"button_pressed":11,"time_out":false,"dwell_time":12.7841796875,"response_time":1682033587372.67},{"trial":2,"action":9,"button_pressed":-1,"time_out":false,"dwell_time":98.7109375,"response_time":1682033588956.85},{"trial":3,"action":1,"button_pressed":0,"time_out":false,"dwell_time":65.174072265625,"response_time":1682033603418.46},{"trial":3,"action":1,"button_pressed":7,"time_out":false,"dwell_time":31.1279296875,"response_time":1682033604634.95},{"trial":3,"action":1,"button_pressed":10,"time_out":false,"dwell_time":47.065185546875,"response_time":1682033605151.13},{"trial":3,"action":1,"button_pressed":4,"time_out":false,"dwell_time":48.82080078125,"response_time":1682033605601.43},{"trial":3,"action":1,"button_pressed":1,"time_out":false,"dwell_time":30.47802734375,"response_time":1682033606067.19},{"trial":3,"action":9,"button_pressed":-1,"time_out":false,"dwell_time":48.262939453125,"response_time":1682033606584.78},{"trial":4,"action":1,"button_pressed":4,"time_out":false,"dwell_time":63.73388671875,"response_time":1682033624744.15},{"trial":4,"action":1,"button_pressed":0,"time_out":false,"dwell_time":48.0400390625,"response_time":1682033625377.57},{"trial":4,"action":1,"button_pressed":3,"time_out":false,"dwell_time":64.433837890625,"response_time":1682033625876.96},{"trial":4,"action":1,"button_pressed":11,"time_out":false,"dwell_time":48.635986328125,"response_time":1682033626294.62},{"trial":4,"action":1,"button_pressed":5,"time_out":false,"dwell_time":47.798095703125,"response_time":1682033626743.64},{"trial":4,"action":1,"button_pressed":7,"time_out":false,"dwell_time":48.427978515625,"response_time":1682033627244.26},{"trial":4,"action":9,"button_pressed":-1,"time_out":false,"dwell_time":64.796875,"response_time":1682033627993.46},{"trial":5,"action":1,"button_pressed":3,"time_out":false,"dwell_time":13.424072265625,"response_time":1682033645420.39},{"trial":5,"action":1,"button_pressed":7,"time_out":false,"dwell_time":47.717041015625,"response_time":1682033645754.18},{"trial":5,"action":1,"button_pressed":4,"time_out":false,"dwell_time":81.007080078125,"response_time":1682033646553.53},{"trial":5,"action":1,"button_pressed":10,"time_out":false,"dwell_time":47.677001953125,"response_time":1682033650469.97},{"trial":5,"action":1,"button_pressed":2,"time_out":false,"dwell_time":47.27197265625,"response_time":1682033650835.88},{"trial":5,"action":1,"button_pressed":9,"time_out":false,"dwell_time":48.3701171875,"response_time":1682033651203.09},{"trial":5,"action":9,"button_pressed":-1,"time_out":false,"dwell_time":48.5869140625,"response_time":1682033654685.81},{"trial":6,"action":1,"button_pressed":2,"time_out":false,"dwell_time":64.94091796875,"response_time":1682033674278.46},{"trial":6,"action":1,"button_pressed":4,"time_out":false,"dwell_time":63.837158203125,"response_time":1682033674694.89},{"trial":6,"action":1,"button_pressed":6,"time_out":false,"dwell_time":64.007080078125,"response_time":1682033675244.1},{"trial":6,"action":1,"button_pressed":6,"time_out":false,"dwell_time":47.89111328125,"response_time":1682033677827.79},{"trial":6,"action":1,"button_pressed":8,"time_out":false,"dwell_time":48.089111328125,"response_time":1682033678260.26},{"trial":6,"action":0,"button_pressed":-1,"time_out":false,"dwell_time":65.27490234375,"response_time":1682033680510},{"trial":6,"action":1,"button_pressed":2,"time_out":false,"dwell_time":81.48095703125,"response_time":1682033681109.46},{"trial":6,"action":1,"button_pressed":4,"time_out":false,"dwell_time":64.122802734375,"response_time":1682033681609.27},{"trial":6,"action":1,"button_pressed":6,"time_out":false,"dwell_time":47.781982421875,"response_time":1682033684208.98},{"trial":6,"action":1,"button_pressed":8,"time_out":false,"dwell_time":47.19482421875,"response_time":1682033684658.05},{"trial":6,"action":0,"button_pressed":-1,"time_out":false,"dwell_time":65.091064453125,"response_time":1682033688607.17},{"trial":6,"action":1,"button_pressed":2,"time_out":false,"dwell_time":64.08203125,"response_time":1682033689156.15},{"trial":6,"action":1,"button_pressed":4,"time_out":false,"dwell_time":64.9541015625,"response_time":1682033689573.34},{"trial":6,"action":1,"button_pressed":8,"time_out":false,"dwell_time":47.097900390625,"response_time":1682033689956.34},{"trial":6,"action":1,"button_pressed":6,"time_out":false,"dwell_time":63.908935546875,"response_time":1682033692105.79},{"trial":6,"action":1,"button_pressed":9,"time_out":false,"dwell_time":64.79296875,"response_time":1682033692472.42},{"trial":6,"action":1,"button_pressed":1,"time_out":false,"dwell_time":48.567138671875,"response_time":1682033692922.76},{"trial":6,"action":9,"button_pressed":-1,"time_out":false,"dwell_time":49.162841796875,"response_time":1682033695189.13},{"trial":7,"action":1,"button_pressed":10,"time_out":false,"dwell_time":30.703125,"response_time":1682033715114.9},{"trial":7,"action":1,"button_pressed":1,"time_out":false,"dwell_time":31.3779296875,"response_time":1682033715664.61},{"trial":7,"action":1,"button_pressed":7,"time_out":false,"dwell_time":63.318115234375,"response_time":1682033718213.3},{"trial":7,"action":0,"button_pressed":-1,"time_out":false,"dwell_time":47.525146484375,"response_time":1682033720763.08},{"trial":7,"action":1,"button_pressed":10,"time_out":false,"dwell_time":47.033935546875,"response_time":1682033721412.77},{"trial":7,"action":1,"button_pressed":1,"time_out":false,"dwell_time":48.489013671875,"response_time":1682033721896.22},{"trial":7,"action":1,"button_pressed":2,"time_out":false,"dwell_time":64.8701171875,"response_time":1682033722412.63},{"trial":7,"action":1,"button_pressed":7,"time_out":false,"dwell_time":30.328857421875,"response_time":1682033723245.36},{"trial":7,"action":1,"button_pressed":4,"time_out":false,"dwell_time":63.60986328125,"response_time":1682033725877.52},{"trial":7,"action":1,"button_pressed":0,"time_out":false,"dwell_time":81.134033203125,"response_time":1682033726160.89},{"trial":7,"action":1,"button_pressed":6,"time_out":false,"dwell_time":47.27001953125,"response_time":1682033726494.48},{"trial":7,"action":9,"button_pressed":-1,"time_out":false,"dwell_time":47.98291015625,"response_time":1682033727211.42},{"trial":8,"action":1,"button_pressed":5,"time_out":false,"dwell_time":63.701904296875,"response_time":1682033741955.7},{"trial":8,"action":1,"button_pressed":9,"time_out":false,"dwell_time":47.925048828125,"response_time":1682033743023.01},{"trial":8,"action":1,"button_pressed":6,"time_out":false,"dwell_time":63.843994140625,"response_time":1682033743488.81},{"trial":8,"action":1,"button_pressed":8,"time_out":false,"dwell_time":47.696044921875,"response_time":1682033743955.99},{"trial":8,"action":1,"button_pressed":7,"time_out":false,"dwell_time":47.85009765625,"response_time":1682033744622.43},{"trial":8,"action":9,"button_pressed":-1,"time_out":false,"dwell_time":64.794921875,"response_time":1682033745954.73},{"trial":9,"action":1,"button_pressed":1,"time_out":false,"dwell_time":47.251953125,"response_time":1682033763232.54},{"trial":9,"action":1,"button_pressed":9,"time_out":false,"dwell_time":30.593017578125,"response_time":1682033763632.34},{"trial":9,"action":1,"button_pressed":2,"time_out":false,"dwell_time":64.31689453125,"response_time":1682033764714.91},{"trial":9,"action":1,"button_pressed":8,"time_out":false,"dwell_time":29.3759765625,"response_time":1682033765130.83},{"trial":9,"action":1,"button_pressed":6,"time_out":false,"dwell_time":46.98291015625,"response_time":1682033765714.74},{"trial":9,"action":1,"button_pressed":11,"time_out":false,"dwell_time":47.681884765625,"response_time":1682033766048.82},{"trial":9,"action":9,"button_pressed":-1,"time_out":false,"dwell_time":49.0439453125,"response_time":1682033766748.92},{"trial":10,"action":1,"button_pressed":10,"time_out":false,"dwell_time":65.1279296875,"response_time":1682033784026.05},{"trial":10,"action":1,"button_pressed":2,"time_out":false,"dwell_time":47.43994140625,"response_time":1682033784408.98},{"trial":10,"action":1,"button_pressed":9,"time_out":false,"dwell_time":47.634033203125,"response_time":1682033784892.64},{"trial":10,"action":1,"button_pressed":5,"time_out":false,"dwell_time":48.701171875,"response_time":1682033785309.14},{"trial":10,"action":1,"button_pressed":11,"time_out":false,"dwell_time":48.408935546875,"response_time":1682033785758.98},{"trial":10,"action":1,"button_pressed":0,"time_out":false,"dwell_time":47.259033203125,"response_time":1682033786241.55},{"trial":10,"action":9,"button_pressed":-1,"time_out":false,"dwell_time":49.184814453125,"response_time":1682033786625.74},{"trial":11,"action":1,"button_pressed":9,"time_out":false,"dwell_time":64.2138671875,"response_time":1682033806501.88},{"trial":11,"action":1,"button_pressed":7,"time_out":false,"dwell_time":47.615966796875,"response_time":1682033806935.34},{"trial":11,"action":1,"button_pressed":4,"time_out":false,"dwell_time":64.39697265625,"response_time":1682033807450.94},{"trial":11,"action":1,"button_pressed":1,"time_out":false,"dwell_time":46.9990234375,"response_time":1682033807951.01},{"trial":11,"action":1,"button_pressed":11,"time_out":false,"dwell_time":31.452880859375,"response_time":1682033808450.95},{"trial":11,"action":1,"button_pressed":8,"time_out":false,"dwell_time":30.47802734375,"response_time":1682033809533.83},{"trial":11,"action":9,"button_pressed":-1,"time_out":false,"dwell_time":147.265869140625,"response_time":1682033811649.85},{"trial":12,"action":1,"button_pressed":7,"time_out":false,"dwell_time":65.140869140625,"response_time":1682033831343.82},{"trial":12,"action":1,"button_pressed":11,"time_out":false,"dwell_time":81.160888671875,"response_time":1682033831726.9},{"trial":12,"action":1,"button_pressed":0,"time_out":false,"dwell_time":80.777099609375,"response_time":1682033832342.79},{"trial":12,"action":1,"button_pressed":9,"time_out":false,"dwell_time":64.053955078125,"response_time":1682033833592.11},{"trial":12,"action":1,"button_pressed":5,"time_out":false,"dwell_time":64.199951171875,"response_time":1682033834058.77},{"trial":12,"action":1,"button_pressed":6,"time_out":false,"dwell_time":31.08203125,"response_time":1682033834459.78},{"trial":12,"action":9,"button_pressed":-1,"time_out":false,"dwell_time":65.251953125,"response_time":1682033835892.56}]}