{"meta_data":{"additional_headers":{},"game_name":"Recollect","version":"2.53.01","user_name":"83","organization":"braingamecenter","study":"mpl2_2022_11","session_number":0,"device_id":"74342D95-EE82-45E3-8ADF-48FB3203C5DD"},"data":[{"trial":0,"action":1,"button_pressed":0,"time_out":false,"dwell_time":98.39013671875,"response_time":1682386071805.07},{"trial":0,"action":1,"button_pressed":6,"time_out":false,"dwell_time":64.77880859375,"response_time":1682386072154.89},{"trial":0,"action":9,"button_pressed":-1,"time_out":false,"dwell_time":27.77099609375,"response_time":1682386072831.87},{"trial":1,"action":1,"button_pressed":0,"time_out":false,"dwell_time":47.514892578125,"response_time":1682386082551.34},{"trial":1,"action":1,"button_pressed":10,"time_out":false,"dwell_time":64.2060546875,"response_time":1682386082867.25},{"trial":1,"action":1,"button_pressed":11,"time_out":false,"dwell_time":62.66796875,"response_time":1682386083200.03},{"trial":1,"action":9,"button_pressed":-1,"time_out":false,"dwell_time":47.884033203125,"response_time":1682386083851.28},{"trial":2,"action":1,"button_pressed":5,"time_out":false,"dwell_time":80.077880859375,"response_time":1682386097012.74},{"trial":2,"action":1,"button_pressed":7,"time_out":false,"dwell_time":113.681884765625,"response_time":1682386097345.71},{"trial":2,"action":1,"button_pressed":1,"time_out":false,"dwell_time":47.880126953125,"response_time":1682386097763.49},{"trial":2,"action":1,"button_pressed":9,"time_out":false,"dwell_time":63.948974609375,"response_time":1682386098329.42},{"trial":2,"action":9,"button_pressed":-1,"time_out":false,"dwell_time":48.4609375,"response_time":1682386099213.43},{"trial":3,"action":1,"button_pressed":10,"time_out":false,"dwell_time":64.17578125,"response_time":1682386113824.37},{"trial":3,"action":1,"button_pressed":5,"time_out":false,"dwell_time":64.72412109375,"response_time":1682386114873.97},{"trial":3,"action":1,"button_pressed":3,"time_out":false,"dwell_time":47.56005859375,"response_time":1682386115407.26},{"trial":3,"action":1,"button_pressed":6,"time_out":false,"dwell_time":63.93701171875,"response_time":1682386115990.28},{"trial":3,"action":1,"button_pressed":2,"time_out":false,"dwell_time":80.911865234375,"response_time":1682386116472.99},{"trial":3,"action":9,"button_pressed":-1,"time_out":false,"dwell_time":81.237060546875,"response_time":1682386117323},{"trial":4,"action":1,"button_pressed":2,"time_out":false,"dwell_time":64.2890625,"response_time":1682386134383.6},{"trial":4,"action":1,"button_pressed":6,"time_out":false,"dwell_time":80.87109375,"response_time":1682386139182.03},{"trial":4,"action":1,"button_pressed":10,"time_out":false,"dwell_time":47.910888671875,"response_time":1682386140865.21},{"trial":4,"action":1,"button_pressed":7,"time_out":false,"dwell_time":80.906982421875,"response_time":1682386141597.86},{"trial":4,"action":9,"button_pressed":-1,"time_out":true,"dwell_time":10093.6760253906,"response_time":1682386151610.62},{"trial":5,"action":1,"button_pressed":11,"time_out":false,"dwell_time":64.196044921875,"response_time":1682386169056.14},{"trial":5,"action":1,"button_pressed":8,"time_out":false,"dwell_time":114.218017578125,"response_time":1682386169622.52},{"trial":5,"action":1,"button_pressed":6,"time_out":false,"dwell_time":81.696044921875,"response_time":1682386170106.15},{"trial":5,"action":1,"button_pressed":4,"time_out":false,"dwell_time":48.030029296875,"response_time":1682386173638.41},{"trial":5,"action":1,"button_pressed":1,"time_out":false,"dwell_time":30.4921875,"response_time":1682386173970.81},{"trial":5,"action":1,"button_pressed":10,"time_out":false,"dwell_time":47.001953125,"response_time":1682386174270.68},{"trial":5,"action":9,"button_pressed":-1,"time_out":false,"dwell_time":16.6640625,"response_time":1682386175120.33},{"trial":6,"action":1,"button_pressed":6,"time_out":false,"dwell_time":47.251953125,"response_time":1682386195264.06},{"trial":6,"action":1,"button_pressed":11,"time_out":false,"dwell_time":48.509033203125,"response_time":1682386197913.7},{"trial":6,"action":1,"button_pressed":10,"time_out":false,"dwell_time":47.787841796875,"response_time":1682386198413.44},{"trial":6,"action":1,"button_pressed":8,"time_out":false,"dwell_time":98.05615234375,"response_time":1682386198912.87},{"trial":6,"action":1,"button_pressed":3,"time_out":false,"dwell_time":80.541015625,"response_time":1682386199412.4},{"trial":6,"action":1,"button_pressed":8,"time_out":false,"dwell_time":47.850830078125,"response_time":1682386200412.17},{"trial":6,"action":1,"button_pressed":3,"time_out":false,"dwell_time":30.5791015625,"response_time":1682386200795.27},{"trial":6,"action":1,"button_pressed":3,"time_out":false,"dwell_time":48.233154296875,"response_time":1682386201661.82},{"trial":6,"action":0,"button_pressed":-1,"time_out":false,"dwell_time":64.565185546875,"response_time":1682386203444.31},{"trial":6,"action":1,"button_pressed":6,"time_out":false,"dwell_time":63.107177734375,"response_time":1682386204160.96},{"trial":6,"action":1,"button_pressed":11,"time_out":false,"dwell_time":64.452880859375,"response_time":1682386204610.91},{"trial":6,"action":1,"button_pressed":10,"time_out":false,"dwell_time":47.85107421875,"response_time":1682386205411.1},{"trial":6,"action":1,"button_pressed":3,"time_out":false,"dwell_time":47.9912109375,"response_time":1682386206226.9},{"trial":6,"action":1,"button_pressed":8,"time_out":false,"dwell_time":64.7021484375,"response_time":1682386206760.19},{"trial":6,"action":1,"button_pressed":4,"time_out":false,"dwell_time":31.208984375,"response_time":1682386207926.99},{"trial":6,"action":1,"button_pressed":5,"time_out":false,"dwell_time":48.14208984375,"response_time":1682386208060.34},{"trial":6,"action":9,"button_pressed":-1,"time_out":false,"dwell_time":48.48193359375,"response_time":1682386208477.29},{"trial":7,"action":1,"button_pressed":8,"time_out":false,"dwell_time":64.298095703125,"response_time":1682386228036.06},{"trial":7,"action":1,"button_pressed":5,"time_out":false,"dwell_time":81.571044921875,"response_time":1682386228586.43},{"trial":7,"action":1,"button_pressed":1,"time_out":false,"dwell_time":63.511962890625,"response_time":1682386229502.09},{"trial":7,"action":1,"button_pressed":6,"time_out":false,"dwell_time":81.4560546875,"response_time":1682386229985.87},{"trial":7,"action":1,"button_pressed":0,"time_out":false,"dwell_time":64.37109375,"response_time":1682386230418.45},{"trial":7,"action":1,"button_pressed":7,"time_out":false,"dwell_time":98.02587890625,"response_time":1682386230868.94},{"trial":7,"action":1,"button_pressed":11,"time_out":false,"dwell_time":81.4609375,"response_time":1682386231252.14},{"trial":7,"action":9,"button_pressed":-1,"time_out":false,"dwell_time":65.531982421875,"response_time":1682386231986.69},{"trial":8,"action":1,"button_pressed":11,"time_out":false,"dwell_time":98.416015625,"response_time":1682386255194.42},{"trial":8,"action":1,"button_pressed":3,"time_out":false,"dwell_time":97.89111328125,"response_time":1682386255794.07},{"trial":8,"action":1,"button_pressed":7,"time_out":false,"dwell_time":97.990966796875,"response_time":1682386256893.67},{"trial":8,"action":1,"button_pressed":6,"time_out":false,"dwell_time":64.282958984375,"response_time":1682386259142.81},{"trial":8,"action":1,"button_pressed":2,"time_out":false,"dwell_time":97.824951171875,"response_time":1682386260958.62},{"trial":8,"action":1,"button_pressed":10,"time_out":false,"dwell_time":63.224853515625,"response_time":1682386261774.69},{"trial":8,"action":1,"button_pressed":1,"time_out":false,"dwell_time":47.866943359375,"response_time":1682386262275.65},{"trial":8,"action":9,"button_pressed":-1,"time_out":false,"dwell_time":313.93701171875,"response_time":1682386263191.51},{"trial":9,"action":1,"button_pressed":4,"time_out":false,"dwell_time":64.2939453125,"response_time":1682386285617.61},{"trial":9,"action":1,"button_pressed":11,"time_out":false,"dwell_time":64.2509765625,"response_time":1682386286400},{"trial":9,"action":1,"button_pressed":7,"time_out":false,"dwell_time":114.710205078125,"response_time":1682386288716.38},{"trial":9,"action":1,"button_pressed":8,"time_out":false,"dwell_time":30.531982421875,"response_time":1682386289699.3},{"trial":9,"action":1,"button_pressed":0,"time_out":false,"dwell_time":64.12109375,"response_time":1682386292032.03},{"trial":9,"action":1,"button_pressed":2,"time_out":false,"dwell_time":113.3359375,"response_time":1682386293614.14},{"trial":9,"action":1,"button_pressed":1,"time_out":false,"dwell_time":66.386962890625,"response_time":1682386294481.37},{"trial":9,"action":1,"button_pressed":10,"time_out":false,"dwell_time":65.004150390625,"response_time":1682386294831.27},{"trial":9,"action":1,"button_pressed":10,"time_out":false,"dwell_time":47.304931640625,"response_time":1682386296363.73},{"trial":9,"action":1,"button_pressed":9,"time_out":false,"dwell_time":63.87109375,"response_time":1682386297080.46},{"trial":9,"action":9,"button_pressed":-1,"time_out":false,"dwell_time":98.531005859375,"response_time":1682386299029.97},{"trial":10,"action":1,"button_pressed":5,"time_out":false,"dwell_time":65.156005859375,"response_time":1682386317207.16},{"trial":10,"action":1,"button_pressed":10,"time_out":false,"dwell_time":63.988037109375,"response_time":1682386319489.54},{"trial":10,"action":1,"button_pressed":7,"time_out":false,"dwell_time":63.239013671875,"response_time":1682386319921.99},{"trial":10,"action":1,"button_pressed":3,"time_out":false,"dwell_time":63.8330078125,"response_time":1682386322821.68},{"trial":10,"action":1,"button_pressed":0,"time_out":false,"dwell_time":48.2021484375,"response_time":1682386323821.34},{"trial":10,"action":1,"button_pressed":8,"time_out":false,"dwell_time":49.60791015625,"response_time":1682386324171.89},{"trial":10,"action":9,"button_pressed":-1,"time_out":false,"dwell_time":64,"response_time":1682386325620.71},{"trial":11,"action":1,"button_pressed":3,"time_out":false,"dwell_time":64.172119140625,"response_time":1682386344531.33},{"trial":11,"action":1,"button_pressed":7,"time_out":false,"dwell_time":79.911865234375,"response_time":1682386345163.83},{"trial":11,"action":1,"button_pressed":4,"time_out":false,"dwell_time":64.266845703125,"response_time":1682386346613.42},{"trial":11,"action":1,"button_pressed":10,"time_out":false,"dwell_time":64.988037109375,"response_time":1682386347347.08},{"trial":11,"action":1,"button_pressed":2,"time_out":false,"dwell_time":47.989990234375,"response_time":1682386348480.47},{"trial":11,"action":1,"button_pressed":9,"time_out":false,"dwell_time":30.376953125,"response_time":1682386350195.95},{"trial":11,"action":9,"button_pressed":-1,"time_out":false,"dwell_time":97.358154296875,"response_time":1682386351279.04},{"trial":12,"action":1,"button_pressed":4,"time_out":false,"dwell_time":47.616943359375,"response_time":1682386370905.87},{"trial":12,"action":1,"button_pressed":2,"time_out":false,"dwell_time":13.97802734375,"response_time":1682386371272.19},{"trial":12,"action":1,"button_pressed":6,"time_out":false,"dwell_time":47.781982421875,"response_time":1682386371988.57},{"trial":12,"action":1,"button_pressed":9,"time_out":false,"dwell_time":48.200927734375,"response_time":1682386373021.83},{"trial":12,"action":1,"button_pressed":1,"time_out":false,"dwell_time":64.64501953125,"response_time":1682386375304.15},{"trial":12,"action":1,"button_pressed":8,"time_out":false,"dwell_time":48.705078125,"response_time":1682386375738.04},{"trial":12,"action":1,"button_pressed":0,"time_out":false,"dwell_time":47.802001953125,"response_time":1682386375987.24},{"trial":12,"action":9,"button_pressed":-1,"time_out":false,"dwell_time":49.421875,"response_time":1682386376305.09},{"trial":13,"action":1,"button_pressed":3,"time_out":false,"dwell_time":64.826904296875,"response_time":1682386395964.19},{"trial":13,"action":1,"button_pressed":0,"time_out":false,"dwell_time":64.116943359375,"response_time":1682386396263.4},{"trial":13,"action":1,"button_pressed":10,"time_out":false,"dwell_time":30.690185546875,"response_time":1682386396597.28},{"trial":13,"action":1,"button_pressed":4,"time_out":false,"dwell_time":48.037109375,"response_time":1682386398946.41},{"trial":13,"action":1,"button_pressed":1,"time_out":false,"dwell_time":64.14990234375,"response_time":1682386399445.73},{"trial":13,"action":1,"button_pressed":5,"time_out":false,"dwell_time":30.635986328125,"response_time":1682386399912.71},{"trial":13,"action":1,"button_pressed":2,"time_out":false,"dwell_time":49.58203125,"response_time":1682386400246.72},{"trial":13,"action":9,"button_pressed":-1,"time_out":false,"dwell_time":48.52783203125,"response_time":1682386400513.79}]}