{"meta_data":{"additional_headers":{},"game_name":"Recollect","version":"2.53.01","user_name":"84","organization":"braingamecenter","study":"mpl2_2022_11","session_number":0,"device_id":"74342D95-EE82-45E3-8ADF-48FB3203C5DD"},"data":[{"trial":0,"action":1,"button_pressed":8,"time_out":false,"dwell_time":49.19189453125,"response_time":1682456795608.61},{"trial":0,"action":1,"button_pressed":0,"time_out":false,"dwell_time":31.525146484375,"response_time":1682456796309.17},{"trial":0,"action":9,"button_pressed":-1,"time_out":false,"dwell_time":59.392822265625,"response_time":1682456796985.95},{"trial":1,"action":1,"button_pressed":10,"time_out":false,"dwell_time":64.68603515625,"response_time":1682456806505.71},{"trial":1,"action":1,"button_pressed":0,"time_out":false,"dwell_time":48.19091796875,"response_time":1682456807021.45},{"trial":1,"action":1,"button_pressed":6,"time_out":false,"dwell_time":47.964111328125,"response_time":1682456807554.45},{"trial":1,"action":9,"button_pressed":-1,"time_out":false,"dwell_time":16.56689453125,"response_time":1682456808121.5},{"trial":2,"action":1,"button_pressed":8,"time_out":false,"dwell_time":48.14599609375,"response_time":1682456820201.24},{"trial":2,"action":1,"button_pressed":1,"time_out":false,"dwell_time":47.986083984375,"response_time":1682456820884.16},{"trial":2,"action":1,"button_pressed":3,"time_out":false,"dwell_time":32.048095703125,"response_time":1682456821283.87},{"trial":2,"action":1,"button_pressed":11,"time_out":false,"dwell_time":30.35595703125,"response_time":1682456821916.28},{"trial":2,"action":9,"button_pressed":-1,"time_out":false,"dwell_time":49.328125,"response_time":1682456823017.4},{"trial":3,"action":1,"button_pressed":3,"time_out":false,"dwell_time":49.010009765625,"response_time":1682456837412.1},{"trial":3,"action":1,"button_pressed":8,"time_out":false,"dwell_time":64.718994140625,"response_time":1682456837744.66},{"trial":3,"action":1,"button_pressed":10,"time_out":false,"dwell_time":32.14990234375,"response_time":1682456838095.15},{"trial":3,"action":1,"button_pressed":4,"time_out":false,"dwell_time":31.18603515625,"response_time":1682456838628.15},{"trial":3,"action":1,"button_pressed":11,"time_out":false,"dwell_time":48.4560546875,"response_time":1682456839111.48},{"trial":3,"action":9,"button_pressed":-1,"time_out":false,"dwell_time":48.260986328125,"response_time":1682456839894.82},{"trial":4,"action":1,"button_pressed":1,"time_out":false,"dwell_time":13.364990234375,"response_time":1682456855021.46},{"trial":4,"action":1,"button_pressed":10,"time_out":false,"dwell_time":47.946044921875,"response_time":1682456855439.36},{"trial":4,"action":1,"button_pressed":0,"time_out":false,"dwell_time":47.926025390625,"response_time":1682456855939.14},{"trial":4,"action":1,"button_pressed":9,"time_out":false,"dwell_time":32.066162109375,"response_time":1682456856339.3},{"trial":4,"action":1,"button_pressed":5,"time_out":false,"dwell_time":47.628173828125,"response_time":1682456856855.64},{"trial":4,"action":9,"button_pressed":-1,"time_out":false,"dwell_time":48.375,"response_time":1682456858622.05},{"trial":5,"action":1,"button_pressed":1,"time_out":false,"dwell_time":30.886962890625,"response_time":1682456875715.47},{"trial":5,"action":1,"button_pressed":9,"time_out":false,"dwell_time":48.047119140625,"response_time":1682456876581.78},{"trial":5,"action":1,"button_pressed":5,"time_out":false,"dwell_time":48.02001953125,"response_time":1682456877114.88},{"trial":5,"action":1,"button_pressed":6,"time_out":false,"dwell_time":47.72412109375,"response_time":1682456877598.62},{"trial":5,"action":1,"button_pressed":7,"time_out":false,"dwell_time":48.498046875,"response_time":1682456877931.85},{"trial":5,"action":1,"button_pressed":2,"time_out":false,"dwell_time":48.60595703125,"response_time":1682456878731.6},{"trial":5,"action":9,"button_pressed":-1,"time_out":false,"dwell_time":48.35107421875,"response_time":1682456879247.8},{"trial":6,"action":1,"button_pressed":8,"time_out":false,"dwell_time":48.083984375,"response_time":1682456898774.35},{"trial":6,"action":1,"button_pressed":1,"time_out":false,"dwell_time":14.62109375,"response_time":1682456899341.45},{"trial":6,"action":1,"button_pressed":6,"time_out":false,"dwell_time":31.27001953125,"response_time":1682456899774.74},{"trial":6,"action":1,"button_pressed":5,"time_out":false,"dwell_time":48.18798828125,"response_time":1682456900208.01},{"trial":6,"action":1,"button_pressed":0,"time_out":false,"dwell_time":13.155029296875,"response_time":1682456900622.93},{"trial":6,"action":1,"button_pressed":7,"time_out":false,"dwell_time":47.743896484375,"response_time":1682456901090.07},{"trial":6,"action":1,"button_pressed":11,"time_out":false,"dwell_time":13.72314453125,"response_time":1682456901423.29},{"trial":6,"action":9,"button_pressed":-1,"time_out":false,"dwell_time":16.76806640625,"response_time":1682456902206.3},{"trial":7,"action":1,"button_pressed":11,"time_out":false,"dwell_time":48.476806640625,"response_time":1682456921567.56},{"trial":7,"action":1,"button_pressed":4,"time_out":false,"dwell_time":47.901123046875,"response_time":1682456922399.67},{"trial":7,"action":1,"button_pressed":3,"time_out":false,"dwell_time":30.595947265625,"response_time":1682456922749.7},{"trial":7,"action":1,"button_pressed":10,"time_out":false,"dwell_time":48.029052734375,"response_time":1682456923149.63},{"trial":7,"action":1,"button_pressed":2,"time_out":false,"dwell_time":64.864013671875,"response_time":1682456923632.87},{"trial":7,"action":1,"button_pressed":8,"time_out":false,"dwell_time":47.02197265625,"response_time":1682456923965.99},{"trial":7,"action":1,"button_pressed":1,"time_out":false,"dwell_time":31.242919921875,"response_time":1682456924515.74},{"trial":7,"action":9,"button_pressed":-1,"time_out":false,"dwell_time":49.7080078125,"response_time":1682456925283.74},{"trial":8,"action":1,"button_pressed":1,"time_out":false,"dwell_time":48.35302734375,"response_time":1682456947475.12},{"trial":8,"action":1,"button_pressed":10,"time_out":false,"dwell_time":64.01318359375,"response_time":1682456947908.18},{"trial":8,"action":1,"button_pressed":0,"time_out":false,"dwell_time":31.35888671875,"response_time":1682456948474.36},{"trial":8,"action":1,"button_pressed":2,"time_out":false,"dwell_time":48.78515625,"response_time":1682456948758.44},{"trial":8,"action":1,"button_pressed":3,"time_out":false,"dwell_time":30.39013671875,"response_time":1682456949340.8},{"trial":8,"action":1,"button_pressed":7,"time_out":false,"dwell_time":64.72802734375,"response_time":1682456951507.13},{"trial":8,"action":1,"button_pressed":6,"time_out":false,"dwell_time":47.636962890625,"response_time":1682456952189.87},{"trial":8,"action":1,"button_pressed":4,"time_out":false,"dwell_time":30.738037109375,"response_time":1682456952473.19},{"trial":8,"action":9,"button_pressed":-1,"time_out":false,"dwell_time":31.725830078125,"response_time":1682456953206.67},{"trial":9,"action":1,"button_pressed":10,"time_out":false,"dwell_time":13.239013671875,"response_time":1682456975081.74},{"trial":9,"action":1,"button_pressed":7,"time_out":false,"dwell_time":48.542236328125,"response_time":1682456975532.88},{"trial":9,"action":1,"button_pressed":4,"time_out":false,"dwell_time":48.5859375,"response_time":1682456975932.71},{"trial":9,"action":1,"button_pressed":3,"time_out":false,"dwell_time":47.7958984375,"response_time":1682456976249.2},{"trial":9,"action":1,"button_pressed":5,"time_out":false,"dwell_time":32.015869140625,"response_time":1682456976915.76},{"trial":9,"action":0,"button_pressed":-1,"time_out":false,"dwell_time":64.242919921875,"response_time":1682456979364.62},{"trial":9,"action":1,"button_pressed":10,"time_out":false,"dwell_time":47.6240234375,"response_time":1682456979781.46},{"trial":9,"action":1,"button_pressed":7,"time_out":false,"dwell_time":30.822021484375,"response_time":1682456980347.99},{"trial":9,"action":1,"button_pressed":3,"time_out":false,"dwell_time":47.993896484375,"response_time":1682456980831.21},{"trial":9,"action":1,"button_pressed":4,"time_out":false,"dwell_time":64.85205078125,"response_time":1682456981163.89},{"trial":9,"action":1,"button_pressed":8,"time_out":false,"dwell_time":47.174072265625,"response_time":1682456981480.37},{"trial":9,"action":1,"button_pressed":5,"time_out":false,"dwell_time":48.766845703125,"response_time":1682456981814.19},{"trial":9,"action":1,"button_pressed":11,"time_out":false,"dwell_time":80.85498046875,"response_time":1682456986944.65},{"trial":9,"action":1,"button_pressed":11,"time_out":false,"dwell_time":48.7138671875,"response_time":1682456988062.16},{"trial":9,"action":0,"button_pressed":-1,"time_out":false,"dwell_time":30.904052734375,"response_time":1682456990710.85},{"trial":9,"action":1,"button_pressed":9,"time_out":false,"dwell_time":13.19384765625,"response_time":1682456992109.48},{"trial":9,"action":1,"button_pressed":7,"time_out":false,"dwell_time":48.31396484375,"response_time":1682456992743.78},{"trial":9,"action":1,"button_pressed":8,"time_out":false,"dwell_time":47.058837890625,"response_time":1682456993476.38},{"trial":9,"action":1,"button_pressed":3,"time_out":false,"dwell_time":64.68798828125,"response_time":1682456993909.56},{"trial":9,"action":1,"button_pressed":5,"time_out":false,"dwell_time":30.573974609375,"response_time":1682456994326.04},{"trial":9,"action":1,"button_pressed":4,"time_out":false,"dwell_time":47.907958984375,"response_time":1682456994943.12},{"trial":9,"action":1,"button_pressed":6,"time_out":false,"dwell_time":48.56005859375,"response_time":1682456995293.09},{"trial":9,"action":1,"button_pressed":11,"time_out":false,"dwell_time":31.487060546875,"response_time":1682456995643.16},{"trial":9,"action":9,"button_pressed":-1,"time_out":false,"dwell_time":49.0791015625,"response_time":1682456996393.16},{"trial":10,"action":1,"button_pressed":9,"time_out":false,"dwell_time":48.114013671875,"response_time":1682457014753.44},{"trial":10,"action":1,"button_pressed":1,"time_out":false,"dwell_time":64.035888671875,"response_time":1682457015635.23},{"trial":10,"action":1,"button_pressed":0,"time_out":false,"dwell_time":80.85693359375,"response_time":1682457016052.37},{"trial":10,"action":1,"button_pressed":8,"time_out":false,"dwell_time":47.907958984375,"response_time":1682457016402.74},{"trial":10,"action":1,"button_pressed":4,"time_out":false,"dwell_time":30.633056640625,"response_time":1682457016718.67},{"trial":10,"action":1,"button_pressed":11,"time_out":false,"dwell_time":48.416015625,"response_time":1682457017135.64},{"trial":10,"action":9,"button_pressed":-1,"time_out":false,"dwell_time":80.391845703125,"response_time":1682457020650.66},{"trial":11,"action":1,"button_pressed":10,"time_out":false,"dwell_time":48.28515625,"response_time":1682457037695.25},{"trial":11,"action":1,"button_pressed":2,"time_out":false,"dwell_time":47.341064453125,"response_time":1682457038694.8},{"trial":11,"action":1,"button_pressed":9,"time_out":false,"dwell_time":64.803955078125,"response_time":1682457039161.59},{"trial":11,"action":1,"button_pressed":5,"time_out":false,"dwell_time":48.593994140625,"response_time":1682457039578.48},{"trial":11,"action":1,"button_pressed":11,"time_out":false,"dwell_time":30.60888671875,"response_time":1682457040160.89},{"trial":11,"action":1,"button_pressed":0,"time_out":false,"dwell_time":47.263916015625,"response_time":1682457040710.75},{"trial":11,"action":9,"button_pressed":-1,"time_out":false,"dwell_time":49.178955078125,"response_time":1682457041211.69},{"trial":12,"action":1,"button_pressed":9,"time_out":false,"dwell_time":47.9150390625,"response_time":1682457061087.97},{"trial":12,"action":1,"button_pressed":7,"time_out":false,"dwell_time":63.459228515625,"response_time":1682457061436.98},{"trial":12,"action":1,"button_pressed":4,"time_out":false,"dwell_time":30.864990234375,"response_time":1682457061803.63},{"trial":12,"action":1,"button_pressed":1,"time_out":false,"dwell_time":13.240966796875,"response_time":1682457062852.62},{"trial":12,"action":1,"button_pressed":11,"time_out":false,"dwell_time":64.094970703125,"response_time":1682457063270.16},{"trial":12,"action":1,"button_pressed":6,"time_out":false,"dwell_time":30.955078125,"response_time":1682457063570.43},{"trial":12,"action":1,"button_pressed":8,"time_out":false,"dwell_time":47.589111328125,"response_time":1682457064003.54},{"trial":12,"action":9,"button_pressed":-1,"time_out":false,"dwell_time":32.5810546875,"response_time":1682457065403.68},{"trial":13,"action":1,"button_pressed":10,"time_out":false,"dwell_time":64.14697265625,"response_time":1682457087128.99},{"trial":13,"action":1,"button_pressed":2,"time_out":false,"dwell_time":31.203125,"response_time":1682457087511.82},{"trial":13,"action":1,"button_pressed":1,"time_out":false,"dwell_time":47.73583984375,"response_time":1682457088144.86},{"trial":13,"action":1,"button_pressed":9,"time_out":false,"dwell_time":48.425048828125,"response_time":1682457088595.37},{"trial":13,"action":1,"button_pressed":8,"time_out":false,"dwell_time":47.203125,"response_time":1682457089194.59},{"trial":13,"action":1,"button_pressed":4,"time_out":false,"dwell_time":48.904052734375,"response_time":1682457089678.74},{"trial":13,"action":1,"button_pressed":11,"time_out":false,"dwell_time":31.19384765625,"response_time":1682457090144.92},{"trial":13,"action":1,"button_pressed":5,"time_out":false,"dwell_time":13.27099609375,"response_time":1682457090626.77},{"trial":13,"action":9,"button_pressed":-1,"time_out":false,"dwell_time":64.8310546875,"response_time":1682457091527.35},{"trial":14,"action":1,"button_pressed":11,"time_out":false,"dwell_time":64.485107421875,"response_time":1682457113436.31},{"trial":14,"action":1,"button_pressed":3,"time_out":false,"dwell_time":30.6181640625,"response_time":1682457113869.69},{"trial":14,"action":1,"button_pressed":9,"time_out":false,"dwell_time":30.3251953125,"response_time":1682457114269.53},{"trial":14,"action":1,"button_pressed":7,"time_out":false,"dwell_time":47.906005859375,"response_time":1682457114670.15},{"trial":14,"action":1,"button_pressed":4,"time_out":false,"dwell_time":47.904052734375,"response_time":1682457115119.99},{"trial":14,"action":1,"button_pressed":2,"time_out":false,"dwell_time":47.9521484375,"response_time":1682457115469.9},{"trial":14,"action":1,"button_pressed":10,"time_out":false,"dwell_time":48.634033203125,"response_time":1682457115936.36},{"trial":14,"action":1,"button_pressed":1,"time_out":false,"dwell_time":48.7509765625,"response_time":1682457116452.94},{"trial":14,"action":9,"button_pressed":-1,"time_out":false,"dwell_time":48.428955078125,"response_time":1682457118119.52},{"trial":15,"action":1,"button_pressed":9,"time_out":false,"dwell_time":48.89794921875,"response_time":1682457142344.54},{"trial":15,"action":1,"button_pressed":8,"time_out":false,"dwell_time":47.820068359375,"response_time":1682457142776.77},{"trial":15,"action":1,"button_pressed":2,"time_out":false,"dwell_time":31.046142578125,"response_time":1682457143094.04},{"trial":15,"action":1,"button_pressed":11,"time_out":false,"dwell_time":64.748046875,"response_time":1682457143610.05},{"trial":15,"action":1,"button_pressed":6,"time_out":false,"dwell_time":48.51416015625,"response_time":1682457143843.88},{"trial":15,"action":1,"button_pressed":5,"time_out":false,"dwell_time":64.870849609375,"response_time":1682457144326.46},{"trial":15,"action":1,"button_pressed":4,"time_out":false,"dwell_time":30.656982421875,"response_time":1682457144659.61},{"trial":15,"action":1,"button_pressed":10,"time_out":false,"dwell_time":31.326904296875,"response_time":1682457145875.77},{"trial":15,"action":1,"button_pressed":1,"time_out":false,"dwell_time":13.196044921875,"response_time":1682457146374.87},{"trial":15,"action":9,"button_pressed":-1,"time_out":false,"dwell_time":48.7060546875,"response_time":1682457148175.57},{"trial":16,"action":1,"button_pressed":4,"time_out":false,"dwell_time":64.489013671875,"response_time":1682457172767.36},{"trial":16,"action":1,"button_pressed":3,"time_out":false,"dwell_time":30.5439453125,"response_time":1682457173033.53},{"trial":16,"action":1,"button_pressed":7,"time_out":false,"dwell_time":30.445068359375,"response_time":1682457173399.89},{"trial":16,"action":1,"button_pressed":1,"time_out":false,"dwell_time":48.525146484375,"response_time":1682457174017.03},{"trial":16,"action":1,"button_pressed":2,"time_out":false,"dwell_time":47.890869140625,"response_time":1682457174483.61},{"trial":16,"action":1,"button_pressed":6,"time_out":false,"dwell_time":47.81298828125,"response_time":1682457175133.48},{"trial":16,"action":1,"button_pressed":8,"time_out":false,"dwell_time":30.3369140625,"response_time":1682457175549.21},{"trial":16,"action":1,"button_pressed":10,"time_out":false,"dwell_time":48.538818359375,"response_time":1682457175849.77},{"trial":16,"action":1,"button_pressed":9,"time_out":false,"dwell_time":30.498046875,"response_time":1682457176382.31},{"trial":16,"action":9,"button_pressed":-1,"time_out":false,"dwell_time":82.10595703125,"response_time":1682457178199.05}]}