{"meta_data":{"additional_headers":{},"game_name":"Recollect","version":"2.53.01","user_name":"85","organization":"braingamecenter","study":"mpl2_2022_11","session_number":0,"device_id":"74342D95-EE82-45E3-8ADF-48FB3203C5DD"},"data":[{"trial":0,"action":1,"button_pressed":1,"time_out":false,"dwell_time":48.87890625,"response_time":1682527801659.55},{"trial":0,"action":1,"button_pressed":5,"time_out":false,"dwell_time":30.401123046875,"response_time":1682527802375.28},{"trial":0,"action":9,"button_pressed":-1,"time_out":false,"dwell_time":93.160888671875,"response_time":1682527803919.65},{"trial":1,"action":1,"button_pressed":3,"time_out":false,"dwell_time":48.170166015625,"response_time":1682527813621.73},{"trial":1,"action":1,"button_pressed":9,"time_out":false,"dwell_time":47.14501953125,"response_time":1682527814038.04},{"trial":1,"action":1,"button_pressed":7,"time_out":false,"dwell_time":81.589111328125,"response_time":1682527814621.47},{"trial":1,"action":9,"button_pressed":-1,"time_out":false,"dwell_time":49.20703125,"response_time":1682527816088.53},{"trial":2,"action":1,"button_pressed":1,"time_out":false,"dwell_time":48.23486328125,"response_time":1682527828200.41},{"trial":2,"action":1,"button_pressed":6,"time_out":false,"dwell_time":63.205078125,"response_time":1682527828716.15},{"trial":2,"action":1,"button_pressed":5,"time_out":false,"dwell_time":63.947021484375,"response_time":1682527829266.6},{"trial":2,"action":1,"button_pressed":10,"time_out":false,"dwell_time":30.388916015625,"response_time":1682527829799.75},{"trial":2,"action":9,"button_pressed":-1,"time_out":false,"dwell_time":48.60302734375,"response_time":1682527830484.16},{"trial":3,"action":1,"button_pressed":2,"time_out":false,"dwell_time":48.0380859375,"response_time":1682527845028.09},{"trial":3,"action":1,"button_pressed":6,"time_out":false,"dwell_time":64.222900390625,"response_time":1682527845594.29},{"trial":3,"action":1,"button_pressed":7,"time_out":false,"dwell_time":64.760986328125,"response_time":1682527846094.6},{"trial":3,"action":1,"button_pressed":0,"time_out":false,"dwell_time":47.200927734375,"response_time":1682527846644.24},{"trial":3,"action":1,"button_pressed":8,"time_out":false,"dwell_time":47.280029296875,"response_time":1682527847227.55},{"trial":3,"action":9,"button_pressed":-1,"time_out":false,"dwell_time":81.260986328125,"response_time":1682527848143.82},{"trial":4,"action":1,"button_pressed":7,"time_out":false,"dwell_time":48.883056640625,"response_time":1682527865855.53},{"trial":4,"action":1,"button_pressed":3,"time_out":false,"dwell_time":47.294921875,"response_time":1682527866337.88},{"trial":4,"action":1,"button_pressed":8,"time_out":false,"dwell_time":47.718017578125,"response_time":1682527867338.2},{"trial":4,"action":1,"button_pressed":0,"time_out":false,"dwell_time":47.883056640625,"response_time":1682527867837.99},{"trial":4,"action":1,"button_pressed":1,"time_out":false,"dwell_time":47.9677734375,"response_time":1682527869404.27},{"trial":4,"action":9,"button_pressed":-1,"time_out":false,"dwell_time":98.243896484375,"response_time":1682527870603.29},{"trial":5,"action":1,"button_pressed":8,"time_out":false,"dwell_time":14.041015625,"response_time":1682527889363.92},{"trial":5,"action":1,"button_pressed":0,"time_out":false,"dwell_time":47.9580078125,"response_time":1682527890047.47},{"trial":5,"action":1,"button_pressed":1,"time_out":false,"dwell_time":48.073974609375,"response_time":1682527890696.81},{"trial":5,"action":1,"button_pressed":9,"time_out":false,"dwell_time":47.22705078125,"response_time":1682527891146.54},{"trial":5,"action":1,"button_pressed":3,"time_out":false,"dwell_time":64.864990234375,"response_time":1682527891529.94},{"trial":5,"action":1,"button_pressed":5,"time_out":false,"dwell_time":48.74609375,"response_time":1682527892096.95},{"trial":5,"action":9,"button_pressed":-1,"time_out":false,"dwell_time":31.0078125,"response_time":1682527892963.04},{"trial":6,"action":1,"button_pressed":1,"time_out":false,"dwell_time":47.989990234375,"response_time":1682527913440.21},{"trial":6,"action":1,"button_pressed":9,"time_out":false,"dwell_time":64.828125,"response_time":1682527913872.74},{"trial":6,"action":1,"button_pressed":7,"time_out":false,"dwell_time":47.833984375,"response_time":1682527914289.77},{"trial":6,"action":1,"button_pressed":2,"time_out":false,"dwell_time":47.171875,"response_time":1682527914972.17},{"trial":6,"action":1,"button_pressed":5,"time_out":false,"dwell_time":47.18701171875,"response_time":1682527916604.95},{"trial":6,"action":1,"button_pressed":3,"time_out":false,"dwell_time":48.1201171875,"response_time":1682527918005.53},{"trial":6,"action":1,"button_pressed":11,"time_out":false,"dwell_time":64.1640625,"response_time":1682527919054.56},{"trial":6,"action":9,"button_pressed":-1,"time_out":false,"dwell_time":30.955810546875,"response_time":1682527920087.54},{"trial":7,"action":1,"button_pressed":3,"time_out":false,"dwell_time":64.297119140625,"response_time":1682527939813.76},{"trial":7,"action":1,"button_pressed":0,"time_out":false,"dwell_time":64.781005859375,"response_time":1682527940197.49},{"trial":7,"action":1,"button_pressed":5,"time_out":false,"dwell_time":64.880126953125,"response_time":1682527940647.51},{"trial":7,"action":1,"button_pressed":10,"time_out":false,"dwell_time":64.408203125,"response_time":1682527941097.2},{"trial":7,"action":1,"button_pressed":4,"time_out":false,"dwell_time":64.119140625,"response_time":1682527941529.94},{"trial":7,"action":1,"button_pressed":1,"time_out":false,"dwell_time":47.31298828125,"response_time":1682527942679.89},{"trial":7,"action":1,"button_pressed":2,"time_out":false,"dwell_time":64.64501953125,"response_time":1682527943229.95},{"trial":7,"action":9,"button_pressed":-1,"time_out":false,"dwell_time":31.06201171875,"response_time":1682527943713.37},{"trial":8,"action":1,"button_pressed":9,"time_out":false,"dwell_time":48.06005859375,"response_time":1682527958458.54},{"trial":8,"action":1,"button_pressed":0,"time_out":false,"dwell_time":32.117919921875,"response_time":1682527958842.28},{"trial":8,"action":1,"button_pressed":2,"time_out":false,"dwell_time":48.06298828125,"response_time":1682527959292.22},{"trial":8,"action":1,"button_pressed":1,"time_out":false,"dwell_time":64.9189453125,"response_time":1682527960191.39},{"trial":8,"action":1,"button_pressed":6,"time_out":false,"dwell_time":31.632080078125,"response_time":1682527960475.04},{"trial":8,"action":9,"button_pressed":-1,"time_out":false,"dwell_time":81.84912109375,"response_time":1682527961241.29},{"trial":9,"action":1,"button_pressed":6,"time_out":false,"dwell_time":47.931884765625,"response_time":1682527979219.05},{"trial":9,"action":1,"button_pressed":5,"time_out":false,"dwell_time":96.65283203125,"response_time":1682527982300.16},{"trial":9,"action":1,"button_pressed":0,"time_out":false,"dwell_time":30.5400390625,"response_time":1682527982850.32},{"trial":9,"action":1,"button_pressed":11,"time_out":false,"dwell_time":47.489990234375,"response_time":1682527983666.7},{"trial":9,"action":1,"button_pressed":8,"time_out":false,"dwell_time":64.27197265625,"response_time":1682527984467.01},{"trial":9,"action":1,"button_pressed":4,"time_out":false,"dwell_time":48.032958984375,"response_time":1682527985032.99},{"trial":9,"action":9,"button_pressed":-1,"time_out":false,"dwell_time":48.362060546875,"response_time":1682527985833.17},{"trial":10,"action":1,"button_pressed":7,"time_out":false,"dwell_time":81.074951171875,"response_time":1682528007092.96},{"trial":10,"action":1,"button_pressed":11,"time_out":false,"dwell_time":30.251953125,"response_time":1682528007625.68},{"trial":10,"action":1,"button_pressed":0,"time_out":false,"dwell_time":63.988037109375,"response_time":1682528008242.32},{"trial":10,"action":1,"button_pressed":9,"time_out":false,"dwell_time":47.886962890625,"response_time":1682528008742.06},{"trial":10,"action":1,"button_pressed":5,"time_out":false,"dwell_time":64.02392578125,"response_time":1682528009291.43},{"trial":10,"action":1,"button_pressed":3,"time_out":false,"dwell_time":31.74609375,"response_time":1682528009892.29},{"trial":10,"action":1,"button_pressed":6,"time_out":false,"dwell_time":47.614990234375,"response_time":1682528014324.21},{"trial":10,"action":9,"button_pressed":-1,"time_out":false,"dwell_time":49.096923828125,"response_time":1682528014757.82},{"trial":11,"action":1,"button_pressed":4,"time_out":false,"dwell_time":30.80908203125,"response_time":1682528034367.31},{"trial":11,"action":1,"button_pressed":2,"time_out":false,"dwell_time":64.594970703125,"response_time":1682528034700.48},{"trial":11,"action":1,"button_pressed":6,"time_out":false,"dwell_time":30.385986328125,"response_time":1682528035116.85},{"trial":11,"action":1,"button_pressed":8,"time_out":false,"dwell_time":64.726806640625,"response_time":1682528035650.16},{"trial":11,"action":1,"button_pressed":0,"time_out":false,"dwell_time":48.420166015625,"response_time":1682528037033.55},{"trial":11,"action":1,"button_pressed":1,"time_out":false,"dwell_time":47.80615234375,"response_time":1682528037583.3},{"trial":11,"action":1,"button_pressed":9,"time_out":false,"dwell_time":31.06494140625,"response_time":1682528037982.51},{"trial":11,"action":9,"button_pressed":-1,"time_out":false,"dwell_time":114.908203125,"response_time":1682528039965.92}]}