{"meta_data":{"additional_headers":{},"game_name":"Recollect","version":"2.53.01","user_name":"89","organization":"braingamecenter","study":"mpl2_2022_11","session_number":0,"device_id":"74342D95-EE82-45E3-8ADF-48FB3203C5DD"},"data":[{"trial":0,"action":1,"button_pressed":11,"time_out":false,"dwell_time":47.385009765625,"response_time":1682709513821.11},{"trial":0,"action":1,"button_pressed":8,"time_out":false,"dwell_time":31.0859375,"response_time":1682709514453.95},{"trial":0,"action":9,"button_pressed":-1,"time_out":false,"dwell_time":59.175048828125,"response_time":1682709515181.7},{"trial":1,"action":1,"button_pressed":3,"time_out":false,"dwell_time":31.68896484375,"response_time":1682709525134.16},{"trial":1,"action":1,"button_pressed":9,"time_out":false,"dwell_time":47.404052734375,"response_time":1682709525750.66},{"trial":1,"action":1,"button_pressed":7,"time_out":false,"dwell_time":30.5791015625,"response_time":1682709526350.25},{"trial":1,"action":9,"button_pressed":-1,"time_out":false,"dwell_time":64.7978515625,"response_time":1682709526933.3},{"trial":2,"action":1,"button_pressed":4,"time_out":false,"dwell_time":31.597900390625,"response_time":1682709538779.54},{"trial":2,"action":1,"button_pressed":2,"time_out":false,"dwell_time":47.86181640625,"response_time":1682709539296.52},{"trial":2,"action":1,"button_pressed":7,"time_out":false,"dwell_time":47.98388671875,"response_time":1682709539979.11},{"trial":2,"action":1,"button_pressed":3,"time_out":false,"dwell_time":64.489013671875,"response_time":1682709540578.91},{"trial":2,"action":9,"button_pressed":-1,"time_out":false,"dwell_time":48.240966796875,"response_time":1682709541163.08},{"trial":3,"action":1,"button_pressed":7,"time_out":false,"dwell_time":31.62109375,"response_time":1682709555690.68},{"trial":3,"action":1,"button_pressed":4,"time_out":false,"dwell_time":47.200927734375,"response_time":1682709556390.33},{"trial":3,"action":1,"button_pressed":11,"time_out":false,"dwell_time":64.713134765625,"response_time":1682709556956.87},{"trial":3,"action":1,"button_pressed":3,"time_out":false,"dwell_time":48.068115234375,"response_time":1682709557474},{"trial":3,"action":1,"button_pressed":10,"time_out":false,"dwell_time":47.753173828125,"response_time":1682709557990.36},{"trial":3,"action":9,"button_pressed":-1,"time_out":false,"dwell_time":14.31298828125,"response_time":1682709558656.53},{"trial":4,"action":1,"button_pressed":10,"time_out":false,"dwell_time":64.718994140625,"response_time":1682709575350.97},{"trial":4,"action":1,"button_pressed":2,"time_out":false,"dwell_time":48.301025390625,"response_time":1682709575884.88},{"trial":4,"action":1,"button_pressed":9,"time_out":false,"dwell_time":64.722900390625,"response_time":1682709576350.59},{"trial":4,"action":1,"button_pressed":5,"time_out":false,"dwell_time":48.047119140625,"response_time":1682709576817.63},{"trial":4,"action":1,"button_pressed":11,"time_out":false,"dwell_time":47.342041015625,"response_time":1682709577350.12},{"trial":4,"action":1,"button_pressed":0,"time_out":false,"dwell_time":64.092041015625,"response_time":1682709577832.66},{"trial":4,"action":9,"button_pressed":-1,"time_out":false,"dwell_time":16.89697265625,"response_time":1682709578316.43},{"trial":5,"action":1,"button_pressed":7,"time_out":false,"dwell_time":80.907958984375,"response_time":1682709598060.27},{"trial":5,"action":1,"button_pressed":11,"time_out":false,"dwell_time":47.234130859375,"response_time":1682709598409.73},{"trial":5,"action":1,"button_pressed":0,"time_out":false,"dwell_time":81.609130859375,"response_time":1682709598959.89},{"trial":5,"action":1,"button_pressed":3,"time_out":false,"dwell_time":65.0009765625,"response_time":1682709599243.12},{"trial":5,"action":1,"button_pressed":9,"time_out":false,"dwell_time":47.260009765625,"response_time":1682709599609.47},{"trial":5,"action":1,"button_pressed":5,"time_out":false,"dwell_time":47.75390625,"response_time":1682709600209.95},{"trial":5,"action":1,"button_pressed":6,"time_out":false,"dwell_time":30.414794921875,"response_time":1682709600709.02},{"trial":5,"action":9,"button_pressed":-1,"time_out":false,"dwell_time":32.4970703125,"response_time":1682709601426.61},{"trial":6,"action":1,"button_pressed":2,"time_out":false,"dwell_time":63.31884765625,"response_time":1682709623351.34},{"trial":6,"action":1,"button_pressed":4,"time_out":false,"dwell_time":63.7939453125,"response_time":1682709623734.99},{"trial":6,"action":1,"button_pressed":11,"time_out":false,"dwell_time":96.41015625,"response_time":1682709625600.42},{"trial":6,"action":1,"button_pressed":6,"time_out":false,"dwell_time":63.821044921875,"response_time":1682709627367.15},{"trial":6,"action":1,"button_pressed":0,"time_out":false,"dwell_time":80.85205078125,"response_time":1682709627999.64},{"trial":6,"action":1,"button_pressed":5,"time_out":false,"dwell_time":64.840087890625,"response_time":1682709629466.43},{"trial":6,"action":1,"button_pressed":10,"time_out":false,"dwell_time":47.133056640625,"response_time":1682709629949.48},{"trial":6,"action":1,"button_pressed":3,"time_out":false,"dwell_time":81.546875,"response_time":1682709630549.54},{"trial":6,"action":9,"button_pressed":-1,"time_out":false,"dwell_time":48.3720703125,"response_time":1682709631050.16},{"trial":7,"action":1,"button_pressed":11,"time_out":false,"dwell_time":97.807861328125,"response_time":1682709656608.06},{"trial":7,"action":1,"button_pressed":9,"time_out":false,"dwell_time":63.4169921875,"response_time":1682709657223.48},{"trial":7,"action":1,"button_pressed":7,"time_out":false,"dwell_time":81.2490234375,"response_time":1682709658057.43},{"trial":7,"action":1,"button_pressed":4,"time_out":false,"dwell_time":31.10205078125,"response_time":1682709659207.18},{"trial":7,"action":1,"button_pressed":5,"time_out":false,"dwell_time":81.445068359375,"response_time":1682709659573.39},{"trial":7,"action":1,"button_pressed":10,"time_out":false,"dwell_time":63.61083984375,"response_time":1682709659956.59},{"trial":7,"action":1,"button_pressed":1,"time_out":false,"dwell_time":31.8779296875,"response_time":1682709660690.13},{"trial":7,"action":1,"button_pressed":0,"time_out":false,"dwell_time":31.529052734375,"response_time":1682709661240.16},{"trial":7,"action":9,"button_pressed":-1,"time_out":false,"dwell_time":16.76904296875,"response_time":1682709661538.86},{"trial":8,"action":1,"button_pressed":9,"time_out":false,"dwell_time":64.5849609375,"response_time":1682709678950.11},{"trial":8,"action":1,"button_pressed":1,"time_out":false,"dwell_time":31.538818359375,"response_time":1682709680100.51},{"trial":8,"action":1,"button_pressed":2,"time_out":false,"dwell_time":30.532958984375,"response_time":1682709680582.88},{"trial":8,"action":1,"button_pressed":8,"time_out":false,"dwell_time":64.2880859375,"response_time":1682709680966.03},{"trial":8,"action":1,"button_pressed":6,"time_out":false,"dwell_time":12.988037109375,"response_time":1682709681515.13},{"trial":8,"action":1,"button_pressed":11,"time_out":false,"dwell_time":31.028076171875,"response_time":1682709681966.44},{"trial":8,"action":9,"button_pressed":-1,"time_out":false,"dwell_time":83.154052734375,"response_time":1682709682551.17},{"trial":9,"action":1,"button_pressed":11,"time_out":false,"dwell_time":47.829833984375,"response_time":1682709702209.91},{"trial":9,"action":1,"button_pressed":4,"time_out":false,"dwell_time":48.18798828125,"response_time":1682709702559.91},{"trial":9,"action":1,"button_pressed":3,"time_out":false,"dwell_time":64.425048828125,"response_time":1682709702942.04},{"trial":9,"action":1,"button_pressed":10,"time_out":false,"dwell_time":46.137939453125,"response_time":1682709704440.97},{"trial":9,"action":1,"button_pressed":8,"time_out":false,"dwell_time":64.507080078125,"response_time":1682709704858.43},{"trial":9,"action":1,"button_pressed":2,"time_out":false,"dwell_time":64.162109375,"response_time":1682709705208.34},{"trial":9,"action":1,"button_pressed":1,"time_out":false,"dwell_time":30.48291015625,"response_time":1682709706424.34},{"trial":9,"action":9,"button_pressed":-1,"time_out":false,"dwell_time":65.372802734375,"response_time":1682709706841.7},{"trial":10,"action":1,"button_pressed":2,"time_out":false,"dwell_time":81.1279296875,"response_time":1682709727117.87},{"trial":10,"action":1,"button_pressed":6,"time_out":false,"dwell_time":63.5830078125,"response_time":1682709727467.3},{"trial":10,"action":1,"button_pressed":9,"time_out":false,"dwell_time":81.658935546875,"response_time":1682709727734.32},{"trial":10,"action":1,"button_pressed":3,"time_out":false,"dwell_time":64.05908203125,"response_time":1682709728100.82},{"trial":10,"action":1,"button_pressed":10,"time_out":false,"dwell_time":47.679931640625,"response_time":1682709728851},{"trial":10,"action":1,"button_pressed":0,"time_out":false,"dwell_time":47.219970703125,"response_time":1682709729283.51},{"trial":10,"action":1,"button_pressed":7,"time_out":false,"dwell_time":48.70703125,"response_time":1682709729867.44},{"trial":10,"action":9,"button_pressed":-1,"time_out":false,"dwell_time":65.421142578125,"response_time":1682709730533.99}]}