{"meta_data":{"additional_headers":{},"game_name":"Recollect","version":"2.53.01","user_name":"8","organization":"braingamecenter","study":"mpl2_2022_11","session_number":0,"device_id":"74342D95-EE82-45E3-8ADF-48FB3203C5DD"},"data":[{"trial":0,"action":1,"button_pressed":5,"time_out":false,"dwell_time":63.906005859375,"response_time":1675814573621.12},{"trial":0,"action":1,"button_pressed":3,"time_out":false,"dwell_time":31.716064453125,"response_time":1675814574071.4},{"trial":0,"action":9,"button_pressed":-1,"time_out":false,"dwell_time":76.008056640625,"response_time":1675814574648.96},{"trial":1,"action":1,"button_pressed":1,"time_out":false,"dwell_time":64.5341796875,"response_time":1675814584251.59},{"trial":1,"action":1,"button_pressed":6,"time_out":false,"dwell_time":81.726806640625,"response_time":1675814584534.9},{"trial":1,"action":1,"button_pressed":8,"time_out":false,"dwell_time":65.052978515625,"response_time":1675814585134.49},{"trial":1,"action":9,"button_pressed":-1,"time_out":false,"dwell_time":64.2041015625,"response_time":1675814585800.91},{"trial":2,"action":1,"button_pressed":3,"time_out":false,"dwell_time":30.867919921875,"response_time":1675814597680.28},{"trial":2,"action":1,"button_pressed":5,"time_out":false,"dwell_time":64.39599609375,"response_time":1675814598130.22},{"trial":2,"action":1,"button_pressed":9,"time_out":false,"dwell_time":48.798828125,"response_time":1675814598613.92},{"trial":2,"action":1,"button_pressed":2,"time_out":false,"dwell_time":48.27099609375,"response_time":1675814599063.72},{"trial":2,"action":9,"button_pressed":-1,"time_out":false,"dwell_time":48.77392578125,"response_time":1675814599580.07},{"trial":3,"action":1,"button_pressed":3,"time_out":false,"dwell_time":64.64990234375,"response_time":1675814614341.16},{"trial":3,"action":1,"button_pressed":8,"time_out":false,"dwell_time":81.6298828125,"response_time":1675814614808.23},{"trial":3,"action":1,"button_pressed":4,"time_out":false,"dwell_time":64.43310546875,"response_time":1675814615190.65},{"trial":3,"action":1,"button_pressed":10,"time_out":false,"dwell_time":30.655029296875,"response_time":1675814615557.69},{"trial":3,"action":1,"button_pressed":11,"time_out":false,"dwell_time":30.72705078125,"response_time":1675814615957.53},{"trial":3,"action":9,"button_pressed":-1,"time_out":false,"dwell_time":81.587890625,"response_time":1675814616507.46},{"trial":4,"action":1,"button_pressed":4,"time_out":false,"dwell_time":64.534912109375,"response_time":1675814634085.29},{"trial":4,"action":1,"button_pressed":11,"time_out":false,"dwell_time":64.5068359375,"response_time":1675814635185.08},{"trial":4,"action":1,"button_pressed":3,"time_out":false,"dwell_time":65.18115234375,"response_time":1675814635751.31},{"trial":4,"action":1,"button_pressed":2,"time_out":false,"dwell_time":48.218017578125,"response_time":1675814636351.65},{"trial":4,"action":1,"button_pressed":10,"time_out":false,"dwell_time":31.458984375,"response_time":1675814636868.11},{"trial":4,"action":1,"button_pressed":6,"time_out":false,"dwell_time":47.173095703125,"response_time":1675814637333.79},{"trial":4,"action":9,"button_pressed":-1,"time_out":false,"dwell_time":16.8759765625,"response_time":1675814638000.18},{"trial":5,"action":1,"button_pressed":3,"time_out":false,"dwell_time":48.55078125,"response_time":1675814657777.54},{"trial":5,"action":1,"button_pressed":0,"time_out":false,"dwell_time":81.779052734375,"response_time":1675814658160.68},{"trial":5,"action":1,"button_pressed":5,"time_out":false,"dwell_time":65.260009765625,"response_time":1675814658527.2},{"trial":5,"action":1,"button_pressed":4,"time_out":false,"dwell_time":48.322998046875,"response_time":1675814658893.67},{"trial":5,"action":1,"button_pressed":1,"time_out":false,"dwell_time":64.3408203125,"response_time":1675814659310.3},{"trial":5,"action":1,"button_pressed":2,"time_out":false,"dwell_time":64.4091796875,"response_time":1675814659726.9},{"trial":5,"action":0,"button_pressed":-1,"time_out":false,"dwell_time":48.873779296875,"response_time":1675814662259.75},{"trial":5,"action":1,"button_pressed":3,"time_out":false,"dwell_time":64.452880859375,"response_time":1675814662925.92},{"trial":5,"action":1,"button_pressed":0,"time_out":false,"dwell_time":64.942138671875,"response_time":1675814663275.58},{"trial":5,"action":0,"button_pressed":-1,"time_out":false,"dwell_time":48.2509765625,"response_time":1675814664691.77},{"trial":5,"action":1,"button_pressed":3,"time_out":false,"dwell_time":81.720947265625,"response_time":1675814665108.39},{"trial":5,"action":1,"button_pressed":0,"time_out":false,"dwell_time":30.871826171875,"response_time":1675814665458.17},{"trial":5,"action":1,"button_pressed":10,"time_out":false,"dwell_time":81.746826171875,"response_time":1675814666457.98},{"trial":5,"action":1,"button_pressed":4,"time_out":false,"dwell_time":98.387939453125,"response_time":1675814668857.19},{"trial":5,"action":1,"button_pressed":1,"time_out":false,"dwell_time":31.513916015625,"response_time":1675814670156.5},{"trial":5,"action":1,"button_pressed":1,"time_out":false,"dwell_time":65.241943359375,"response_time":1675814671039.8},{"trial":5,"action":1,"button_pressed":1,"time_out":false,"dwell_time":81.781005859375,"response_time":1675814672555.98},{"trial":5,"action":1,"button_pressed":1,"time_out":false,"dwell_time":47.49609375,"response_time":1675814673055.56},{"trial":5,"action":1,"button_pressed":1,"time_out":false,"dwell_time":65.14306640625,"response_time":1675814673805.55},{"trial":5,"action":0,"button_pressed":-1,"time_out":false,"dwell_time":47.593017578125,"response_time":1675814674721.97},{"trial":5,"action":1,"button_pressed":3,"time_out":false,"dwell_time":65.01513671875,"response_time":1675814675355.01},{"trial":5,"action":1,"button_pressed":10,"time_out":false,"dwell_time":64.387939453125,"response_time":1675814675771.64},{"trial":5,"action":1,"button_pressed":0,"time_out":false,"dwell_time":65.162109375,"response_time":1675814676188.1},{"trial":5,"action":1,"button_pressed":4,"time_out":false,"dwell_time":47.984130859375,"response_time":1675814676538.41},{"trial":5,"action":1,"button_pressed":1,"time_out":false,"dwell_time":64.55908203125,"response_time":1675814676970.52},{"trial":5,"action":1,"button_pressed":5,"time_out":false,"dwell_time":64.37890625,"response_time":1675814677670.33},{"trial":5,"action":1,"button_pressed":2,"time_out":false,"dwell_time":47.60888671875,"response_time":1675814677887.48},{"trial":5,"action":9,"button_pressed":-1,"time_out":false,"dwell_time":31.326904296875,"response_time":1675814678304.36},{"trial":6,"action":1,"button_pressed":11,"time_out":false,"dwell_time":64.81201171875,"response_time":1675814698081.38},{"trial":6,"action":1,"button_pressed":4,"time_out":false,"dwell_time":64.472900390625,"response_time":1675814698430.15},{"trial":6,"action":1,"button_pressed":3,"time_out":false,"dwell_time":81.947021484375,"response_time":1675814698764.1},{"trial":6,"action":1,"button_pressed":10,"time_out":false,"dwell_time":48.109130859375,"response_time":1675814699114.43},{"trial":6,"action":1,"button_pressed":2,"time_out":false,"dwell_time":63.64599609375,"response_time":1675814699479.76},{"trial":6,"action":1,"button_pressed":8,"time_out":false,"dwell_time":48.197021484375,"response_time":1675814699813.61},{"trial":6,"action":1,"button_pressed":1,"time_out":false,"dwell_time":98.579833984375,"response_time":1675814701096.71},{"trial":6,"action":1,"button_pressed":9,"time_out":false,"dwell_time":48.954833984375,"response_time":1675814707628.34},{"trial":6,"action":9,"button_pressed":-1,"time_out":false,"dwell_time":48.762939453125,"response_time":1675814709027.69},{"trial":7,"action":1,"button_pressed":11,"time_out":false,"dwell_time":48.434814453125,"response_time":1675814724089.03},{"trial":7,"action":1,"button_pressed":4,"time_out":false,"dwell_time":114.541015625,"response_time":1675814728087.94},{"trial":7,"action":1,"button_pressed":4,"time_out":false,"dwell_time":31.75390625,"response_time":1675814728154.4},{"trial":7,"action":1,"button_pressed":5,"time_out":false,"dwell_time":81.505126953125,"response_time":1675814729953.54},{"trial":7,"action":1,"button_pressed":3,"time_out":false,"dwell_time":64.486083984375,"response_time":1675814730469.74},{"trial":7,"action":1,"button_pressed":9,"time_out":false,"dwell_time":31.215087890625,"response_time":1675814731187.18},{"trial":7,"action":9,"button_pressed":-1,"time_out":false,"dwell_time":16.93701171875,"response_time":1675814731686.16},{"trial":8,"action":1,"button_pressed":6,"time_out":false,"dwell_time":47.259033203125,"response_time":1675814746215.23},{"trial":8,"action":1,"button_pressed":3,"time_out":false,"dwell_time":80.96484375,"response_time":1675814746531.99},{"trial":8,"action":1,"button_pressed":8,"time_out":false,"dwell_time":47.2978515625,"response_time":1675814746864.78},{"trial":8,"action":1,"button_pressed":11,"time_out":false,"dwell_time":31.126953125,"response_time":1675814747348.04},{"trial":8,"action":1,"button_pressed":0,"time_out":false,"dwell_time":65.220947265625,"response_time":1675814747831.35},{"trial":8,"action":9,"button_pressed":-1,"time_out":false,"dwell_time":81.27587890625,"response_time":1675814748298.24},{"trial":9,"action":1,"button_pressed":7,"time_out":false,"dwell_time":114.659912109375,"response_time":1675814765376.19},{"trial":9,"action":1,"button_pressed":6,"time_out":false,"dwell_time":97.817138671875,"response_time":1675814765791.79},{"trial":9,"action":1,"button_pressed":8,"time_out":false,"dwell_time":80.89599609375,"response_time":1675814766258.96},{"trial":9,"action":1,"button_pressed":0,"time_out":false,"dwell_time":97.635009765625,"response_time":1675814766708.62},{"trial":9,"action":1,"button_pressed":4,"time_out":false,"dwell_time":47.387939453125,"response_time":1675814767024.98},{"trial":9,"action":1,"button_pressed":1,"time_out":false,"dwell_time":64.532958984375,"response_time":1675814767491.89},{"trial":9,"action":9,"button_pressed":-1,"time_out":false,"dwell_time":66.541015625,"response_time":1675814767926.32},{"trial":10,"action":1,"button_pressed":5,"time_out":false,"dwell_time":48.22314453125,"response_time":1675814784886.59},{"trial":10,"action":1,"button_pressed":10,"time_out":false,"dwell_time":13.74609375,"response_time":1675814785252.21},{"trial":10,"action":1,"button_pressed":7,"time_out":false,"dwell_time":48.635986328125,"response_time":1675814785669.57},{"trial":10,"action":1,"button_pressed":4,"time_out":false,"dwell_time":64.787109375,"response_time":1675814786018.78},{"trial":10,"action":1,"button_pressed":0,"time_out":false,"dwell_time":81,"response_time":1675814786352.38},{"trial":10,"action":1,"button_pressed":8,"time_out":false,"dwell_time":48.628173828125,"response_time":1675814786935.86},{"trial":10,"action":9,"button_pressed":-1,"time_out":false,"dwell_time":97.85400390625,"response_time":1675814788751.65},{"trial":11,"action":1,"button_pressed":5,"time_out":false,"dwell_time":30.666015625,"response_time":1675814808144.84},{"trial":11,"action":1,"button_pressed":3,"time_out":false,"dwell_time":48.2080078125,"response_time":1675814808545.56},{"trial":11,"action":1,"button_pressed":8,"time_out":false,"dwell_time":48.06298828125,"response_time":1675814808911.99},{"trial":11,"action":1,"button_pressed":11,"time_out":false,"dwell_time":47.993896484375,"response_time":1675814809395.12},{"trial":11,"action":1,"button_pressed":7,"time_out":false,"dwell_time":48.31201171875,"response_time":1675814809745.05},{"trial":11,"action":1,"button_pressed":4,"time_out":false,"dwell_time":48.06884765625,"response_time":1675814810144.14},{"trial":11,"action":1,"button_pressed":10,"time_out":false,"dwell_time":31.40087890625,"response_time":1675814810494.05},{"trial":11,"action":9,"button_pressed":-1,"time_out":false,"dwell_time":49.376953125,"response_time":1675814811178.23},{"trial":12,"action":1,"button_pressed":11,"time_out":false,"dwell_time":48.248046875,"response_time":1675814833453.11},{"trial":12,"action":1,"button_pressed":0,"time_out":false,"dwell_time":48.324951171875,"response_time":1675814833869.69},{"trial":12,"action":1,"button_pressed":7,"time_out":false,"dwell_time":30.52490234375,"response_time":1675814834302.84},{"trial":12,"action":1,"button_pressed":4,"time_out":false,"dwell_time":64.14208984375,"response_time":1675814834735.97},{"trial":12,"action":1,"button_pressed":2,"time_out":false,"dwell_time":81.7060546875,"response_time":1675814835069.49},{"trial":12,"action":1,"button_pressed":1,"time_out":false,"dwell_time":64.35498046875,"response_time":1675814835469.27},{"trial":12,"action":1,"button_pressed":9,"time_out":false,"dwell_time":30.93701171875,"response_time":1675814835935.87},{"trial":12,"action":1,"button_pressed":10,"time_out":false,"dwell_time":30.845947265625,"response_time":1675814837285.26},{"trial":12,"action":9,"button_pressed":-1,"time_out":false,"dwell_time":16.888916015625,"response_time":1675814837718.12},{"trial":13,"action":1,"button_pressed":10,"time_out":false,"dwell_time":48.242919921875,"response_time":1675814859845.26},{"trial":13,"action":1,"button_pressed":8,"time_out":false,"dwell_time":47.335205078125,"response_time":1675814860194.28},{"trial":13,"action":0,"button_pressed":-1,"time_out":false,"dwell_time":47.7138671875,"response_time":1675814861144.29},{"trial":13,"action":1,"button_pressed":10,"time_out":false,"dwell_time":63.337890625,"response_time":1675814861543.34},{"trial":13,"action":1,"button_pressed":2,"time_out":false,"dwell_time":48.08203125,"response_time":1675814861894.38},{"trial":13,"action":1,"button_pressed":9,"time_out":false,"dwell_time":48.133056640625,"response_time":1675814862494.31},{"trial":13,"action":1,"button_pressed":8,"time_out":false,"dwell_time":48.087890625,"response_time":1675814862826.79},{"trial":13,"action":1,"button_pressed":1,"time_out":false,"dwell_time":64.658935546875,"response_time":1675814863926.91},{"trial":13,"action":1,"button_pressed":6,"time_out":false,"dwell_time":47.9580078125,"response_time":1675814864843.48},{"trial":13,"action":1,"button_pressed":5,"time_out":false,"dwell_time":63.614990234375,"response_time":1675814866075.32},{"trial":13,"action":1,"button_pressed":11,"time_out":false,"dwell_time":31.55615234375,"response_time":1675814866525.68},{"trial":13,"action":9,"button_pressed":-1,"time_out":false,"dwell_time":32.151123046875,"response_time":1675814868042.34}]}