{"meta_data":{"additional_headers":{},"game_name":"Recollect","version":"2.53.01","user_name":"92","organization":"braingamecenter","study":"mpl2_2022_11","session_number":0,"device_id":"74342D95-EE82-45E3-8ADF-48FB3203C5DD"},"data":[{"trial":0,"action":1,"button_pressed":7,"time_out":false,"dwell_time":47.81005859375,"response_time":1683230437318.55},{"trial":0,"action":1,"button_pressed":4,"time_out":false,"dwell_time":47.279052734375,"response_time":1683230437751.02},{"trial":0,"action":9,"button_pressed":-1,"time_out":false,"dwell_time":92.675048828125,"response_time":1683230438395.45},{"trial":1,"action":1,"button_pressed":11,"time_out":false,"dwell_time":48.155029296875,"response_time":1683230448298.4},{"trial":1,"action":1,"button_pressed":2,"time_out":false,"dwell_time":30.7060546875,"response_time":1683230448864.05},{"trial":1,"action":1,"button_pressed":9,"time_out":false,"dwell_time":48.070068359375,"response_time":1683230449380.69},{"trial":1,"action":9,"button_pressed":-1,"time_out":false,"dwell_time":114.880126953125,"response_time":1683230450247},{"trial":2,"action":1,"button_pressed":0,"time_out":false,"dwell_time":98.5810546875,"response_time":1683230462626.65},{"trial":2,"action":1,"button_pressed":10,"time_out":false,"dwell_time":48.244873046875,"response_time":1683230462993.27},{"trial":2,"action":1,"button_pressed":2,"time_out":false,"dwell_time":48.087890625,"response_time":1683230463392.62},{"trial":2,"action":1,"button_pressed":6,"time_out":false,"dwell_time":46.98291015625,"response_time":1683230463942.31},{"trial":2,"action":9,"button_pressed":-1,"time_out":false,"dwell_time":64.06103515625,"response_time":1683230464625.49},{"trial":3,"action":1,"button_pressed":1,"time_out":false,"dwell_time":81.93896484375,"response_time":1683230479421.18},{"trial":3,"action":1,"button_pressed":9,"time_out":false,"dwell_time":63.985107421875,"response_time":1683230479936.5},{"trial":3,"action":1,"button_pressed":7,"time_out":false,"dwell_time":114.761962890625,"response_time":1683230480520.55},{"trial":3,"action":1,"button_pressed":7,"time_out":false,"dwell_time":47.578857421875,"response_time":1683230480603.54},{"trial":3,"action":0,"button_pressed":-1,"time_out":false,"dwell_time":81.089111328125,"response_time":1683230481903.66},{"trial":3,"action":1,"button_pressed":1,"time_out":false,"dwell_time":81.462890625,"response_time":1683230487851.4},{"trial":3,"action":1,"button_pressed":11,"time_out":false,"dwell_time":81.541015625,"response_time":1683230488401.26},{"trial":3,"action":1,"button_pressed":9,"time_out":false,"dwell_time":47.8388671875,"response_time":1683230488784.13},{"trial":3,"action":1,"button_pressed":7,"time_out":false,"dwell_time":64.22998046875,"response_time":1683230489133.72},{"trial":3,"action":1,"button_pressed":4,"time_out":false,"dwell_time":31.373046875,"response_time":1683230489517.37},{"trial":3,"action":9,"button_pressed":-1,"time_out":false,"dwell_time":131.513916015625,"response_time":1683230490417},{"trial":4,"action":1,"button_pressed":10,"time_out":false,"dwell_time":47.219970703125,"response_time":1683230504929.03},{"trial":4,"action":1,"button_pressed":5,"time_out":false,"dwell_time":47.739990234375,"response_time":1683230505362.09},{"trial":4,"action":1,"button_pressed":3,"time_out":false,"dwell_time":81.149169921875,"response_time":1683230505812.32},{"trial":4,"action":1,"button_pressed":6,"time_out":false,"dwell_time":80.552978515625,"response_time":1683230506145.31},{"trial":4,"action":1,"button_pressed":2,"time_out":false,"dwell_time":31.25390625,"response_time":1683230506578.93},{"trial":4,"action":9,"button_pressed":-1,"time_out":false,"dwell_time":130.597900390625,"response_time":1683230507294.78},{"trial":5,"action":1,"button_pressed":3,"time_out":false,"dwell_time":81.862060546875,"response_time":1683230524706.04},{"trial":5,"action":1,"button_pressed":7,"time_out":false,"dwell_time":80.846923828125,"response_time":1683230525322.48},{"trial":5,"action":1,"button_pressed":10,"time_out":false,"dwell_time":80.865966796875,"response_time":1683230525988.92},{"trial":5,"action":1,"button_pressed":4,"time_out":false,"dwell_time":47.941162109375,"response_time":1683230526405.76},{"trial":5,"action":1,"button_pressed":2,"time_out":false,"dwell_time":81.7060546875,"response_time":1683230526838.62},{"trial":5,"action":1,"button_pressed":9,"time_out":false,"dwell_time":48.35400390625,"response_time":1683230527305.45},{"trial":5,"action":9,"button_pressed":-1,"time_out":false,"dwell_time":249.785888671875,"response_time":1683230528689.46},{"trial":6,"action":1,"button_pressed":0,"time_out":false,"dwell_time":65.265869140625,"response_time":1683230547215.36},{"trial":6,"action":1,"button_pressed":4,"time_out":false,"dwell_time":64.201171875,"response_time":1683230547564.36},{"trial":6,"action":1,"button_pressed":11,"time_out":false,"dwell_time":64.776123046875,"response_time":1683230547948.05},{"trial":6,"action":1,"button_pressed":3,"time_out":false,"dwell_time":30.532958984375,"response_time":1683230548297.89},{"trial":6,"action":1,"button_pressed":5,"time_out":false,"dwell_time":30.569091796875,"response_time":1683230548647.71},{"trial":6,"action":1,"button_pressed":7,"time_out":false,"dwell_time":48.530029296875,"response_time":1683230549064.94},{"trial":6,"action":9,"button_pressed":-1,"time_out":false,"dwell_time":131.960205078125,"response_time":1683230550314.57},{"trial":7,"action":1,"button_pressed":0,"time_out":false,"dwell_time":147.626953125,"response_time":1683230572389.67},{"trial":7,"action":1,"button_pressed":9,"time_out":false,"dwell_time":80.659912109375,"response_time":1683230576238.95},{"trial":7,"action":1,"button_pressed":3,"time_out":false,"dwell_time":47.325927734375,"response_time":1683230576738.58},{"trial":7,"action":1,"button_pressed":2,"time_out":false,"dwell_time":114.407958984375,"response_time":1683230577388},{"trial":7,"action":1,"button_pressed":10,"time_out":false,"dwell_time":47.958984375,"response_time":1683230577888.18},{"trial":7,"action":1,"button_pressed":7,"time_out":false,"dwell_time":63.30712890625,"response_time":1683230578454.1},{"trial":7,"action":1,"button_pressed":7,"time_out":false,"dwell_time":131.516845703125,"response_time":1683230581120.69},{"trial":7,"action":0,"button_pressed":-1,"time_out":false,"dwell_time":131.39697265625,"response_time":1683230582586.87},{"trial":7,"action":1,"button_pressed":0,"time_out":false,"dwell_time":96.702880859375,"response_time":1683230589367.28},{"trial":7,"action":1,"button_pressed":9,"time_out":false,"dwell_time":47.531982421875,"response_time":1683230590001.33},{"trial":7,"action":1,"button_pressed":3,"time_out":false,"dwell_time":81.0068359375,"response_time":1683230590616.97},{"trial":7,"action":1,"button_pressed":2,"time_out":false,"dwell_time":131.617919921875,"response_time":1683230591234.07},{"trial":7,"action":1,"button_pressed":6,"time_out":false,"dwell_time":64.016845703125,"response_time":1683230591816.49},{"trial":7,"action":1,"button_pressed":10,"time_out":false,"dwell_time":47.548828125,"response_time":1683230592450.62},{"trial":7,"action":1,"button_pressed":7,"time_out":false,"dwell_time":80.5341796875,"response_time":1683230593099.9},{"trial":7,"action":0,"button_pressed":-1,"time_out":false,"dwell_time":98.281005859375,"response_time":1683230596698.94},{"trial":7,"action":1,"button_pressed":0,"time_out":false,"dwell_time":98.10498046875,"response_time":1683230597248.76},{"trial":7,"action":1,"button_pressed":3,"time_out":false,"dwell_time":97.489990234375,"response_time":1683230597914.43},{"trial":7,"action":1,"button_pressed":3,"time_out":false,"dwell_time":64.302978515625,"response_time":1683230599180.69},{"trial":7,"action":0,"button_pressed":-1,"time_out":false,"dwell_time":65.31005859375,"response_time":1683230600114.7},{"trial":7,"action":1,"button_pressed":0,"time_out":false,"dwell_time":81.302001953125,"response_time":1683230600614.18},{"trial":7,"action":1,"button_pressed":9,"time_out":false,"dwell_time":30.508056640625,"response_time":1683230601030.54},{"trial":7,"action":1,"button_pressed":3,"time_out":false,"dwell_time":64.8779296875,"response_time":1683230601547.05},{"trial":7,"action":1,"button_pressed":2,"time_out":false,"dwell_time":114.302001953125,"response_time":1683230604812.32},{"trial":7,"action":1,"button_pressed":6,"time_out":false,"dwell_time":63.196044921875,"response_time":1683230613675.88},{"trial":7,"action":1,"button_pressed":10,"time_out":false,"dwell_time":64.97900390625,"response_time":1683230614293.05},{"trial":7,"action":1,"button_pressed":7,"time_out":false,"dwell_time":46.539794921875,"response_time":1683230614674.73},{"trial":7,"action":9,"button_pressed":-1,"time_out":false,"dwell_time":64.078125,"response_time":1683230615475.78},{"trial":8,"action":1,"button_pressed":10,"time_out":false,"dwell_time":64.22412109375,"response_time":1683230635102.52},{"trial":8,"action":1,"button_pressed":1,"time_out":false,"dwell_time":47.922119140625,"response_time":1683230637019.33},{"trial":8,"action":1,"button_pressed":2,"time_out":false,"dwell_time":47.768798828125,"response_time":1683230637502.62},{"trial":8,"action":1,"button_pressed":7,"time_out":false,"dwell_time":81.343017578125,"response_time":1683230638035.39},{"trial":8,"action":1,"button_pressed":6,"time_out":false,"dwell_time":80.656982421875,"response_time":1683230638634.39},{"trial":8,"action":1,"button_pressed":0,"time_out":false,"dwell_time":114.754150390625,"response_time":1683230639301.6},{"trial":8,"action":1,"button_pressed":4,"time_out":false,"dwell_time":48.117919921875,"response_time":1683230639868.77},{"trial":8,"action":9,"button_pressed":-1,"time_out":false,"dwell_time":314.410888671875,"response_time":1683230641851.15},{"trial":9,"action":1,"button_pressed":3,"time_out":false,"dwell_time":97.576904296875,"response_time":1683230663877},{"trial":9,"action":1,"button_pressed":1,"time_out":false,"dwell_time":47.9921875,"response_time":1683230664193.79},{"trial":9,"action":1,"button_pressed":8,"time_out":false,"dwell_time":63.98681640625,"response_time":1683230664642.52},{"trial":9,"action":1,"button_pressed":5,"time_out":false,"dwell_time":64.643798828125,"response_time":1683230664993.09},{"trial":9,"action":1,"button_pressed":7,"time_out":false,"dwell_time":47.64892578125,"response_time":1683230665460.13},{"trial":9,"action":1,"button_pressed":0,"time_out":false,"dwell_time":64.14794921875,"response_time":1683230665941.97},{"trial":9,"action":1,"button_pressed":9,"time_out":false,"dwell_time":114.823974609375,"response_time":1683230666476.08},{"trial":9,"action":1,"button_pressed":10,"time_out":false,"dwell_time":97.236083984375,"response_time":1683230666892.36},{"trial":9,"action":9,"button_pressed":-1,"time_out":false,"dwell_time":148.717041015625,"response_time":1683230667926.04},{"trial":10,"action":1,"button_pressed":4,"time_out":false,"dwell_time":115.195068359375,"response_time":1683230694733.53},{"trial":10,"action":1,"button_pressed":2,"time_out":false,"dwell_time":80.637939453125,"response_time":1683230695216.56},{"trial":10,"action":1,"button_pressed":7,"time_out":false,"dwell_time":47.22509765625,"response_time":1683230695849.3},{"trial":10,"action":1,"button_pressed":9,"time_out":false,"dwell_time":97.52294921875,"response_time":1683230700964.61},{"trial":10,"action":1,"button_pressed":1,"time_out":false,"dwell_time":164.76806640625,"response_time":1683230703463.81},{"trial":10,"action":1,"button_pressed":3,"time_out":false,"dwell_time":97.342041015625,"response_time":1683230704029.34},{"trial":10,"action":0,"button_pressed":-1,"time_out":false,"dwell_time":47.989990234375,"response_time":1683230705796.78},{"trial":10,"action":1,"button_pressed":4,"time_out":false,"dwell_time":47.89990234375,"response_time":1683230706229.91},{"trial":10,"action":1,"button_pressed":2,"time_out":false,"dwell_time":64.884033203125,"response_time":1683230706629.38},{"trial":10,"action":1,"button_pressed":7,"time_out":false,"dwell_time":47.73193359375,"response_time":1683230707112.91},{"trial":10,"action":1,"button_pressed":9,"time_out":false,"dwell_time":47.658935546875,"response_time":1683230707512.82},{"trial":10,"action":1,"button_pressed":3,"time_out":false,"dwell_time":47.830078125,"response_time":1683230707945.92},{"trial":10,"action":1,"button_pressed":1,"time_out":false,"dwell_time":30.47705078125,"response_time":1683230708345.14},{"trial":10,"action":1,"button_pressed":5,"time_out":false,"dwell_time":64.964111328125,"response_time":1683230708828.7},{"trial":10,"action":1,"button_pressed":6,"time_out":false,"dwell_time":113.778076171875,"response_time":1683230709694.23},{"trial":10,"action":1,"button_pressed":11,"time_out":false,"dwell_time":48.0791015625,"response_time":1683230710111.43},{"trial":10,"action":9,"button_pressed":-1,"time_out":false,"dwell_time":181.349853515625,"response_time":1683230711977.93},{"trial":11,"action":1,"button_pressed":5,"time_out":false,"dwell_time":98.48291015625,"response_time":1683230736886.29},{"trial":11,"action":1,"button_pressed":7,"time_out":false,"dwell_time":63.77197265625,"response_time":1683230737368.89},{"trial":11,"action":1,"button_pressed":2,"time_out":false,"dwell_time":80.1259765625,"response_time":1683230737951.65},{"trial":11,"action":1,"button_pressed":11,"time_out":false,"dwell_time":64.013916015625,"response_time":1683230738534.82},{"trial":11,"action":1,"button_pressed":3,"time_out":false,"dwell_time":131.031982421875,"response_time":1683230739101.28},{"trial":11,"action":1,"button_pressed":4,"time_out":false,"dwell_time":131.013916015625,"response_time":1683230739651.98},{"trial":11,"action":1,"button_pressed":8,"time_out":false,"dwell_time":164.205810546875,"response_time":1683230740234.42},{"trial":11,"action":1,"button_pressed":10,"time_out":false,"dwell_time":63.150146484375,"response_time":1683230740684.29},{"trial":11,"action":1,"button_pressed":0,"time_out":false,"dwell_time":81.618896484375,"response_time":1683230741168.06},{"trial":11,"action":9,"button_pressed":-1,"time_out":false,"dwell_time":616.1240234375,"response_time":1683230743318.68},{"trial":12,"action":1,"button_pressed":1,"time_out":false,"dwell_time":147.041015625,"response_time":1683230763593.33},{"trial":12,"action":1,"button_pressed":9,"time_out":false,"dwell_time":114.117919921875,"response_time":1683230764243.72},{"trial":12,"action":1,"button_pressed":7,"time_out":false,"dwell_time":81.575927734375,"response_time":1683230764776.83},{"trial":12,"action":1,"button_pressed":2,"time_out":false,"dwell_time":80.0458984375,"response_time":1683230765342.54},{"trial":12,"action":1,"button_pressed":8,"time_out":false,"dwell_time":80.7470703125,"response_time":1683230767658.47},{"trial":12,"action":1,"button_pressed":11,"time_out":false,"dwell_time":64.89208984375,"response_time":1683230768175.6},{"trial":12,"action":1,"button_pressed":6,"time_out":false,"dwell_time":63.628173828125,"response_time":1683230768458.25},{"trial":12,"action":9,"button_pressed":-1,"time_out":false,"dwell_time":831.16796875,"response_time":1683230770141.57},{"trial":13,"action":1,"button_pressed":11,"time_out":false,"dwell_time":65.192138671875,"response_time":1683230790068.81},{"trial":13,"action":1,"button_pressed":4,"time_out":false,"dwell_time":48.010986328125,"response_time":1683230790534.91},{"trial":13,"action":1,"button_pressed":3,"time_out":false,"dwell_time":97.61279296875,"response_time":1683230791050.78},{"trial":13,"action":1,"button_pressed":10,"time_out":false,"dwell_time":63.986083984375,"response_time":1683230791500.55},{"trial":13,"action":1,"button_pressed":2,"time_out":false,"dwell_time":65.06494140625,"response_time":1683230792067.88},{"trial":13,"action":1,"button_pressed":8,"time_out":false,"dwell_time":64.010986328125,"response_time":1683230792600.3},{"trial":13,"action":1,"button_pressed":1,"time_out":false,"dwell_time":64.087890625,"response_time":1683230793117.44},{"trial":13,"action":9,"button_pressed":-1,"time_out":false,"dwell_time":130.658203125,"response_time":1683230795416.44},{"trial":14,"action":1,"button_pressed":8,"time_out":false,"dwell_time":114.508056640625,"response_time":1683230818526.02},{"trial":14,"action":1,"button_pressed":9,"time_out":false,"dwell_time":113.34814453125,"response_time":1683230819208.24},{"trial":14,"action":1,"button_pressed":10,"time_out":false,"dwell_time":47.404052734375,"response_time":1683230819575.05},{"trial":14,"action":1,"button_pressed":2,"time_out":false,"dwell_time":47.036865234375,"response_time":1683230820108.33},{"trial":14,"action":1,"button_pressed":4,"time_out":false,"dwell_time":80.7568359375,"response_time":1683230820991.64},{"trial":14,"action":1,"button_pressed":1,"time_out":false,"dwell_time":80.552001953125,"response_time":1683230821541.26},{"trial":14,"action":1,"button_pressed":0,"time_out":false,"dwell_time":47.235107421875,"response_time":1683230822024.31},{"trial":14,"action":1,"button_pressed":5,"time_out":false,"dwell_time":80.087158203125,"response_time":1683230822523.64},{"trial":14,"action":9,"button_pressed":-1,"time_out":false,"dwell_time":196.93017578125,"response_time":1683230823373.8},{"trial":15,"action":1,"button_pressed":1,"time_out":false,"dwell_time":297.617919921875,"response_time":1683230846683.45},{"trial":15,"action":1,"button_pressed":10,"time_out":false,"dwell_time":97.1650390625,"response_time":1683230848415.06},{"trial":15,"action":1,"button_pressed":2,"time_out":false,"dwell_time":147.587890625,"response_time":1683230849115.01},{"trial":15,"action":1,"button_pressed":7,"time_out":false,"dwell_time":47.919921875,"response_time":1683230849748.48},{"trial":15,"action":1,"button_pressed":0,"time_out":false,"dwell_time":130.955078125,"response_time":1683230850431.12},{"trial":15,"action":1,"button_pressed":3,"time_out":false,"dwell_time":197.442138671875,"response_time":1683230851097.7},{"trial":15,"action":1,"button_pressed":9,"time_out":false,"dwell_time":63.626953125,"response_time":1683230858128.5},{"trial":15,"action":1,"button_pressed":4,"time_out":false,"dwell_time":47.8779296875,"response_time":1683230858413.03},{"trial":15,"action":0,"button_pressed":-1,"time_out":false,"dwell_time":98.528076171875,"response_time":1683230864427.58},{"trial":15,"action":1,"button_pressed":1,"time_out":false,"dwell_time":98.19189453125,"response_time":1683230865010.37},{"trial":15,"action":1,"button_pressed":10,"time_out":false,"dwell_time":80.760009765625,"response_time":1683230865526.96},{"trial":15,"action":1,"button_pressed":2,"time_out":false,"dwell_time":248.31494140625,"response_time":1683230866326.65},{"trial":15,"action":0,"button_pressed":-1,"time_out":false,"dwell_time":64.495849609375,"response_time":1683230867476.53},{"trial":15,"action":1,"button_pressed":1,"time_out":false,"dwell_time":115.01416015625,"response_time":1683230868059.6},{"trial":15,"action":1,"button_pressed":10,"time_out":false,"dwell_time":97.43017578125,"response_time":1683230868775.12},{"trial":15,"action":1,"button_pressed":4,"time_out":false,"dwell_time":64.159912109375,"response_time":1683230869292.29},{"trial":15,"action":1,"button_pressed":2,"time_out":false,"dwell_time":280.72607421875,"response_time":1683230870108.72},{"trial":15,"action":1,"button_pressed":7,"time_out":false,"dwell_time":64.695068359375,"response_time":1683230871541.47},{"trial":15,"action":1,"button_pressed":0,"time_out":false,"dwell_time":130.968994140625,"response_time":1683230876322.84},{"trial":15,"action":1,"button_pressed":9,"time_out":false,"dwell_time":64.072998046875,"response_time":1683230876823.16},{"trial":15,"action":1,"button_pressed":6,"time_out":false,"dwell_time":81.327880859375,"response_time":1683230877123.04},{"trial":15,"action":9,"button_pressed":-1,"time_out":false,"dwell_time":97.950927734375,"response_time":1683230877739.23}]}