{"meta_data":{"additional_headers":{},"game_name":"Recollect","version":"2.53.01","user_name":"97","organization":"braingamecenter","study":"mpl2_2022_11","session_number":0,"device_id":"74342D95-EE82-45E3-8ADF-48FB3203C5DD"},"data":[{"trial":0,"action":1,"button_pressed":2,"time_out":false,"dwell_time":80.904052734375,"response_time":1683835675724.79},{"trial":0,"action":1,"button_pressed":9,"time_out":false,"dwell_time":47.662841796875,"response_time":1683835676225.68},{"trial":0,"action":9,"button_pressed":-1,"time_out":false,"dwell_time":108.052978515625,"response_time":1683835676884.8},{"trial":1,"action":1,"button_pressed":5,"time_out":false,"dwell_time":81.427001953125,"response_time":1683835686255.48},{"trial":1,"action":1,"button_pressed":8,"time_out":false,"dwell_time":64.076904296875,"response_time":1683835686804.46},{"trial":1,"action":1,"button_pressed":0,"time_out":false,"dwell_time":48.776123046875,"response_time":1683835687322.08},{"trial":1,"action":9,"button_pressed":-1,"time_out":false,"dwell_time":81.9541015625,"response_time":1683835687755.18},{"trial":2,"action":1,"button_pressed":1,"time_out":false,"dwell_time":114.906005859375,"response_time":1683835699417.68},{"trial":2,"action":1,"button_pressed":6,"time_out":false,"dwell_time":97.451904296875,"response_time":1683835699916.75},{"trial":2,"action":1,"button_pressed":5,"time_out":false,"dwell_time":80.768798828125,"response_time":1683835700149.93},{"trial":2,"action":1,"button_pressed":10,"time_out":false,"dwell_time":63.847900390625,"response_time":1683835700600.32},{"trial":2,"action":9,"button_pressed":-1,"time_out":false,"dwell_time":16.6279296875,"response_time":1683835701266.46},{"trial":3,"action":1,"button_pressed":5,"time_out":false,"dwell_time":64.928955078125,"response_time":1683835715462.3},{"trial":3,"action":1,"button_pressed":9,"time_out":false,"dwell_time":81.5859375,"response_time":1683835716028.7},{"trial":3,"action":1,"button_pressed":6,"time_out":false,"dwell_time":98.009765625,"response_time":1683835716261.96},{"trial":3,"action":1,"button_pressed":8,"time_out":false,"dwell_time":63.7412109375,"response_time":1683835716528.45},{"trial":3,"action":1,"button_pressed":7,"time_out":false,"dwell_time":81.39697265625,"response_time":1683835717061.88},{"trial":3,"action":9,"button_pressed":-1,"time_out":false,"dwell_time":82.072998046875,"response_time":1683835717678.61},{"trial":4,"action":1,"button_pressed":9,"time_out":false,"dwell_time":98.130126953125,"response_time":1683835734472.8},{"trial":4,"action":1,"button_pressed":1,"time_out":false,"dwell_time":97.6640625,"response_time":1683835734689.5},{"trial":4,"action":1,"button_pressed":2,"time_out":false,"dwell_time":80.841064453125,"response_time":1683835735055.05},{"trial":4,"action":1,"button_pressed":8,"time_out":false,"dwell_time":64.337890625,"response_time":1683835735621.69},{"trial":4,"action":1,"button_pressed":6,"time_out":false,"dwell_time":80.743896484375,"response_time":1683835735888.85},{"trial":4,"action":1,"button_pressed":11,"time_out":false,"dwell_time":80.466064453125,"response_time":1683835736238.53},{"trial":4,"action":9,"button_pressed":-1,"time_out":false,"dwell_time":98.296142578125,"response_time":1683835736721.66},{"trial":5,"action":1,"button_pressed":5,"time_out":false,"dwell_time":131.592041015625,"response_time":1683835756065.54},{"trial":5,"action":1,"button_pressed":3,"time_out":false,"dwell_time":81.552001953125,"response_time":1683835756531.93},{"trial":5,"action":1,"button_pressed":8,"time_out":false,"dwell_time":113.27392578125,"response_time":1683835756930.95},{"trial":5,"action":1,"button_pressed":11,"time_out":false,"dwell_time":113.304931640625,"response_time":1683835757430.75},{"trial":5,"action":1,"button_pressed":7,"time_out":false,"dwell_time":63.838134765625,"response_time":1683835757997.9},{"trial":5,"action":1,"button_pressed":4,"time_out":false,"dwell_time":98.22412109375,"response_time":1683835758231.41},{"trial":5,"action":1,"button_pressed":10,"time_out":false,"dwell_time":98.257080078125,"response_time":1683835758664.58},{"trial":5,"action":9,"button_pressed":-1,"time_out":false,"dwell_time":31.666015625,"response_time":1683835759947.51},{"trial":6,"action":1,"button_pressed":0,"time_out":false,"dwell_time":96.97900390625,"response_time":1683835781689.58},{"trial":6,"action":1,"button_pressed":5,"time_out":false,"dwell_time":80.8720703125,"response_time":1683835782489.15},{"trial":6,"action":1,"button_pressed":8,"time_out":false,"dwell_time":81.464111328125,"response_time":1683835783972.73},{"trial":6,"action":1,"button_pressed":8,"time_out":false,"dwell_time":81.387939453125,"response_time":1683835785422.28},{"trial":6,"action":1,"button_pressed":7,"time_out":false,"dwell_time":97.864990234375,"response_time":1683835788604.54},{"trial":6,"action":1,"button_pressed":3,"time_out":false,"dwell_time":97.554931640625,"response_time":1683835790953.08},{"trial":6,"action":1,"button_pressed":2,"time_out":false,"dwell_time":80.8359375,"response_time":1683835791570.18},{"trial":6,"action":9,"button_pressed":-1,"time_out":false,"dwell_time":97.343994140625,"response_time":1683835792436.36},{"trial":7,"action":1,"button_pressed":7,"time_out":false,"dwell_time":147.638916015625,"response_time":1683835814345.51},{"trial":7,"action":1,"button_pressed":5,"time_out":false,"dwell_time":148.074951171875,"response_time":1683835814929.17},{"trial":7,"action":1,"button_pressed":3,"time_out":false,"dwell_time":64.529052734375,"response_time":1683835816328.63},{"trial":7,"action":1,"button_pressed":4,"time_out":false,"dwell_time":47.0830078125,"response_time":1683835816578.32},{"trial":7,"action":1,"button_pressed":1,"time_out":false,"dwell_time":47.675048828125,"response_time":1683835816962.09},{"trial":7,"action":1,"button_pressed":10,"time_out":false,"dwell_time":63.5830078125,"response_time":1683835817377.97},{"trial":7,"action":1,"button_pressed":2,"time_out":false,"dwell_time":65.032958984375,"response_time":1683835817794.9},{"trial":7,"action":1,"button_pressed":8,"time_out":false,"dwell_time":47.162841796875,"response_time":1683835818127.82},{"trial":7,"action":9,"button_pressed":-1,"time_out":false,"dwell_time":65.399169921875,"response_time":1683835818778.28},{"trial":8,"action":1,"button_pressed":5,"time_out":false,"dwell_time":147.60302734375,"response_time":1683835843203.22},{"trial":8,"action":1,"button_pressed":11,"time_out":false,"dwell_time":164.074951171875,"response_time":1683835843502.14},{"trial":8,"action":1,"button_pressed":4,"time_out":false,"dwell_time":64.093017578125,"response_time":1683835844868.47},{"trial":8,"action":1,"button_pressed":3,"time_out":false,"dwell_time":46.929931640625,"response_time":1683835846218.26},{"trial":8,"action":1,"button_pressed":8,"time_out":false,"dwell_time":63.252197265625,"response_time":1683835846667.73},{"trial":8,"action":1,"button_pressed":7,"time_out":false,"dwell_time":113.94482421875,"response_time":1683835847217.65},{"trial":8,"action":1,"button_pressed":10,"time_out":false,"dwell_time":63.367919921875,"response_time":1683835847834.08},{"trial":8,"action":1,"button_pressed":2,"time_out":false,"dwell_time":64.85302734375,"response_time":1683835848317.97},{"trial":8,"action":1,"button_pressed":9,"time_out":false,"dwell_time":63.7890625,"response_time":1683835849067.58},{"trial":8,"action":9,"button_pressed":-1,"time_out":false,"dwell_time":148.194091796875,"response_time":1683835850633.58},{"trial":9,"action":1,"button_pressed":2,"time_out":false,"dwell_time":64.02685546875,"response_time":1683835875509.03},{"trial":9,"action":1,"button_pressed":6,"time_out":false,"dwell_time":47.055908203125,"response_time":1683835876441.73},{"trial":9,"action":1,"button_pressed":11,"time_out":false,"dwell_time":47.6220703125,"response_time":1683835876691.56},{"trial":9,"action":1,"button_pressed":1,"time_out":false,"dwell_time":63.616943359375,"response_time":1683835877041.43},{"trial":9,"action":1,"button_pressed":5,"time_out":false,"dwell_time":64.298095703125,"response_time":1683835878340.88},{"trial":9,"action":1,"button_pressed":10,"time_out":false,"dwell_time":63.232177734375,"response_time":1683835879007.06},{"trial":9,"action":1,"button_pressed":7,"time_out":false,"dwell_time":31.1259765625,"response_time":1683835879624.77},{"trial":9,"action":1,"button_pressed":4,"time_out":false,"dwell_time":64.0830078125,"response_time":1683835881223.72},{"trial":9,"action":1,"button_pressed":8,"time_out":false,"dwell_time":64.6728515625,"response_time":1683835881440.35},{"trial":9,"action":9,"button_pressed":-1,"time_out":false,"dwell_time":64.072998046875,"response_time":1683835882473.06},{"trial":10,"action":1,"button_pressed":9,"time_out":false,"dwell_time":47.30615234375,"response_time":1683835902583.14},{"trial":10,"action":1,"button_pressed":6,"time_out":false,"dwell_time":81.39501953125,"response_time":1683835903516.38},{"trial":10,"action":1,"button_pressed":11,"time_out":false,"dwell_time":30.489990234375,"response_time":1683835904299.06},{"trial":10,"action":1,"button_pressed":4,"time_out":false,"dwell_time":63.972900390625,"response_time":1683835904932.33},{"trial":10,"action":1,"button_pressed":10,"time_out":false,"dwell_time":47.0078125,"response_time":1683835905282.05},{"trial":10,"action":1,"button_pressed":3,"time_out":false,"dwell_time":47.799072265625,"response_time":1683835905549.31},{"trial":10,"action":1,"button_pressed":5,"time_out":false,"dwell_time":80.619140625,"response_time":1683835906181.95},{"trial":10,"action":1,"button_pressed":2,"time_out":false,"dwell_time":31.101806640625,"response_time":1683835907664.57},{"trial":10,"action":1,"button_pressed":8,"time_out":false,"dwell_time":46.99609375,"response_time":1683835908580.87},{"trial":10,"action":9,"button_pressed":-1,"time_out":false,"dwell_time":16.751220703125,"response_time":1683835908997.15},{"trial":11,"action":1,"button_pressed":2,"time_out":false,"dwell_time":47.885009765625,"response_time":1683835928775.13},{"trial":11,"action":1,"button_pressed":4,"time_out":false,"dwell_time":64.828857421875,"response_time":1683835929191.12},{"trial":11,"action":1,"button_pressed":8,"time_out":false,"dwell_time":63.904052734375,"response_time":1683835929856.88},{"trial":11,"action":1,"button_pressed":6,"time_out":false,"dwell_time":63.697998046875,"response_time":1683835930989.44},{"trial":11,"action":1,"button_pressed":1,"time_out":false,"dwell_time":80.171142578125,"response_time":1683835931906.19},{"trial":11,"action":1,"button_pressed":9,"time_out":false,"dwell_time":30.806884765625,"response_time":1683835932256.33},{"trial":11,"action":1,"button_pressed":0,"time_out":false,"dwell_time":98.14794921875,"response_time":1683835932673.24},{"trial":11,"action":9,"button_pressed":-1,"time_out":false,"dwell_time":47.472900390625,"response_time":1683835933106.46}]}